-4.759 
n/a 
n/a 
n/a 
n/a 
-4.759 
n/a 
n/a 
n/a 
n/a 
-4.759 
n/a 
n/a 
n/a 
n/a 
-4.759 
n/a 
n/a 
n/a 
n/a 
-1.934 -5.1845 -5.74 -1.934 -3.3715 -4.088 0 -4.7175 -9.269 -10.1205 0 -5.804 -4.221 -3.277 -3.436 -3.0365 -3.152 -3.3715 -6.041 -4.839 -3.325 -1.4985 -4.1365 -2.9705 -2.186 -4.673 -2.3345 -3.1385 -2.9705 -3.837 -2.3335 -5.1845 -4.5485 -3.3715 -3.277 -3.436 0 
-6.564 -5.7465 -7.7355 -4.622 -5.932 -4.088 -4.7175 -14.9573 -19.6441 -10.1205 -4.165 -8.1455 -6.644 -5.4395 -6.1485 -4.453 -5.921 -10.7025 -11.6826 -7.288 -3.898 -4.6595 -6.796 -3.89 -6.281 -5.63 -5.443501 -6.2845 -5.8435 -4.933 -8.1525 -10.9575 -7.8195 -4.9255 -5.4395 -3.436 
-6.819 -7.743001 -10.9143 -6.3075 -5.932 -8.463 -14.9573 -25.3324 -19.6441 -14.2855 -7.489 -10.594 -8.35 -7.8605 -7.01 -5.988501 -13.4528 -16.3441 -14.1316 -7.504 -7.197001 -7.101001 -7.538001 -7.7355 -7.4455 -8.123 -8.64 -9.231001 -6.6155 -10.6215 -14.1985 -14.2285 -9.042 -6.768001 -5.4395 
-8.3725 -10.93 -12.5998 -6.3075 -9.799001 -18.9144 -25.3324 -25.3324 -23.8091 -17.6095 -11.986 -13.774 -10.6475 -8.5795 -8.8835 -13.5427 -19.0944 -18.7931 -14.3476 -9.818501 -9.488501 -7.895501 -11.5659 -9.0705 -10.1185 -11.8931 -11.7411 -9.771001 -12.4542 -16.6675 -17.4695 -15.451 -10.4595 -6.768001 
-11.6451 -12.6155 -12.5998 -10.085 -20.3424 -29.2895 -25.3324 -29.4974 -27.1331 -22.1065 -13.774 -16.0715 -11.3665 -10.13 -16.4465 -19.1843 -21.5434 -19.0091 -16.6621 -12.207 -10.136 -12.047 -12.9009 -11.8779 -14.0668 -14.9942 -12.2811 -15.5325 -18.5002 -19.9385 -18.692 -16.8685 -10.4595 
-1.934 -3.849 -4.088 -1.934 -6.557 0 -4.3235 -1.934 -8.120501 -5.804 -4.221 -5.161 -6.175 -2.186 -1.8085 -3.535 -8.269501 -1.7565 -5.1845 -3.1385 -4.657 
-5.1105 -6.419001 -5.429501 -7.536 -6.557 -4.3235 -5.264 -9.245501 -11.4225 -8.1455 -9.351 -12.6742 -8.1615 -3.164 -5.6195 -12.9319 -9.098001 -6.580501 -7.4095 -6.756001 
-6.6955 -7.190001 -9.9455 -7.536 -10.6885 -5.264 -13.2677 -13.3067 -15.1781 -10.177 -17.4724 -14.6607 -9.5 -6.7825 -15.6522 -13.7604 -14.0348 -8.684001 -10.6215 
-7.5725 -12.0318 -9.9455 -11.9153 -11.629 -13.2677 -17.3289 -16.6307 -19.2581 -20.7992 -19.4589 -15.9992 -13.1543 -17.2176 -16.4807 -18.6972 -16.1383 -11.9502 
-12.5155 -12.0318 -14.3248 -12.8558 -19.6327 -17.3289 -20.6529 -20.7107 -28.4883 -22.7857 -20.7974 -19.6535 -23.5894 -18.0461 -21.4175 -20.8007 -19.4045 
-1.4985 -4.992 -4.6625 -5.367 -2.9705 -3.152 -3.9595 -2.9905 -2.5195 -3.948 -4.088 -4.3235 -2.5195 -12.16972 -1.934 -4.221 -8.2985 -1.4985 -5.433 -2.0935 -5.1845 -3.1385 -3.251 -4.657 -1.934 -3.8825 -6.557 0 
-6.322001 -8.2745 -9.232 -7.8225 -5.007 -5.4355 -5.733 -5.134 -5.454 -6.41 -7.886001 -6.509 -15.36282 -14.10372 -6.6775 -11.2285 -8.808001 -6.593 -6.9725 -7.298 -7.4095 -5.812 -6.204 -5.156 -6.4035 -10.821 -6.557 
-9.93 -13.8598 -12.0763 -8.5675 -7.340501 -6.9905 -7.5855 -8.533501 -7.525001 -9.636001 -10.1725 -19.72532 -17.29682 -18.84722 -12.206 -11.5045 -13.213 -8.0035 -12.6878 -9.289001 -9.742001 -8.3655 -6.6685 -9.014 -13.9312 -10.821 
-15.5787 -16.7041 -12.8213 -11.4318 -8.929001 -8.790001 -10.3405 -9.978001 -10.8738 -12.0791 -23.38882 -21.65932 -22.04032 -24.10322 -13.0415 -16.0051 -14.6286 -14.0204 -14.6788 -11.7409 -12.3189 -8.874001 -10.7575 -17.1439 -13.9312 
-18.423 -17.4491 -15.6856 -13.0203 -10.6745 -10.733 -11.785 -13.4162 -13.3169 -25.29542 -25.32282 -26.40282 -27.59672 -25.74362 -18.5381 -17.8472 -20.8487 -16.0114 -17.1307 -14.3178 -12.8274 -13.1726 -18.8874 -17.1439 
-1.4985 -3.8975 -1.7565 -5.367 -2.9705 -3.152 -4.5165 -3.5455 -1.4985 -3.326 0 -4.3235 -1.934 -10.7895 -8.120501 -5.0075 -1.7695 -5.804 -4.221 -3.837 -2.3335 -3.0365 -3.152 -5.1845 -5.2145 -1.934 -3.45 -3.4795 0 
-5.256001 -6.087501 -7.126 -7.8225 -5.007 -5.704 -6.2715 -3.91 -4.841001 -3.326 -4.3235 -5.264 -13.7299 -19.4024 -13.5892 -5.113 -6.7235 -8.1455 -8.622 -4.933 -4.2925 -4.453 -9.072001 -9.452001 -6.732501 -5.009 -5.6655 -3.4795 
-6.971 -12.143 -9.523001 -8.5675 -7.7165 -7.263 -6.619 -7.1255 -4.841001 -7.3345 -5.264 -17.7521 -22.3428 -24.8711 -13.6947 -9.5625 -10.378 -12.5438 -9.872 -6.468 -5.589 -10.044 -13.3559 -11.0848 -9.612501 -5.997 -5.6655 
-13.4601 -14.54 -10.6105 -11.8078 -9.071001 -7.6325 -9.033 -7.1255 -8.912001 -7.8565 -17.7521 -26.365 -27.8115 -24.9766 -18.7077 -13.5102 -16.885 -15.1858 -11.45 -7.812 -10.7595 -14.3279 -14.9887 -13.9648 -10.3305 -5.997 
-15.8571 -15.6275 -13.8508 -13.1623 -9.3135 -10.218 -9.033 -11.9333 -9.755501 -20.5266 -26.365 -31.8337 -27.917 -29.9896 -22.0919 -19.957 -18.135 -16.7638 -12.794 -13.0749 -15.0434 -15.9607 -17.8687 -14.6828 -10.3305 
