-4.759 
n/a 
n/a 
n/a 
n/a 
-4.759 
n/a 
n/a 
n/a 
n/a 
-4.759 
n/a 
n/a 
n/a 
n/a 
-4.759 
n/a 
n/a 
n/a 
n/a 
-4.905 -4.1805 -2.186 -3.383 -4.0205 -3.9225 -3.4975 -4.167 0 
-7.2005 -6.2695 -4.438 -5.582 -7.55 -6.742001 -6.4855 -4.167 
-9.091001 -8.3595 -6.6545 -8.698501 -9.953501 -8.695001 -6.4855 
-11.31 -10.9436 -9.137 -11.2116 -12.1407 -8.695001 
-13.8941 -13.4261 -11.6455 -13.3988 -12.1407 
-3.676 -2.229 -4.167 -3.458 -4.3395 -1.7695 -4.1805 -3.383 -3.515 -1.7695 -4.2815 0 
-4.593 -5.8345 -7.796 -8.1415 -5.8335 -5.702 -8.4065 -7.606501 -5.3715 -7.9045 -4.2815 
-6.54 -9.1875 -12.8153 -10.2755 -9.1955 -9.210501 -12.9256 -9.48 -12.2917 -7.9045 
-11.0078 -14.3462 -14.9493 -14.2991 -12.832 -13.9892 -14.7991 -16.4436 -12.2917 
-16.1665 -16.4802 -18.9729 -17.9356 -17.6107 -15.8627 -21.7627 -16.4436 
-4.905 -4.1805 -3.458 -3.676 -2.186 -3.515 
-7.2005 -7.064 -7.226 -5.5015 -7.5205 
-9.7655 -11.3194 -10.1555 -11.4884 
-14.0531 -14.2489 -16.4168 
-16.9826 -20.5102 
-3.383 -4.23 -4.596 -3.3755 -4.1805 -3.458 -1.4985 -3.4975 0 
-5.819 -8.8585 -7.7805 -8.189501 -7.064 -4.063 -4.3125 -3.4975 
-10.434 -12.553 -10.477 -10.396 -7.631 -7.174 -4.3125 
-14.1285 -15.2495 -12.6835 -10.963 -11.1652 -7.174 
-16.825 -17.456 -13.2505 -14.4972 -11.1652 
