-4.759 
n/a 
n/a 
n/a 
n/a 
-4.759 
n/a 
n/a 
n/a 
n/a 
-4.759 
n/a 
n/a 
n/a 
n/a 
-4.759 
n/a 
n/a 
n/a 
n/a 
-4.0885 -3.522 0 -3.691 -3.8565 
-6.997 -3.522 -3.691 -7.420501 
-6.997 -8.0295 -7.420501 
-12.2075 -10.3415 
-14.5195 
-4.0105 -4.867 0 -3.8565 -4.1445 -1.7565 -3.691 
-9.665001 -4.867 -3.8565 -7.021 -5.09 -4.930501 
-9.665001 -8.692 -7.021 -7.584001 -9.597001 
-13.6696 -12.4741 -7.584001 -12.607 
-17.4517 -13.0371 -12.607 
-3.0835 -4.867 0 -3.691 -4.351 
-7.389 -4.867 -3.691 -8.5035 
-7.389 -8.844 -8.5035 
-11.7976 -14.4749 
-17.4285 
-3.691 -4.351 
-8.5035 
n/a 
n/a 
n/a 
