-4.759 
n/a 
n/a 
n/a 
n/a 
-4.759 
n/a 
n/a 
n/a 
n/a 
-4.759 
n/a 
n/a 
n/a 
n/a 
-4.759 
n/a 
n/a 
n/a 
n/a 
-4.1865 -4.235 -3.3195 -1.756 -4.1465 
-6.809 -7.734 -4.768 -5.5085 
-10.8348 -9.211 -6.2435 
-12.3118 -10.1515 
-13.2523 
-3.8735 -2.229 -4.235 -3.3195 -1.756 -4.1465 
-5.3655 -6.33 -7.734 -4.768 -5.5085 
-9.425501 -9.724501 -9.211 -6.2435 
-13.1572 -10.612 -10.1515 
-14.0447 -11.5525 
-4.7285 -3.3195 -1.756 -4.1465 -1.7565 -3.8735 
-5.882 -4.768 -5.5085 -6.0475 -5.112 
-7.0325 -6.2435 -7.549001 -8.569 
-7.669001 -7.899 -9.023001 
-9.686501 -9.0325 
-4.7285 -3.3195 -1.756 -4.1465 -1.7565 -3.8735 
-5.882 -4.768 -5.5085 -6.0475 -5.112 
-7.0325 -6.2435 -7.549001 -8.569 
-7.669001 -7.899 -9.023001 
-9.686501 -9.0325 
