-4.759 
n/a 
n/a 
n/a 
n/a 
-4.759 
n/a 
n/a 
n/a 
n/a 
-4.759 
n/a 
n/a 
n/a 
n/a 
-4.759 
n/a 
n/a 
n/a 
n/a 
-8.785501 -3.9795 0 -4.1855 
-10.688 -3.9795 -4.1855 
-10.688 -7.824501 
-14.533 
n/a 
-8.2005 -3.9795 0 -4.1855 0 
-9.3795 -3.9795 -4.1855 -4.1855 
-9.3795 -7.824501 -4.1855 
-13.4011 -7.824501 
-13.4011 
-6.296 -5.8555 -3.9795 0 -4.1855 0 
-7.743501 -8.2305 -3.9795 -4.1855 -4.1855 
-8.304001 -8.2305 -7.824501 -4.1855 
-8.304001 -12.7807 -7.824501 
-13.0812 -12.7807 
-8.785501 -3.9795 0 -4.1855 0 
-10.688 -3.9795 -4.1855 -4.1855 
-10.688 -7.824501 -4.1855 
-14.533 -7.824501 
-14.533 
