-4.759 
n/a 
n/a 
n/a 
n/a 
-4.759 
n/a 
n/a 
n/a 
n/a 
-4.759 
n/a 
n/a 
n/a 
n/a 
-4.759 
n/a 
n/a 
n/a 
n/a 
-5.5785 -3.7555 -4.936 -2.356 -7.219 -5.608 -6.9805 -1.756 -6.945 -6.639 0 
-8.904 -9.883 -6.177001 -10.082 -8.1315 -8.5725 -8.265 -8.793 -7.0575 -6.639 
-15.3533 -11.124 -14.4212 -10.9945 -10.451 -9.883 -15.8538 -8.869 -7.0575 
-16.5943 -19.3682 -15.3337 -13.314 -11.7615 -17.5458 -15.9298 -8.869 
-24.8385 -20.2807 -17.6532 -14.6245 -19.4243 -17.6218 -15.9298 
-5.5785 -3.7555 -4.936 -2.356 -7.219 -5.608 -9.825001 -1.756 -12.16972 -6.639 0 
-8.904 -9.883 -6.177001 -10.082 -8.1315 -16.2198 -11.0145 -14.93432 -18.80872 -6.639 
-15.3533 -11.124 -14.4212 -10.9945 -19.1743 -17.4093 -24.19282 -21.57332 -18.80872 
-16.5943 -19.3682 -15.3337 -22.0373 -20.3638 -30.58762 -30.83182 -21.57332 
-24.8385 -20.2807 -26.3765 -23.2268 -33.54212 -37.22662 -30.83182 
-5.5785 -3.251 -4.936 -2.356 -7.138 -8.868501 0 -7.5395 -6.639 
-7.855 -9.153001 -6.177001 -11.117 -17.2559 -8.868501 -7.5395 -9.264 
-13.8602 -9.843 -15.4562 -21.2349 -17.2559 -16.638 -9.264 
-14.5502 -19.1204 -25.5741 -21.2349 -25.0254 -18.3625 
-23.8276 -29.2383 -25.5741 -29.0044 -26.7499 
-5.5785 -4.413 -4.936 -2.356 -7.5395 -6.639 -1.756 -8.414001 -9.825001 
-10.543 -10.8415 -6.177001 -10.6605 -9.264 -8.1365 -10.2385 -18.7352 
-16.9715 -12.0825 -14.9997 -12.385 -10.7505 -16.886 -20.5597 
-18.2125 -20.9052 -16.7242 -13.8715 -19.5 -27.2072 
-27.0352 -22.6297 -18.2107 -22.621 -29.8212 
