-4.759 
n/a 
n/a 
n/a 
n/a 
-4.759 
n/a 
n/a 
n/a 
n/a 
-4.759 
n/a 
n/a 
n/a 
n/a 
-4.759 
n/a 
n/a 
n/a 
n/a 
-2.4265 -3.7555 -3.905 -1.934 -4.498 -4.2125 0 
-5.6305 -7.7245 -5.775001 -6.6685 -9.1395 -4.2125 
-10.134 -8.8215 -8.602501 -10.2645 -9.1395 
-11.231 -12.1166 -12.5785 -10.2645 
-14.5261 -16.0926 -12.5785 
-3.135 -3.5215 -3.973 -3.905 -4.912 -1.934 -4.498 -3.098 
-6.2085 -8.017 -6.974501 -5.539001 -6.185 -6.6685 -8.484501 
-10.66 -11.6737 -8.3695 -6.5585 -8.759001 -9.906001 
-14.3167 -13.0687 -9.107 -8.8295 -12.2391 
-15.7117 -13.8062 -11.4376 -12.3432 
-1.934 -4.498 -2.7295 -3.9955 -3.135 -3.905 -5.3305 
-6.6685 -7.665 -5.4605 -7.0905 -7.152 -6.263 
-8.9875 -9.801001 -8.536 -9.451 -9.258501 
-11.2725 -12.6007 -11.1415 -9.802 
-14.0722 -15.2062 -11.4925 
-1.934 -4.498 -4.3075 0 -3.8735 -2.8645 -3.9955 -3.7375 -6.4155 -3.135 -3.5215 
-6.6685 -9.776001 -4.3075 -3.8735 -6.143 -5.568 -8.3275 -9.126501 -9.809 -6.2085 
-10.757 -9.776001 -8.813001 -6.143 -8.6575 -9.341001 -14.4223 -12.7282 -12.8561 
-10.757 -14.2815 -9.896501 -8.6575 -12.6771 -15.7864 -18.024 -15.7753 
-15.2625 -15.365 -12.411 -12.6771 -19.1225 -19.3881 -21.0711 
