-4.759 
n/a 
n/a 
n/a 
n/a 
-4.759 
n/a 
n/a 
n/a 
n/a 
-4.759 
n/a 
n/a 
n/a 
n/a 
-4.759 
n/a 
n/a 
n/a 
n/a 
-3.304 -3.1385 -3.7555 -4.874 -5.1875 
-6.2575 -6.461 -7.194 -8.351 
-9.397 -9.232 -10.038 
-12.4 -12.1354 
-15.3034 
-3.304 -3.1385 -4.986 -6.305501 -4.6345 0 
-6.2575 -7.3715 -8.497 -8.52 -4.6345 
-9.814 -11.0673 -9.4175 -8.52 
-14.113 -11.9878 -9.4175 
-15.0335 -11.9878 
-3.304 -3.1385 -3.152 -6.975 -4.874 
-6.2575 -5.219 -8.5895 -8.4615 
-7.7985 -10.7175 -9.826 
-13.885 -11.954 
-15.1215 
-3.304 -3.152 -4.9715 -4.874 
-5.5905 -6.926001 -9.859001 
-11.0261 -12.3279 
-16.428 
n/a 
