-4.759 
n/a 
n/a 
n/a 
n/a 
-4.759 
n/a 
n/a 
n/a 
n/a 
-4.759 
n/a 
n/a 
n/a 
n/a 
-4.759 
n/a 
n/a 
n/a 
n/a 
-3.535 -4.867 0 -3.9675 -1.934 -3.691 0 
-8.498 -4.867 -3.9675 -5.608 -4.8225 -3.691 
-8.498 -8.898001 -5.608 -7.8905 -4.8225 
-12.698 -10.7575 -7.8905 -7.8905 
-14.5575 -13.04 -7.8905 
-3.0835 -4.584 0 -3.691 -3.9675 
-7.693501 -4.584 -3.691 -7.9175 
-7.693501 -9.402 -7.9175 
-12.8751 -13.8893 
-17.3624 
-3.0835 -4.867 0 -3.9675 -1.7565 -3.691 
-7.389 -4.867 -3.9675 -5.258 -4.930501 
-7.389 -8.898001 -5.258 -8.348001 
-11.8516 -10.4115 -8.348001 
-13.3651 -13.5015 
-4.0105 -4.867 0 -5.2845 -3.9675 
-9.665001 -4.867 -5.2845 -9.7955 
-9.665001 -10.784 -9.7955 
-15.7616 -15.295 
-20.2726 
