-4.759 
n/a 
n/a 
n/a 
n/a 
-4.759 
n/a 
n/a 
n/a 
n/a 
-4.759 
n/a 
n/a 
n/a 
n/a 
-4.759 
n/a 
n/a 
n/a 
n/a 
-4.013 -2.925 -3.7555 -3.845 -1.7565 -4.0415 -1.756 -3.2895 0 -2.925 -2.4945 -3.5725 -1.934 -5.2705 -3.391 0 
-5.552 -5.431 -7.932 -4.13 -5.738 -5.1165 -5.792 -3.2895 -2.925 -3.7675 -4.6825 -5.073 -7.56 -7.9305 -3.391 
-8.571 -9.7685 -8.111 -8.327001 -6.5585 -8.678 -5.792 -6.602 -3.7675 -5.7825 -5.906 -11.5182 -10.254 -7.9305 
-13.1085 -9.964001 -12.5218 -9.379001 -10.459 -8.678 -8.112 -7.332001 -5.7825 -6.98 -12.6366 -14.2122 -10.254 
-13.304 -14.3748 -13.5738 -13.2515 -10.459 -11.7434 -8.2895 -9.713501 -6.98 -13.826 -15.3306 -14.2122 
-3.929 -2.925 -2.674 -3.3715 -3.4865 -4.38 -1.756 -3.2895 0 -2.925 -2.4945 -3.5725 -1.934 -1.8085 -5.2705 -4.1445 0 
-5.321 -4.1785 -5.4105 -6.668 -7.507 -5.5095 -5.792 -3.2895 -2.925 -3.7675 -4.6825 -5.073 -3.2685 -6.653 -9.103001 -4.1445 
-6.5235 -6.863501 -8.2125 -10.2135 -8.647 -9.351001 -5.792 -6.602 -3.7675 -5.7825 -5.906 -6.545001 -7.645 -9.983 -9.103001 
-8.873 -9.637001 -12.056 -11.7265 -12.5649 -9.351001 -8.112 -7.332001 -5.7825 -6.98 -7.311501 -10.054 -10.1765 -9.983 
-11.7883 -13.5039 -13.569 -15.6444 -12.5649 -12.116 -8.2895 -9.713501 -6.98 -8.398001 -11.0067 -13.0751 -10.1765 
-3.4765 -3.929 -3.1015 -2.925 -2.674 -3.845 -1.7565 -3.2895 -1.756 -6.743001 -2.925 -3.152 -3.5725 -1.934 -3.251 -4.688 -4.2605 0 
-4.589 -6.804 -5.38 -4.1785 -7.2815 -4.13 -5.3275 -4.799 -7.795001 -9.3575 -4.203 -5.476501 -5.073 -5.727 -7.805 -9.208 -4.2605 
-8.127501 -8.4905 -6.376 -8.6675 -7.4975 -8.474001 -6.277 -10.0965 -10.354 -10.7345 -6.349501 -6.5365 -9.3245 -10.185 -12.716 -9.208 
-9.4195 -9.5795 -11.0636 -8.891001 -12.0157 -9.476501 -12.0139 -12.6555 -11.731 -12.881 -7.3785 -10.9546 -13.7835 -15.096 -12.716 
-10.1395 -14.3065 -11.2871 -13.4254 -13.0182 -15.1896 -14.5729 -14.0325 -13.8775 -13.91 -11.921 -15.4136 -18.6945 -15.096 
-2.925 -2.229 -3.1015 -3.3715 -3.4865 -3.762 0 -1.756 -3.2895 -3.074 -2.674 -3.4765 -2.925 -2.4945 -3.5725 -3.1015 -3.383 -3.539 -4.763 0 
-7.318501 -5.523 -6.4535 -6.668 -4.5665 -3.762 -1.756 -5.792 -7.229 -4.7925 -5.7815 -6.59 -3.7675 -4.6825 -7.305 -6.4515 -7.052 -8.975 -4.763 
-11.0369 -9.198 -10.2755 -8.179501 -4.5665 -5.244 -5.792 -9.3785 -9.125501 -8.9475 -10.054 -7.467501 -5.7825 -8.8955 -10.111 -10.6735 -13.6544 -8.975 
-14.7119 -13.0866 -11.787 -8.179501 -5.525001 -9.580501 -9.3785 -11.3332 -13.3905 -13.7202 -10.9957 -9.454 -9.913001 -11.7997 -14.333 -17.2759 -13.6544 
-18.6005 -14.5981 -11.787 -8.717501 -11.3107 -13.8776 -11.3332 -15.5982 -18.1632 -14.6619 -12.9822 -13.6685 -12.8172 -16.0217 -20.9354 -17.2759 
