-4.759 
n/a 
n/a 
n/a 
n/a 
-4.759 
n/a 
n/a 
n/a 
n/a 
-4.759 
n/a 
n/a 
n/a 
n/a 
-4.759 
n/a 
n/a 
n/a 
n/a 
-4.2085 -4.649 -3.473 -3.264 0 -4.9685 -5.175 
-7.180501 -8.731001 -6.497 -3.264 -4.9685 -9.293 
-12.5187 -9.323501 -6.497 -9.364 -9.293 
-13.1112 -9.323501 -12.916 -13.7061 
-13.1112 -16.1665 -17.2581 
-3.691 -4.649 -3.3775 0 -4.9685 -5.175 
-7.527 -5.148 -3.3775 -4.9685 -9.293 
-7.742001 -5.148 -9.066 -9.293 
-7.742001 -10.6465 -13.5823 
-13.6979 -15.1628 
-4.2085 -3.275 -3.264 0 -4.9685 -5.175 
-7.661 -6.0175 -3.264 -4.9685 -9.293 
-11.2997 -6.0175 -9.364 -9.293 
-11.2997 -12.7909 -13.7061 
-18.0731 -17.133 
-4.2085 -4.649 -3.3775 -3.264 0 -4.9685 -5.175 
-7.180501 -5.148 -6.0515 -3.264 -4.9685 -9.293 
-7.6685 -7.724 -6.0515 -9.364 -9.293 
-11.0651 -7.724 -12.5801 -13.7061 
-11.0651 -15.9574 -16.9222 
