-4.759 
n/a 
n/a 
n/a 
n/a 
-4.759 
n/a 
n/a 
n/a 
n/a 
-4.759 
n/a 
n/a 
n/a 
n/a 
-4.759 
n/a 
n/a 
n/a 
n/a 
-8.987 -3.6185 -1.7565 -3.539 -4.9175 -1.7565 -4.4545 -1.934 -4.628 -4.743 -4.144 
-14.7895 -5.093 -6.3745 -8.7515 -6.142 -5.418 -6.191 -5.9605 -4.7515 -10.0415 
-16.9782 -9.8275 -12.2092 -9.863501 -7.61 -6.924 -10.485 -5.9845 -10.0885 
-21.7127 -15.788 -13.3212 -11.4827 -9.315001 -11.6852 -10.5 -11.5679 
-27.6732 -16.9 -14.9404 -13.1877 -14.2282 -11.7002 -16.0834 
-6.6585 -4.221 -4.4545 -3.6185 
-11.6381 -10.151 -9.436501 
-17.5681 -15.133 
-22.5501 
n/a 
-4.4545 -3.6185 -1.934 -6.6585 
-9.436501 -5.537 -7.809 
-11.4962 -11.8846 
-17.8438 
n/a 
-4.628 -4.743 -2.229 -3.784 -4.4545 -4.017 -3.6185 -4.144 
-4.7515 -6.5015 -6.0055 -8.157001 -7.064 -8.437 -7.901 
-6.5135 -10.3745 -10.533 -8.957001 -12.0078 -13.0685 
-10.3745 -14.902 -11.333 -14.2004 -16.6393 
-14.902 -15.702 -16.5764 -18.8319 
