-4.759 
n/a 
n/a 
n/a 
n/a 
-4.759 
n/a 
n/a 
n/a 
n/a 
-4.759 
n/a 
n/a 
n/a 
n/a 
-4.759 
n/a 
n/a 
n/a 
n/a 
-2.872 -3.982 -7.6515 -2.3335 -4.4285 -1.7565 -1.4985 -9.110001 -4.795 -2.742 -2.489 -3.563 -1.7695 -4.29 -9.6145 -2.5045 -1.4985 -3.486 -2.95 -2.4265 -4.4015 -1.7695 -4.544 -3.9465 
-7.672501 -12.4157 -8.8225 -7.104 -4.6405 -2.4195 -9.814 -12.317 -6.8485 -3.301 -6.795 -4.445 -6.39 -14.9777 -12.2592 -3.1915 -3.5655 -4.563 -4.895 -6.765 -4.6435 -5.208 -9.6915 
-16.7676 -13.5867 -13.815 -7.429501 -5.2 -9.8455 -14.8597 -14.6477 -7.3595 -7.231501 -7.179501 -10.071 -17.5507 -17.6224 -12.9462 -4.538 -4.577 -6.0045 -8.953 -7.004 -8.35 -10.223 
-17.9386 -18.5792 -14.1405 -7.897 -12.8646 -15.6437 -17.2012 -15.1587 -11.804 -7.501 -13.2043 -21.2317 -20.1954 -18.3094 -14.2927 -4.615 -6.0085 -9.6085 -9.149 -10.8019 -13.7386 
-22.9311 -18.9047 -14.608 -15.7132 -19.1172 -17.8246 -17.7122 -19.6032 -12.0735 -13.959 -24.365 -23.8764 -20.8824 -19.6559 -14.3697 -6.023 -9.6085 -9.7585 -13.0023 -16.1905 
-2.872 -2.0935 -3.982 -3.998 -3.17 -1.7565 -1.4985 -4.257 -2.186 -4.024 -1.7695 -1.4985 -4.1355 -1.7565 -4.2815 -2.5045 -1.4985 -3.486 -2.95 -3.982 -4.331 -1.7695 -5.4235 -1.4985 -3.9465 0 
-4.8935 -6.354001 -8.684501 -7.198501 -4.179 -2.4195 -5.0245 -6.2325 -5.3315 -4.5525 -2.7955 -5.2415 -6.009501 -5.607 -6.904 -3.1915 -3.5655 -4.563 -7.825 -8.1435 -4.593 -6.02 -6.321 -6.780001 -3.9465 
-9.373501 -11.5711 -12.2504 -7.7685 -4.497 -5.709001 -6.663001 -9.22 -5.729 -5.08 -6.601 -6.321001 -8.7325 -8.078501 -7.377501 -4.538 -4.577 -8.769 -10.419 -8.4255 -8.155001 -6.634 -12.3395 -6.780001 
-14.7512 -15.137 -12.8204 -8.0555 -8.3765 -7.780001 -9.779 -9.63 -6.09 -8.822001 -7.4975 -8.967501 -10.66 -8.4025 -8.508501 -4.615 -8.772 -11.6582 -10.4555 -12.1235 -8.317 -12.7981 -12.3395 
-18.3171 -15.707 -13.1074 -10.634 -9.814 -11.1924 -10.221 -10.6365 -10.238 -10.025 -9.8295 -11.0522 -10.984 -9.612 -8.521501 -8.8035 -11.6616 -11.6947 -14.7853 -12.2855 -15.2277 -12.7981 
-2.872 -3.982 -4.532 -1.7695 -4.299 -3.9465 -3.034 -3.17 -1.7565 -1.4985 -9.110001 -4.795 -5.2015 -2.356 -4.2815 -1.934 -4.1355 
-7.672501 -8.887 -5.484 -5.4975 -8.553 -7.200001 -6.1635 -4.179 -2.4195 -9.814 -12.317 -10.5535 -6.697001 -6.132501 -6.152 -6.8085 
-13.2389 -9.320001 -7.9775 -8.8795 -10.66 -10.233 -6.7115 -4.497 -9.8455 -14.8597 -18.3527 -12.049 -10.155 -7.539001 -11.8149 
-13.6719 -11.8861 -11.6347 -11.1271 -13.693 -11.0902 -6.9865 -12.132 -15.6437 -20.9062 -19.8482 -15.507 -11.5615 -13.5737 
-16.238 -15.5433 -13.8823 -14.1601 -14.5502 -11.3652 -14.7395 -18.3846 -21.5296 -22.4017 -23.3062 -16.9135 -17.5962 
-2.872 -4.176 -3.17 -4.489 -5.053 -4.967 -3.563 -1.7695 -4.2815 -6.64 -1.4985 -3.486 -2.95 -1.7695 -4.4725 -1.4985 -3.9685 
-7.752501 -8.384501 -10.139 -8.596001 -9.853001 -9.1285 -4.445 -5.951001 -10.9 -7.650001 -3.5655 -4.563 -4.11 -7.77 -5.712 -4.987 
-12.2226 -15.6945 -14.246 -13.7526 -14.2491 -10.368 -9.423501 -12.488 -11.0965 -8.893001 -4.577 -6.434 -10.3965 -8.955501 -9.077001 
-19.5326 -19.8015 -19.4026 -18.1487 -15.4886 -15.7427 -16.4073 -13.4495 -12.377 -8.904 -6.4415 -12.9661 -11.582 -12.3767 
-23.6396 -24.9581 -23.7987 -19.3882 -20.8633 -22.7265 -16.9908 -14.73 -12.41 -10.723 -12.9814 -14.1516 -15.0032 
