-4.759 
n/a 
n/a 
n/a 
n/a 
-4.759 
n/a 
n/a 
n/a 
n/a 
-4.759 
n/a 
n/a 
n/a 
n/a 
-4.759 
n/a 
n/a 
n/a 
n/a 
-4.628 -4.743 -4.177 -3.502 -7.7735 -4.177 0 
-4.7515 -9.458 -8.960501 -12.7741 -12.4409 -4.177 
-9.4835 -14.5255 -18.4278 -17.4415 -12.4409 
-14.5764 -23.9928 -23.0952 -17.4415 
-24.0437 -28.6602 -23.0952 
-4.628 -4.743 -4.177 -3.502 -3.994 -3.486 0 
-4.7515 -9.458 -8.960501 -5.394 -9.039001 -3.486 
-9.4835 -14.5255 -10.7335 -9.969501 -9.039001 
-14.5764 -16.2985 -15.309 -9.969501 
-16.3494 -20.874 -15.309 
-6.899 -4.282 -2.4945 -3.962 -4.9295 -1.4985 -3.502 -4.317 -4.282 0 
-12.1914 -6.0725 -5.752 -9.1645 -6.355 -4.5955 -5.926 -8.965 -4.282 
-13.9819 -8.879001 -10.7495 -11.5218 -9.799001 -6.791 -10.238 -8.965 
-16.7884 -14.2219 -13.1068 -14.9658 -12.0449 -11.6832 -10.238 
-22.1313 -16.5792 -16.5508 -17.2117 -16.9371 -11.6832 
-4.628 -5.939 -3.3975 -5.398 -2.4945 -1.4985 -3.486 -2.5045 -3.502 -4.317 -3.3975 -5.398 0 
-5.9615 -8.9315 -8.348001 -7.0005 -3.9315 -3.5655 -4.737 -6.596001 -5.926 -7.520501 -8.348001 -5.398 
-8.9385 -14.1288 -9.953501 -8.478001 -5.334 -4.8655 -9.057 -8.6055 -8.88 -13.0346 -8.348001 
-14.1394 -15.7343 -11.431 -9.715 -5.9225 -9.18 -11.0987 -11.7533 -14.7109 -13.0346 
-15.7449 -17.2118 -12.668 -10.69 -10.7175 -11.3531 -14.2465 -17.5842 -14.7109 
