-4.759 
n/a 
n/a 
n/a 
n/a 
-4.759 
n/a 
n/a 
n/a 
n/a 
-4.759 
n/a 
n/a 
n/a 
n/a 
-4.759 
n/a 
n/a 
n/a 
n/a 
-2.9805 -4.3155 -3.251 -7.4885 -1.7695 -3.299 0 -1.756 -4.4725 -3.301 -4.177 -2.356 -7.462 -4.0965 0 -12.16972 -1.756 -2.8965 -4.051 -5.709 
-6.016 -5.8865 -11.9437 -9.9235 -4.948 -3.299 -1.756 -5.7595 -7.984 -6.469501 -4.944 -10.089 -9.3655 -4.0965 -12.16972 -13.92572 -3.751 -6.3285 -9.1945 
-7.606501 -15.1706 -14.3787 -13.102 -4.948 -5.246 -5.7595 -9.1625 -10.304 -6.7135 -13.1976 -11.9925 -9.3655 -17.21902 -13.92572 -15.92072 -6.844 -11.838 
-16.9864 -17.6056 -17.5572 -13.102 -7.186 -9.141001 -9.1625 -11.5147 -10.371 -15.3395 -15.1011 -11.9925 -22.60082 -18.97502 -15.92072 -19.01372 -12.7181 
-19.4214 -20.7841 -17.5572 -15.34 -11.3984 -12.6254 -11.5147 -11.5817 -18.997 -17.243 -15.1011 -25.22782 -24.35682 -20.97002 -19.01372 -24.88782 
-5.6695 -12.16972 -3.135 -12.16972 0 -3.135 -2.8965 -3.959 -10.4705 -3.074 -4.0555 -1.934 -7.3525 -3.8685 
-18.56382 -15.30472 -16.53572 -12.16972 -3.135 -4.9085 -4.940001 -15.5761 -13.6951 -6.377 -5.263 -9.1575 -10.7335 
-21.69882 -28.70544 -16.53572 -15.30472 -4.9085 -7.0295 -16.9177 -18.8007 -16.9981 -7.544001 -13.4051 -12.9407 
-35.09954 -28.70544 -19.67072 -17.07822 -7.0295 -19.3322 -20.1423 -22.1037 -18.1651 -15.9435 -17.1883 
-35.09954 -31.84044 -21.44422 -19.19922 -19.3322 -22.5568 -23.4453 -23.2707 -26.5646 -19.7267 
-3.091 -4.094 -4.0445 -4.33 -7.2555 0 -12.16972 -1.756 -3.074 -3.135 -4.051 -3.59 0 -3.43 -6.864 -1.7695 -4.052 -2.985 -3.723 0 
-7.4195 -7.1035 -6.656501 -10.6475 -7.2555 -12.16972 -13.92572 -4.566 -5.767 -6.7215 -5.9905 -3.59 -3.43 -11.5872 -9.686001 -4.393 -5.4215 -6.495 -3.723 
-9.486501 -9.432 -13.176 -10.6475 -20.14382 -13.92572 -16.73572 -6.741 -9.2045 -8.156 -5.9905 -7.35 -11.5872 -14.4092 -12.4147 -5.677 -7.87 -6.495 
-12.004 -16.0813 -13.176 -23.53582 -21.89982 -16.73572 -18.91072 -9.901001 -10.7052 -8.156 -9.683001 -15.7892 -14.4092 -17.1379 -13.6987 -8.107 -7.87 
-18.6533 -16.0813 -26.06432 -25.29182 -24.70982 -18.91072 -22.07072 -11.5285 -10.7052 -12.0459 -18.1938 -18.6112 -17.1379 -18.4219 -16.1287 -8.107 
-2.925 -2.674 -4.936 -2.356 -3.3715 -3.959 -1.756 -3.0465 -3.299 -5.2 
-4.1785 -8.416 -6.177001 -5.039001 -5.699 -5.173 -4.477 -6.021 -8.807501 
-10.061 -9.065001 -8.864501 -7.731501 -6.907001 -8.584001 -7.7335 -12.1459 
-10.71 -11.8971 -11.7962 -8.8925 -10.0435 -11.9563 -14.101 
-13.5421 -14.8288 -12.9572 -12.142 -13.7298 -18.3238 
