-4.759 
n/a 
n/a 
n/a 
n/a 
-4.759 
n/a 
n/a 
n/a 
n/a 
-4.759 
n/a 
n/a 
n/a 
n/a 
-4.759 
n/a 
n/a 
n/a 
n/a 
-5.3885 -4.145 -2.186 -1.4985 -3.17 -4.1975 -4.145 -1.934 -3.8735 
-7.994 -5.9935 -3.339 -3.7115 -8.0695 -9.6665 -5.8865 -4.885 
-9.683001 -7.1385 -4.888 -9.39 -14.0593 -11.7342 -8.629 
-10.1575 -8.726 -10.9863 -15.4772 -16.127 -14.4767 
-12.203 -15.1107 -17.0735 -17.5449 -18.8695 
-5.3885 -4.145 -2.186 -1.4985 -3.17 -4.742 -3.2955 -4.145 -2.0935 -4.2745 -1.934 -3.8735 
-7.994 -5.9935 -3.339 -3.7115 -5.806 -5.4715 -8.63 -6.2955 -6.065001 -5.951 -4.885 
-9.683001 -7.1385 -4.888 -5.949 -6.1675 -10.7495 -10.281 -10.4265 -7.7585 -8.602 
-10.1575 -8.726 -6.627 -6.268001 -11.5105 -12.4005 -14.412 -12.12 -10.7481 
-12.203 -10.7514 -6.9335 -11.6478 -13.1615 -16.5315 -16.1055 -15.1096 
-5.3885 -4.145 -2.186 -3.8735 -2.229 -4.4715 -3.2955 -4.828 -4.145 0 
-7.994 -5.9935 -6.749001 -5.3655 -6.316 -6.646 -8.2495 -7.8935 -4.145 
-9.683001 -10.2135 -7.036 -10.0345 -8.428 -12.03 -12.081 -7.8935 
-14.048 -10.236 -12.4704 -12.2915 -14.122 -15.8615 -12.081 
-14.0705 -15.8578 -14.7274 -17.9855 -17.9535 -15.8615 
-5.3885 -4.145 -2.186 -1.4985 -4.4665 -4.145 -4.3905 -7.3475 0 
-7.994 -5.9935 -3.339 -4.729 -8.119 -8.193001 -12.8272 -7.3475 
-9.683001 -7.1385 -5.893 -8.619 -12.6884 -16.9947 -12.8272 
-10.1575 -9.3255 -9.2045 -13.6102 -21.4901 -16.9947 
-12.8025 -9.7475 -14.4755 -22.4119 -21.4901 
