-4.759 
n/a 
n/a 
n/a 
n/a 
-4.759 
n/a 
n/a 
n/a 
n/a 
-4.759 
n/a 
n/a 
n/a 
n/a 
-4.759 
n/a 
n/a 
n/a 
n/a 
-1.4985 -4.4515 -2.8645 -4.4465 -4.83 -1.4985 -4.1765 -1.7565 -3.3435 -2.264 -3.995 -2.3345 -4.287 -1.4985 -4.1455 -4.7425 -3.585 0 
-5.0235 -6.9515 -6.3085 -8.169001 -6.968501 -5.31 -5.467 -4.4105 -5.2695 -4.972 -6.273 -5.6055 -5.0195 -4.870501 -7.738 -8.328501 -3.585 
-7.320001 -10.6781 -10.6875 -9.490001 -10.1855 -5.641 -8.818501 -6.2295 -6.0875 -6.927501 -9.6785 -6.0415 -8.408501 -8.792001 -11.851 -8.328501 
-11.4192 -15.0571 -12.0085 -12.8882 -10.294 -9.0395 -9.903501 -6.7655 -7.8855 -10.6095 -10.1095 -9.031501 -12.5246 -13.0534 -11.851 
-15.7982 -16.3781 -15.4067 -12.9967 -13.6925 -10.0965 -10.232 -8.302501 -12.0945 -11.0405 -13.0995 -13.195 -16.786 -13.0534 
-2.3345 -4.287 -3.995 -2.229 -4.2485 -4.4515 -3.3435 -3.8255 -4.3905 0 
-5.6055 -7.539001 -5.324 -6.615 -9.237 -7.736501 -6.946 -8.383 -4.3905 
-10.298 -8.889501 -7.372 -12.0585 -13.2486 -12.418 -12.2067 -8.383 
-10.5845 -11.3825 -13.3151 -16.0701 -17.9301 -17.6787 -12.2067 
-13.0775 -17.3256 -17.3267 -20.7516 -23.1908 -17.6787 
-3.5065 -1.4985 -3.995 -3.6615 -3.1435 -4.2485 0 -1.4985 -4.4515 -2.8645 -5.2985 -4.4465 -1.4985 -4.293 -1.7565 -3.3435 -3.6835 -2.264 -1.4985 -3.995 
-4.358 -4.712 -7.127 -6.372001 -7.0265 -4.2485 -1.4985 -5.0235 -6.9515 -7.24 -6.683 -5.7995 -5.6055 -5.421 -4.4105 -5.2295 -6.305501 -2.9195 -4.712 
-7.734 -8.026001 -9.5465 -9.668501 -7.0265 -6.0865 -5.0235 -7.320001 -11.6096 -8.341001 -7.9505 -9.814501 -5.901 -8.229 -7.6445 -8.2335 -6.914501 -6.008 
-11.7702 -9.816001 -12.9906 -9.668501 -8.492001 -10.119 -7.320001 -12.3507 -12.7106 -8.717501 -12.0737 -10.1375 -8.528501 -10.0885 -8.691501 -9.007501 -10.4762 
-13.5602 -13.2959 -12.9906 -11.2428 -12.6599 -12.5259 -12.3507 -13.4517 -13.0871 -12.9025 -12.3967 -12.7608 -10.513 -11.1355 -10.5635 -12.74 
-3.995 -5.626 -3.6065 -3.5795 -4.4515 -3.995 -3.3435 -3.699 -3.898 -3.995 -2.186 -3.383 -4.4525 0 
-9.5425 -10.504 -7.982 -8.686001 -7.647 -7.265 -7.782001 -7.5715 -8.924 -5.7465 -4.438 -8.5185 -4.4525 
-14.4823 -14.8795 -13.9075 -12.1677 -9.344501 -12.1991 -12.0557 -13.1849 -10.9151 -8.104 -9.327001 -8.5185 
-18.8578 -20.805 -17.3892 -13.8652 -15.0654 -16.4728 -17.6691 -15.176 -13.2726 -13.3426 -9.327001 
-24.7833 -24.2867 -19.0867 -19.5861 -19.3391 -22.0862 -19.6602 -17.5335 -18.5112 -13.3426 
