-4.759 
n/a 
n/a 
n/a 
n/a 
-4.759 
n/a 
n/a 
n/a 
n/a 
-4.759 
n/a 
n/a 
n/a 
n/a 
-4.759 
n/a 
n/a 
n/a 
n/a 
-1.4985 -3.6815 -2.186 -3.7875 -4.6655 -3.115 -3.5155 -1.4985 -4.6525 -1.7565 -1.4985 -4.442 0 -1.756 -4.839 -3.4715 -4.359 
-4.9615 -5.611 -5.4905 -9.084001 -7.6955 -6.6675 -4.496 -5.666 -5.1545 -2.4195 -5.455501 -4.442 -1.756 -6.1475 -7.745501 -7.035501 
-6.293 -8.972501 -11.3992 -12.262 -11.4074 -7.838 -7.8295 -6.0135 -5.327 -6.329 -5.455501 -5.390501 -6.1475 -8.610001 -10.1505 
-9.9375 -15.1092 -14.5772 -15.9739 -12.5779 -11.3003 -8.4825 -6.182 -9.2685 -6.329 -6.43 -8.942501 -8.610001 -11.4178 
-16.027 -18.2872 -18.2891 -17.1444 -16.0402 -11.9533 -8.6315 -9.707001 -9.2685 -7.277 -10.2964 -11.8448 -11.4178 
-2.8965 -3.9035 -1.7565 -3.6815 -3.9285 -4.0325 -2.356 -3.787 -1.7565 -4.442 
-5.4185 -4.616 -6.2275 -7.9575 -8.627001 -6.2845 -6.7605 -4.189 -5.6725 
-5.5165 -9.2225 -10.7175 -12.8358 -11.2938 -10.451 -7.7385 -8.439 
-10.586 -13.8691 -15.5958 -15.5026 -15.4603 -10.7165 -12.2629 
-15.2326 -18.7474 -18.2626 -19.6691 -15.7258 -16.4921 
-7.682 -2.8645 -3.42 -2.9905 -2.356 -4.442 -1.756 -4.839 -5.5345 
-9.7995 -7.799 -6.2795 -4.899 -6.580501 -5.390501 -6.1475 -9.653 
-15.2299 -9.4655 -8.411 -9.3365 -7.2295 -8.942501 -10.733 
-16.9644 -11.8396 -13.1661 -9.9185 -11.0943 -13.9678 
-19.3385 -16.5947 -13.7481 -13.8629 -16.1196 
-4.029 -2.356 -4.442 0 -4.644 -4.359 -3.074 -3.8825 0 
-6.337501 -6.580501 -4.442 -4.644 -8.42 -7.92 -5.971 -3.8825 
-10.76 -6.580501 -9.452001 -8.42 -13.1336 -11.085 -5.971 
-10.76 -11.9881 -13.4084 -13.1336 -16.2986 -11.085 
-16.1676 -15.9445 -18.122 -16.2986 -16.2986 
