-4.759 
n/a 
n/a 
n/a 
n/a 
-4.759 
n/a 
n/a 
n/a 
n/a 
-4.759 
n/a 
n/a 
n/a 
n/a 
-4.759 
n/a 
n/a 
n/a 
n/a 
-2.882 -3.1475 -2.341 -4.257 -3.1385 -4.493 -1.756 -3.7825 -3.152 -4.874 -1.934 -1.8085 -4.889 -4.8115 -2.264 -1.8085 -4.0415 -4.297 -1.934 -9.4045 
-5.316501 -5.2795 -7.138 -7.8995 -6.5305 -5.8585 -5.3135 -6.6505 -6.21 -5.694 -3.2685 -5.919001 -6.759501 -6.8605 -3.5925 -5.514 -8.5915 -6.330501 -12.3449 
-7.993001 -10.2865 -11.2977 -11.5469 -7.638 -7.736 -7.593 -8.7325 -6.877 -6.6225 -7.381001 -7.55 -8.4995 -8.356 -7.013 -9.123501 -9.722 -17.214 
-13.585 -14.677 -14.9451 -12.6544 -10.1635 -8.746 -8.903 -9.309 -7.603 -8.5695 -8.0705 -8.9235 -9.596001 -11.9619 -9.948001 -9.9565 -20.7957 
-17.9755 -18.3244 -16.0526 -15.1799 -11.3589 -9.2225 -9.4235 -9.592 -9.2605 -8.908 -9.316501 -9.772501 -13.3261 -14.8969 -10.834 -21.0632 
-12.8915 -4.299 -2.264 -8.6595 -4.4185 0 -10.0295 -12.16972 -1.756 -2.543 -4.874 -1.934 -1.4985 -4.299 
-15.3389 -5.322001 -10.907 -13.385 -4.4185 -10.0295 -22.29862 -13.92572 -4.855 -7.837501 -5.694 -2.6125 -5.463 
-16.0094 -14.5294 -15.6325 -13.385 -15.5364 -22.29862 -24.05462 -17.02472 -9.1815 -8.115001 -6.5475 -6.615 
-25.8528 -19.2549 -15.6325 -24.5029 -27.80552 -24.05462 -27.15362 -21.35122 -9.554001 -10.503 -7.802 
-30.5783 -19.2549 -26.7504 -36.77202 -29.56152 -27.15362 -31.48012 -21.72372 -10.7045 -11.7575 
-2.882 -3.1475 0 -1.4985 -4.889 -4.8115 -4.299 -2.264 -4.628 -5.939 -4.0415 -4.297 -4.493 -2.341 -1.756 -2.543 -3.152 -4.874 0 
-5.316501 -3.1475 -1.4985 -5.8525 -6.759501 -8.177 -5.322001 -7.132 -5.9615 -7.822001 -8.5915 -8.9405 -7.035 -4.584 -4.855 -6.403501 -6.21 -4.874 
-5.316501 -5.485 -5.8525 -7.963 -8.828001 -8.8605 -8.394 -8.006001 -7.827001 -12.8694 -13.6476 -11.7317 -9.166 -6.1015 -7.297501 -9.595 -6.21 
-7.699 -9.792 -7.963 -10.3177 -8.88 -13.1015 -8.641001 -10.264 -12.8788 -17.9255 -16.4388 -13.8627 -11.1375 -8.2155 -10.071 -9.595 
-12.2034 -11.9567 -10.3177 -10.3697 -13.5708 -13.3485 -10.674 -15.3158 -17.9349 -20.7167 -18.5698 -15.8342 -13.2515 -11.0602 -10.071 
-2.882 0 -3.1475 0 -8.825001 -5.198 -4.0415 -4.297 -1.934 -5.7465 -2.341 -4.269 -4.424 -1.756 -2.543 -4.269 -4.874 
-2.882 -3.1475 -3.1475 -8.825001 -14.4712 -8.7705 -8.5915 -6.330501 -6.777 -7.913001 -6.041 -7.788 -5.9015 -4.855 -6.188001 -7.379 
-5.316501 -3.1475 -12.5031 -14.4712 -18.0437 -13.8785 -9.722 -9.967001 -9.4385 -12.0036 -9.8785 -8.719501 -9.023001 -8.576 -10.061 
-5.316501 -12.5031 -18.1493 -18.0437 -23.1517 -15.009 -13.5487 -12.7091 -13.6807 -15.8411 -10.8762 -12.0968 -13.0182 -12.7612 
-15.6799 -18.1493 -21.7218 -23.1517 -24.2822 -18.8357 -16.2908 -16.9513 -17.5182 -16.8388 -14.2535 -16.092 -17.2034 
