-4.759 
n/a 
n/a 
n/a 
n/a 
-4.759 
n/a 
n/a 
n/a 
n/a 
-4.759 
n/a 
n/a 
n/a 
n/a 
-4.759 
n/a 
n/a 
n/a 
n/a 
-4.617 0 -6.963 -10.536 0 -5.943501 0 
-4.617 -6.963 -18.0468 -10.536 -5.943501 -5.943501 
-11.9742 -18.0468 -18.0468 -16.4795 -5.943501 
-23.058 -18.0468 -23.9903 -16.4795 
-23.058 -23.9903 -23.9903 
-4.617 0 -6.963 -10.536 0 -5.943501 0 
-4.617 -6.963 -18.0468 -10.536 -5.943501 -5.943501 
-11.9742 -18.0468 -18.0468 -16.4795 -5.943501 
-23.058 -18.0468 -23.9903 -16.4795 
-23.058 -23.9903 -23.9903 
-11.58 -8.722501 0 -5.943501 0 
-21.2445 -8.722501 -5.943501 -5.943501 
-21.2445 -11.046 -5.943501 
-23.568 -11.046 
-23.568 
-4.617 -6.963 -10.5895 0 -5.943501 0 
-11.9742 -18.1003 -10.5895 -5.943501 -5.943501 
-23.1115 -18.1003 -16.533 -5.943501 
-23.1115 -24.0438 -16.533 
-29.055 -24.0438 
