-4.759 
n/a 
n/a 
n/a 
n/a 
-4.759 
n/a 
n/a 
n/a 
n/a 
-4.759 
n/a 
n/a 
n/a 
n/a 
-4.759 
n/a 
n/a 
n/a 
n/a 
-5.6125 -5.322 -8.1385 0 -1.934 -3.091 -4.9435 -3.251 -2.6165 -4.164 -2.9995 -4.4525 -1.7565 -3.091 -4.3705 -4.414 -2.4285 -1.4985 -5.683 -1.7565 -3.091 -7.462 -4.0965 -2.4285 -6.006001 -2.9995 -2.8965 -4.0965 0 -2.3615 -3.4905 -2.664 -5.666 -3.4775 -1.756 -4.1585 -1.7695 -3.091 -4.9435 0 
-8.89 -14.2803 -8.1385 -1.934 -4.2105 -7.192 -8.535 -4.9545 -6.5305 -7.9225 -7.262 -4.6715 -4.0655 -6.682 -8.194 -6.388 -4.002501 -6.440001 -6.452 -4.0655 -11.8388 -9.3655 -6.772 -7.832 -9.437501 -4.1905 -8.127501 -4.0965 -2.3615 -5.932 -6.008 -6.943 -8.06 -5.098001 -5.5165 -5.963 -4.458 -7.192 -4.9435 
-18.0263 -14.2803 -11.117 -4.2105 -8.1155 -11.1975 -10.223 -9.109501 -9.2005 -12.4298 -9.338 -7.365 -7.433 -9.9455 -9.992001 -8.429501 -9.137 -6.5585 -7.5665 -12.9907 -13.7423 -12.1538 -13.0125 -11.4213 -10.6479 -8.9425 -8.127501 -6.882501 -5.932 -8.797501 -10.5225 -10.0315 -8.9875 -9.7215 -7.389 -7.8175 -8.803 -7.192 
-18.0263 -17.2588 -13.3935 -8.1155 -12.3786 -12.8855 -14.378 -10.168 -13.9134 -14.5058 -12.1001 -10.354 -10.8609 -11.8109 -12.1443 -13.7948 -9.1975 -7.704 -17.1325 -14.8942 -16.5306 -18.3943 -16.6018 -12.6317 -15.3999 -8.9425 -10.575 -10.7814 -8.797501 -13.7558 -13.9782 -10.959 -13.8314 -11.6818 -9.375501 -12.4137 -8.803 
-21.0048 -19.5353 -17.2985 -12.3786 -14.0666 -17.0405 -15.4365 -15.0713 -15.9894 -17.2679 -15.0891 -13.7819 -12.7263 -13.9632 -17.5096 -13.8553 -10.5045 -17.233 -19.036 -17.6825 -22.7711 -21.9836 -17.8122 -17.3837 -15.3999 -11.5658 -14.4739 -13.6469 -13.7558 -17.2115 -14.9057 -15.8029 -15.7917 -13.6683 -14.2917 -12.4137 
-6.6955 -4.2655 -3.402 -5.154 -7.6225 0 -3.5745 -5.651501 -3.8095 -2.9995 -1.7565 -3.091 -4.2655 -2.229 -4.414 -2.5045 -3.3235 -2.5045 -7.462 -3.59 -2.229 -4.6085 -2.3345 -5.7925 -2.8965 -3.959 -3.1715 -3.893 -3.1435 -3.4775 
-11.9374 -7.2025 -8.1315 -13.6267 -7.6225 -3.5745 -9.1155 -8.0755 -6.707 -4.1995 -4.0655 -6.6855 -6.8715 -6.0445 -6.615 -3.7105 -3.8485 -10.3895 -9.903501 -4.966 -6.882 -7.3395 -7.3335 -9.503501 -4.940001 -7.583 -8.3925 -5.991 -5.723001 
-14.8744 -12.3862 -16.9208 -13.6267 -11.015 -7.483 -11.724 -10.893 -7.905 -6.2245 -7.482 -8.870001 -11.163 -8.057 -7.553 -3.8545 -12.1149 -12.831 -11.2795 -9.0515 -10.2185 -12.7285 -11.9443 -11.6768 -7.9925 -13.3152 -10.9221 -8.7615 
-20.0581 -21.1755 -16.9208 -17.0192 -14.9235 -10.1765 -12.0621 -11.6506 -9.25 -10.202 -9.5775 -13.3099 -13.1755 -8.874001 -7.91 -12.1229 -14.5564 -14.207 -15.365 -12.5222 -15.6075 -17.3393 -14.1176 -14.7293 -14.6473 -15.8448 -13.6926 
-28.8474 -21.1755 -20.3133 -20.9277 -17.617 -12.1903 -12.8643 -13.0031 -13.5391 -12.2975 -14.1456 -15.3224 -13.9925 -9.004001 -16.4244 -14.5644 -15.9324 -18.2925 -18.8357 -17.9112 -20.2183 -19.5126 -17.1701 -21.3841 -17.1769 -18.6153 
-1.934 -3.091 -4.3155 0 -2.5045 -2.9805 -5.0075 -1.7695 -5.6125 -4.2655 -2.872 -3.7285 -4.603 -2.7455 -3.091 -3.11 -4.2655 0 -3.074 -2.7455 -3.091 -3.59 -10.377 -2.4285 -5.5385 -2.8965 -3.59 -2.4285 -4.2655 
-4.2105 -6.834001 -4.3155 -2.5045 -4.5965 -6.690001 -5.113 -8.312 -8.410501 -6.5385 -5.492001 -7.1585 -7.0275 -5.024 -6.8195 -7.634 -4.2655 -3.074 -6.076 -5.024 -5.8 -15.1056 -12.9141 -7.972001 -8.624001 -5.941 -5.6145 -6.459001 
-7.8725 -6.834001 -7.08 -4.5965 -9.145 -7.1215 -12.0723 -10.4505 -10.634 -9.3015 -8.678 -9.521501 -9.167001 -8.711 -12.3551 -7.634 -7.636 -6.076 -8.282001 -7.899 -18.0498 -17.6427 -18.4576 -11.1599 -11.8587 -7.715 -8.742001 
-7.8725 -8.7255 -8.775001 -9.145 -9.1765 -14.658 -14.2108 -12.674 -13.397 -12.5549 -11.2628 -11.6134 -12.9262 -14.3364 -12.3551 -11.7633 -10.926 -8.282001 -11.2472 -20.4642 -20.5869 -23.1862 -21.6455 -14.3946 -13.6327 -10.7325 
-9.577001 -9.679501 -13.5633 -9.1765 -16.8404 -16.7965 -16.4343 -15.437 -16.6504 -15.1397 -13.3547 -15.3726 -18.5516 -14.3364 -16.4844 -15.0533 -13.132 -11.2472 -23.8124 -23.0013 -26.1304 -26.3741 -24.8802 -16.1686 -16.6502 
-7.6225 -2.7415 -1.8085 -5.389 -3.7925 -2.9805 -3.5745 -2.6165 -3.5795 -1.4985 -5.447 -1.7565 -3.091 -4.2655 -2.4285 -1.4985 -6.1265 -1.7565 -3.091 -7.462 -4.0965 -4.533 -1.934 -2.3615 -4.9435 -1.756 -2.9805 -3.251 -2.6165 -7.847001 -1.4985 -2.8965 -5.709 0 -2.3615 -4.5445 -1.4985 -5.683 -1.7565 -6.9335 -4.9435 0 
-10.2815 -3.891 -6.4915 -9.547001 -5.853001 -4.8665 -4.114 -4.902 -4.5845 -6.056001 -5.9605 -4.0655 -6.6855 -5.988 -4.002501 -7.835 -7.717 -4.0655 -11.8388 -9.3655 -9.6945 -5.282 -3.539 -6.825 -6.6675 -4.3555 -4.429 -4.9545 -10.2285 -9.008501 -3.928 -7.772 -5.709 -2.3615 -7.082 -5.716001 -6.440001 -6.452 -8.257 -12.1642 -4.9435 
-11.431 -8.1775 -10.0155 -11.6847 -7.48 -5.333 -6.12 -5.7655 -9.472 -6.171 -7.956 -7.482 -7.808 -7.65 -10.5035 -8.2375 -10.316 -12.9907 -13.7423 -15.0763 -10.391 -7.117 -7.529 -8.8515 -9.297 -5.9465 -5.995501 -13.8489 -11.4804 -11.5484 -8.397 -7.772 -8.317 -7.082 -8.171 -9.669001 -6.5585 -13.6709 -13.5955 -12.1642 
-15.7175 -11.9519 -12.1532 -13.3117 -7.680501 -8.222 -6.854 -10.9952 -9.563001 -8.106001 -9.518001 -8.8405 -9.6 -14.5674 -10.6625 -10.5855 -19.2412 -14.8942 -19.4531 -15.7728 -12.1598 -11.6012 -9.527 -11.468 -11.0184 -7.6365 -15.1841 -15.1008 -14.0203 -16.0174 -8.397 -9.882501 -13.2565 -8.171 -12.1958 -9.720501 -13.8392 -19.0094 -13.5955 
-19.4919 -14.0896 -13.7802 -13.5122 -10.609 -8.911501 -12.1319 -11.0862 -11.4772 -9.5935 -10.9145 -10.2755 -16.617 -14.7264 -13.0105 -19.5107 -21.1447 -20.605 -20.1496 -17.5416 -16.644 -13.5992 -12.2539 -13.1894 -12.7084 -16.9497 -16.436 -17.6407 -18.4893 -16.0174 -10.66 -14.8834 -14.3455 -12.1958 -12.2473 -17.2156 -19.1777 -19.0094 
