-4.759 
n/a 
n/a 
n/a 
n/a 
-4.759 
n/a 
n/a 
n/a 
n/a 
-4.759 
n/a 
n/a 
n/a 
n/a 
-4.759 
n/a 
n/a 
n/a 
n/a 
-9.802 -4.834 -5.585 -3.6215 -3.882 -3.957 -1.7565 -5.804 -2.543 -4.153 
-14.9594 -9.390501 -8.1535 -7.7825 -7.4575 -4.676 -6.644001 -6.4725 -7.898 
-19.5159 -12.0694 -12.7743 -11.7748 -7.5625 -9.858001 -9.5675 -12.7065 
-22.1948 -16.6902 -16.7666 -11.8798 -12.7274 -12.1725 -15.3382 
-26.8156 -20.6825 -16.8716 -17.0447 -15.9196 -18.3764 
-3.9785 -1.7565 -4.122 -5.804 0 -8.171 -3.9875 -1.934 -3.859 -3.4155 -4.677 -4.205 
-4.924 -5.9805 -8.237 -4.165 -8.171 -12.6677 -5.4495 -6.218 -7.016 -7.334001 -7.6765 
-9.941 -9.858 -7.509 -13.1848 -12.6677 -14.1297 -10.4091 -10.0146 -11.8669 -10.9801 
-13.9545 -9.875 -16.6626 -17.6815 -14.1297 -19.0893 -14.2057 -14.8655 -15.513 
-13.9545 -19.0772 -21.1593 -19.1435 -19.0893 -22.8859 -19.0566 -18.5116 
-3.2615 -1.4985 -4.4485 -4.153 0 -8.171 -2.674 -4.0835 -1.4985 -3.4155 -5.585 
-4.032 -5.4305 -6.742001 -4.153 -8.171 -10.6095 -5.814 -5.761001 -4.4155 -8.011 
-7.5475 -7.0365 -6.742001 -11.136 -10.6095 -14.6541 -7.1185 -8.017501 -8.466001 
-9.0425 -7.0365 -14.4266 -13.5745 -14.6541 -15.9586 -9.4825 -10.134 
-9.0425 -14.9743 -16.8651 -17.6191 -15.9586 -18.3226 -11.7962 
-1.934 -4.4285 -1.7695 -4.0835 -5.585 
-7.1915 -6.745501 -6.803 -8.321501 
-9.3555 -12.3542 -11.2984 
-15.067 -16.8496 
-19.5624 
