-4.759 
n/a 
n/a 
n/a 
n/a 
-4.759 
n/a 
n/a 
n/a 
n/a 
-4.759 
n/a 
n/a 
n/a 
n/a 
-4.759 
n/a 
n/a 
n/a 
n/a 
-3.0835 -4.4665 -4.266 -2.7415 -5.287 -4.4905 -2.356 -1.4985 -3.1385 -2.229 -3.7535 -2.7455 -3.948 -3.594 -4.571 
-8.109 -9.3335 -8.290501 -7.860001 -9.143001 -6.6155 -3.1615 -4.2575 -4.6125 -5.6925 -5.507 -6.3275 -7.2805 -7.396 
-13.5002 -13.466 -13.6236 -11.8992 -11.3514 -7.322001 -5.3935 -5.5035 -9.178 -7.978001 -8.395 -9.375501 -11.8863 
-17.6327 -18.7991 -17.6628 -14.1076 -12.0579 -9.895401 -7.2475 -10.347 -10.75 -10.95 -11.6314 -14.2219 
-22.9658 -22.8383 -19.8712 -14.8141 -14.6313 -11.7494 -12.396 -12.3034 -13.722 -14.1864 -16.4778 
-2.3615 -2.186 -3.0835 -3.3715 -3.319 -1.7565 -3.999 -6.288 -1.7695 -3.3785 -4.9225 -1.7565 -6.8 -3.4765 -3.9875 -1.7565 -5.818 -1.4985 -7.4325 -4.0745 0 
-3.5005 -5.597 -7.093 -7.602501 -4.165 -6.017001 -11.3094 -8.6415 -5.583 -9.050501 -6.042 -10.3025 -11.069 -7.309 -5.377501 -9.123 -6.485001 -7.035 -10.655 -4.0745 
-7.216 -10.075 -11.5334 -7.992501 -8.6005 -13.9806 -13.6629 -12.8424 -11.7266 -10.5586 -15.4069 -13.5436 -15.7456 -8.573001 -13.6902 -10.244 -12.8393 -11.1665 -9.655001 
-12.193 -14.5274 -11.9234 -12.6076 -16.8257 -16.3341 -17.8638 -18.986 -13.2347 -19.9235 -19.2135 -17.9576 -17.089 -16.8967 -14.8112 -16.8273 -17.1806 -11.5333 
-16.6454 -14.9174 -16.5385 -20.8328 -19.1792 -20.535 -24.0074 -20.4941 -22.5996 -23.7301 -23.5725 -19.301 -25.4127 -18.0177 -21.3945 -21.1686 -17.1806 
-2.3615 -2.186 -1.4985 -3.0835 -3.237 -4.558 -4.571 -1.756 -3.074 0 -2.3615 -2.186 -4.7695 -1.934 -4.622 -3.7345 -4.266 -3.9535 -2.5045 -3.0835 -2.95 
-3.5005 -3.339 -3.535 -6.075 -7.4525 -10.2645 -5.8845 -4.566 -3.074 -2.3615 -3.5005 -6.515 -6.446 -6.535 -6.8945 -8.859501 -7.3465 -6.0695 -4.934 -4.3945 
-4.3105 -4.8925 -6.5375 -10.3605 -13.591 -11.739 -9.814501 -4.566 -5.959001 -3.5005 -9.6385 -8.126 -11.7198 -8.795501 -12.4943 -12.1066 -9.694 -9.300001 -7.661 
-5.43 -7.647 -10.749 -16.499 -15.0655 -15.669 -9.814501 -7.377 -6.8165 -9.6385 -11.2577 -13.7616 -13.9803 -14.4901 -15.7414 -14.4541 -13.6031 -12.1884 
-7.9875 -12.1219 -16.8875 -17.9735 -18.9955 -15.669 -12.6465 -8.287001 -13.1897 -11.2577 -16.8933 -16.0221 -19.6749 -17.7372 -18.0889 -18.3632 -16.4915 
-1.934 -1.4985 -3.2795 -3.7535 -3.074 -4.0045 -2.356 -1.4985 -4.9225 
-2.6125 -4.423 -6.186501 -7.25 -7.962501 -5.350501 -3.1615 -6.040501 
-5.561 -7.5465 -9.285001 -12.6663 -9.2515 -5.935501 -7.6765 
-8.222501 -10.2225 -14.7629 -13.9553 -9.748 -10.264 
-11.0845 -15.7004 -16.0519 -14.4518 -14.1701 
