-4.759 
n/a 
n/a 
n/a 
n/a 
-4.759 
n/a 
n/a 
n/a 
n/a 
-4.759 
n/a 
n/a 
n/a 
n/a 
-4.759 
n/a 
n/a 
n/a 
n/a 
-5.7555 -3.098 -3.737 -3.995 -4.692 -5.2415 
-9.5345 -6.823 -8.003 -7.8005 -7.267 
-13.3615 -11.5516 -12.4417 -10.1425 
-18.0901 -15.9903 -14.7837 
-22.5288 -18.3323 
-2.3615 -4.6205 -1.4985 -3.995 -2.229 -4.692 -3.6445 0 
-6.0985 -5.723 -4.712 -5.324 -6.6025 -5.5985 -3.6445 
-7.111 -8.9245 -5.586 -6.845 -6.7895 -5.5985 
-10.6843 -9.811001 -7.035501 -6.906 -6.7895 
-11.5708 -10.0135 -7.096001 -6.906 
-3.1435 -4.6205 -3.995 -2.229 -4.692 -3.6445 
-9.042001 -8.288 -5.324 -6.6025 -5.5985 
-12.7991 -10.0415 -6.845 -6.7895 
-14.5526 -10.3405 -6.906 
-14.8516 -10.3775 
-2.3615 -4.6205 -1.4985 -4.692 -3.6445 -1.7565 -3.995 
-6.0985 -5.723 -5.687 -5.5985 -4.775001 -5.423 
-7.111 -9.256001 -6.249001 -7.058001 -8.165501 
-11.0158 -9.479501 -7.403501 -8.943001 
-11.2393 -10.7096 -9.114501 
