-4.759 
n/a 
n/a 
n/a 
n/a 
-4.759 
n/a 
n/a 
n/a 
n/a 
-4.759 
n/a 
n/a 
n/a 
n/a 
-4.759 
n/a 
n/a 
n/a 
n/a 
-3.676 -2.186 -1.4985 -4.834 -4.1735 -3.59 -1.934 -5.216 -4.8945 
-5.5015 -3.339 -5.5435 -6.4335 -6.9245 -5.272 -7.664001 -9.6385 
-6.601501 -6.8705 -6.5705 -9.899 -7.166 -10.733 -12.3687 
-9.5535 -7.341 -9.950001 -10.1405 -14.1562 -15.4377 
-10.2005 -10.494 -10.1915 -17.1307 -18.8609 
-3.676 -2.186 -1.4985 -4.4665 -4.022 -1.7565 -4.8945 -1.934 -1.4985 -3.188 0 
-5.5015 -3.339 -4.729 -7.6165 -6.4495 -5.989501 -7.1855 -2.6125 -3.619 -3.188 
-6.601501 -5.893 -7.9185 -8.064501 -8.870001 -7.744 -7.659501 -4.377 -3.619 
-8.76 -8.534 -8.378 -10.0215 -9.712501 -8.057501 -9.059501 -4.377 
-10.3815 -8.837501 -10.5855 -10.854 -9.815001 -9.182 -9.059501 
-3.676 -2.186 -1.4985 -4.4665 -4.8945 -4.5625 -3.59 -1.934 -1.4985 -3.188 0 
-5.5015 -3.339 -4.729 -9.105 -7.4685 -8.359 -5.272 -2.6125 -3.619 -3.188 
-6.601501 -5.893 -9.491 -11.9592 -11.7228 -9.8675 -5.747 -4.377 -3.619 
-8.76 -10.5635 -12.4144 -16.2135 -13.2313 -10.0225 -6.1975 -4.377 
-13.6453 -13.4869 -16.6687 -17.722 -13.3863 -10.0465 -6.1975 
-3.676 -2.186 -1.4985 -4.1735 -3.638 -4.022 -1.934 -1.4985 -3.188 
-5.5015 -3.339 -4.445 -7.14 -7.252501 -6.518001 -2.6125 -3.619 
-6.601501 -5.392 -7.5565 -7.905 -8.1265 -7.1585 -4.377 
-7.993001 -8.205001 -8.306001 -8.2335 -8.226001 -8.1385 
-10.7025 -8.412001 -8.3585 -8.284 -8.388 
