-4.759 
n/a 
n/a 
n/a 
n/a 
-4.759 
n/a 
n/a 
n/a 
n/a 
-4.759 
n/a 
n/a 
n/a 
n/a 
-4.759 
n/a 
n/a 
n/a 
n/a 
-2.3615 -2.9195 -2.186 -5.805 -2.871 -1.756 -2.6165 -2.8645 -2.9995 -4.413 
-5.5835 -5.2945 -7.200001 -8.922001 -4.864 -4.2965 -6.9245 -5.571 -6.771 
-7.1805 -11.1045 -10.451 -9.918501 -7.0155 -8.7165 -8.58 -8.0415 
-13.2979 -14.3555 -11.4475 -12.401 -11.9273 -10.5135 -11.3895 
-16.5489 -15.352 -13.93 -17.3128 -13.7243 -13.7428 
-2.3615 -2.186 -6.2715 -2.9195 0 -2.847 -4.0745 -2.0935 -2.3615 
-3.5005 -8.642 -10.265 -2.9195 -2.847 -5.452 -5.3495 -3.854 
-10.281 -12.8909 -10.265 -5.847 -5.452 -6.737 -6.734 
-14.5299 -12.8909 -13.1925 -9.3055 -6.737 -7.9045 
-14.5299 -15.8184 -16.651 -9.984501 -7.9045 
-2.3615 -2.186 -1.8085 -4.768 -3.9845 -1.756 -2.8645 -2.847 -4.2235 -4.0745 -1.7695 -3.2015 -2.4265 0 
-3.5005 -3.164 -5.7555 -9.470501 -5.971 -4.3855 -4.6285 -7.016 -6.792 -5.421 -4.3485 -5.6215 -2.4265 
-4.179 -7.3795 -10.2485 -11.7932 -8.441 -5.904 -8.1735 -8.153 -8.04 -6.114 -6.29 -5.6215 
-8.508 -12.0045 -12.5712 -14.2632 -9.8915 -9.377001 -10.2695 -8.922501 -8.684501 -7.487 -6.29 
-13.2432 -14.3272 -15.0412 -15.7137 -13.3645 -11.4938 -11.039 -9.329 -9.892 -7.487 
-2.3615 -2.186 -1.4985 -4.282 -2.9195 -1.756 -2.8645 -2.847 -4.413 
-3.5005 -3.339 -5.231501 -7.78 -4.328 -4.3855 -4.6285 -6.293 
-4.3105 -8.099501 -9.7185 -9.5155 -7.6555 -5.904 -7.918 
-9.233 -12.9217 -11.454 -12.9562 -9.5985 -9.598001 
-14.3614 -14.6572 -14.8947 -14.8992 -13.4801 
