-4.759 
n/a 
n/a 
n/a 
n/a 
-4.759 
n/a 
n/a 
n/a 
n/a 
-4.759 
n/a 
n/a 
n/a 
n/a 
-4.759 
n/a 
n/a 
n/a 
n/a 
-8.395 -4.1455 0 -10.017 -12.16972 
-9.389501 -4.1455 -10.017 -22.25352 
-9.389501 -15.2925 -22.25352 
-20.9465 -27.52902 
-33.18302 
-9.8555 -4.0905 -2.186 -3.4075 -8.1945 0 
-14.1372 -5.5435 -6.289001 -13.257 -8.1945 
-15.5902 -10.1367 -16.7565 -13.257 
-20.1834 -20.6042 -16.7565 
-30.6509 -20.6042 
-4.1455 -2.3345 -8.066501 -3.4075 -6.054 
-5.2685 -10.647 -12.251 -6.97 
-14.3596 -14.8315 -15.8135 
-18.5441 -18.394 
-22.1066 
-8.395 -4.1455 0 -3.4075 -5.3865 
-9.389501 -4.1455 -3.4075 -6.029 
-9.389501 -8.329 -6.029 
-13.983 -10.013 
-15.667 
