-4.759 
n/a 
n/a 
n/a 
n/a 
-4.759 
n/a 
n/a 
n/a 
n/a 
-4.759 
n/a 
n/a 
n/a 
n/a 
-4.759 
n/a 
n/a 
n/a 
n/a 
-5.1845 -5.74 0 -3.1015 -3.074 -12.16972 -2.0935 0 -4.263 -4.245 0 -3.3195 -1.756 -4.1955 -5.4085 0 
-5.7465 -5.74 -3.1015 -5.884 -16.24412 -14.26322 -2.0935 -4.263 -7.8635 -4.245 -3.3195 -4.768 -5.6725 -7.390501 -5.4085 
-5.7465 -9.423 -5.884 -19.43512 -18.33762 -14.26322 -6.451 -7.8635 -7.8635 -6.5305 -4.768 -8.021501 -8.4775 -7.390501 
-9.4355 -12.2755 -19.43512 -21.52862 -18.33762 -18.62072 -10.6315 -7.8635 -10.7432 -7.476 -8.021501 -9.382001 -8.4775 
-12.2898 -25.82662 -21.52862 -21.52862 -22.69512 -22.80122 -10.6315 -10.7432 -11.6887 -11.5679 -9.382001 -9.382001 
-6.557 -2.186 -3.9205 -2.5045 -4.732 -6.826 -3.383 -4.4695 -2.0935 -3.3195 0 -4.1465 0 -1.756 -4.692 0 
-8.833 -4.9645 -4.449 -8.2065 -12.4316 -9.5345 -6.6995 -5.6265 -5.596 -3.3195 -4.1465 -4.1465 -1.756 -6.0545 -4.692 
-10.7605 -5.539 -9.570001 -16.0879 -15.1401 -12.929 -7.906 -9.2005 -5.596 -5.874001 -4.1465 -5.6545 -6.0545 -6.0545 
-11.335 -10.6465 -17.5792 -18.7964 -18.5346 -14.1355 -11.6214 -9.2005 -8.262501 -5.874001 -5.6545 -9.606501 -6.0545 
-16.4425 -18.6557 -20.2877 -22.1909 -19.7411 -17.8509 -11.6214 -12.0266 -8.262501 -6.9045 -9.606501 -9.606501 
-5.1845 -5.74 -4.9335 -3.091 -5.271 -1.934 -4.245 0 -3.3195 -1.756 -4.1465 -4.77 
-5.7465 -10.907 -7.0315 -7.9985 -6.575 -5.934 -4.245 -3.3195 -4.768 -5.5085 -8.109 
-10.9553 -13.005 -12.5758 -9.514501 -11.4154 -5.934 -6.5305 -4.768 -6.2435 -9.062 
-13.0533 -18.5493 -14.0918 -14.4343 -11.4154 -8.2075 -7.476 -6.2435 -9.307501 
-18.5976 -20.0653 -19.0116 -14.4343 -13.6889 -8.540501 -9.092001 -9.307501 
-5.1845 -5.74 -2.186 -2.871 -1.7565 -3.2825 -4.6035 0 -4.245 0 -3.3195 0 -1.756 -4.1465 -2.186 -3.383 -4.4695 -1.7565 -5.1845 -5.74 0 
-5.7465 -7.964001 -4.247 -3.5385 -5.5245 -7.1525 -4.6035 -4.245 -4.245 -3.3195 -3.3195 -1.756 -5.5085 -6.4185 -4.438 -6.6995 -6.756001 -6.580501 -5.7465 -5.74 
-7.973001 -9.1485 -4.411 -7.1225 -8.9755 -7.1525 -7.968501 -4.245 -6.5305 -3.3195 -4.768 -5.5085 -7.819 -8.489 -7.6475 -9.478001 -12.3094 -6.961501 -5.7465 
-9.1545 -9.189 -7.801 -10.5731 -8.9755 -11.2067 -7.968501 -6.5305 -6.5305 -4.768 -6.2435 -7.819 -9.932001 -10.66 -10.044 -15.324 -12.6904 -6.961501 
-9.193001 -13.2848 -11.4482 -10.5731 -13.4919 -11.2067 -9.114501 -6.5305 -7.476 -6.2435 -8.412001 -9.932001 -12.103 -13.0565 -15.9544 -15.705 -12.6904 
