-4.759 
n/a 
n/a 
n/a 
n/a 
-4.759 
n/a 
n/a 
n/a 
n/a 
-4.759 
n/a 
n/a 
n/a 
n/a 
-4.759 
n/a 
n/a 
n/a 
n/a 
-3.091 -4.121 -5.0485 -2.7415 -5.1845 0 
-5.304 -6.243001 -7.214 -9.0585 -5.1845 
-7.79 -8.3575 -10.543 -9.0585 
-9.3015 -10.553 -10.543 
-10.76 -10.553 
-3.091 -4.121 -5.0485 -2.186 -5.1845 0 
-5.304 -6.243001 -6.6985 -8.139501 -5.1845 
-7.79 -7.434501 -8.5655 -8.139501 
-8.507 -8.566501 -8.5655 
-8.8765 -8.566501 
-2.9805 -2.229 -4.121 -5.0485 -5.1845 0 
-4.2145 -5.532001 -6.243001 -8.344 -5.1845 
-9.3435 -7.8205 -8.347501 -8.344 
-11.7704 -10.2998 -8.347501 
-14.2497 -10.2998 
-3.091 -4.121 -5.0485 -5.1845 
-5.304 -6.243001 -8.344 
-7.79 -8.347501 
-10.1985 
n/a 
