-4.759 
n/a 
n/a 
n/a 
n/a 
-4.759 
n/a 
n/a 
n/a 
n/a 
-4.759 
n/a 
n/a 
n/a 
n/a 
-4.759 
n/a 
n/a 
n/a 
n/a 
-1.4985 -4.2245 -1.7565 -1.4985 -4.4285 -3.6825 -1.934 -1.4985 -3.545 -2.186 -4.3965 -2.0935 -4.5045 -1.4985 -4.432 -4.328 0 
-5.2345 -5.277 -2.4195 -4.759 -6.877 -5.357 -2.6125 -4.401 -5.372 -5.708 -4.7705 -6.412 -5.651501 -5.268001 -4.899 -4.328 
-5.753 -5.484 -6.065001 -6.986 -7.5335 -5.999 -5.1745 -5.975 -9.3195 -6.011 -9.4775 -7.673 -8.416 -5.504 -4.899 
-5.9345 -7.4785 -7.4405 -7.561501 -7.665 -7.899 -7.193 -9.925001 -9.514501 -10.2085 -10.8011 -10.5865 -8.611001 -5.504 
-7.499 -7.645 -8.375501 -7.678 -8.6805 -9.786 -11.2942 -10.075 -13.9802 -11.8167 -13.7146 -10.6935 -8.611001 
-1.4985 -3.6825 -3.8385 -3.0695 -4.098 -4.4285 -3.2015 -1.934 -1.4985 -4.698 -4.425 -4.3965 -2.0935 -1.4985 -3.275 -1.7565 -4.432 -4.328 
-4.87 -7.4575 -7.0935 -5.783501 -8.290001 -7.191501 -5.2275 -2.6125 -5.740001 -8.682001 -7.088 -4.7705 -2.9725 -4.7845 -5.893 -6.054 -4.899 
-8.814501 -10.1385 -9.655001 -10.7405 -9.906 -8.0895 -5.906 -6.765501 -9.737 -11.7298 -7.301 -5.8505 -6.071001 -6.356 -7.9855 -6.621 
-11.8993 -12.7 -14.633 -12.3565 -10.692 -8.402 -9.1665 -10.9433 -12.823 -11.9428 -8.498 -8.514501 -6.981501 -8.035501 -7.99 
-14.4608 -17.678 -16.249 -13.1425 -11.0045 -9.916 -13.4607 -14.0293 -13.036 -13.1398 -11.2668 -9.4045 -8.696001 -8.040001 
-1.934 -10.002 -4.4715 -7.022 -2.742 -2.674 -4.2055 -1.7695 -3.7905 -4.432 -4.328 
-12.9424 -14.6735 -12.5463 -9.147501 -4.275 -7.285501 -4.621 -4.482 -7.4305 -4.899 
-17.6139 -22.7483 -14.6718 -10.703 -8.200001 -7.4575 -6.873 -7.7815 -7.5315 
-25.6887 -24.8738 -16.2273 -14.628 -8.2865 -9.837501 -9.7605 -7.81 
-27.8142 -26.4293 -20.1523 -14.7145 -10.8803 -12.7172 -9.7735 
-3.0695 -2.186 -3.17 -4.4095 -2.5195 -1.4985 -3.4185 -1.7565 -12.9825 -2.3335 -3.6765 -4.645 -2.5045 -1.8085 -4.432 -4.328 
-4.2675 -5.1385 -8.472 -8.0775 -3.1695 -5.019 -4.2475 -12.528 -13.8505 -5.3345 -7.286 -6.168001 -3.3625 -5.709001 -4.899 
-6.9575 -11.2119 -12.332 -8.8315 -6.764 -6.382501 -14.516 -16.5435 -16.8515 -9.464001 -8.2725 -6.811501 -6.893001 -6.8925 
-13.6029 -15.0719 -13.086 -12.5974 -8.4235 -16.937 -18.8355 -19.5445 -20.981 -10.3675 -8.780001 -10.4585 -8.2635 
-17.4629 -15.8259 -16.8519 -14.2569 -19.0564 -20.3285 -21.8365 -23.674 -21.8845 -10.875 -13.0168 -10.4815 
