-4.759 
n/a 
n/a 
n/a 
n/a 
-4.759 
n/a 
n/a 
n/a 
n/a 
-4.759 
n/a 
n/a 
n/a 
n/a 
-4.759 
n/a 
n/a 
n/a 
n/a 
-3.786 -3.1385 -4.424 -2.5045 -4.2085 -6.221 -2.5045 -3.5715 -3.133 
-7.2425 -6.278501 -5.791 -6.796 -10.4265 -8.598001 -6.093 -5.518 
-9.3955 -8.063001 -9.8085 -13.9274 -13.0627 -12.9575 -7.6035 
-11.3696 -12.5431 -17.3459 -16.5636 -17.4222 -14.468 
-15.8497 -20.0805 -19.9821 -20.9231 -18.9327 
-3.5715 -6.919001 -3.1385 -3.152 -4.19 -1.756 -4.952 -3.931 -4.4825 -3.433 -1.7565 -4.2085 -3.898 -1.934 -4.4385 
-8.658 -9.7295 -5.219 -6.435 -5.6195 -6.6065 -7.3685 -8.630001 -6.7025 -4.1845 -5.647 -6.253 -5.5505 -5.783 
-14.4895 -11.8225 -7.9975 -7.441501 -10.223 -9.0825 -12.6381 -9.684501 -7.373 -8.8655 -7.696 -7.6505 -8.8065 
-16.2095 -14.9422 -8.6285 -12.3526 -12.699 -14.5213 -13.6926 -10.421 -12.1602 -9.9925 -9.282001 -10.0475 
-19.3292 -15.5732 -13.7542 -14.8286 -18.1378 -15.5758 -14.4291 -15.7716 -13.2872 -10.723 -11.7312 
-3.5715 -3.133 -3.851 -1.7695 -1.4985 -3.383 -3.869 -4.2085 -3.898 -1.934 -6.733 0 -3.786 -3.1385 -2.4945 -4.19 -1.756 -4.9475 -4.9125 0 
-5.518 -7.4875 -4.0015 -2.7955 -4.554501 -5.7275 -9.0325 -6.253 -5.5505 -9.696001 -6.733 -3.786 -7.2425 -4.588 -6.009 -5.6195 -6.6325 -7.014501 -4.9125 
-10.134 -7.74 -4.5775 -5.887 -7.431001 -10.647 -9.767501 -7.6505 -14.0221 -9.696001 -10.9575 -7.2425 -9.2875 -7.083 -6.9975 -10.0675 -8.5035 -7.014501 
-10.265 -8.335501 -7.0565 -9.054 -12.8529 -11.382 -10.4065 -16.5953 -14.0221 -14.1155 -14.414 -9.2875 -11.8773 -7.9585 -11.8573 -11.9385 -8.5035 
-10.8605 -10.757 -9.5555 -14.5867 -13.5879 -12.021 -19.9543 -16.5953 -18.4416 -17.572 -16.459 -11.8773 -12.7528 -13.1913 -13.7283 -11.9385 
-3.5715 -3.133 -1.934 -4.4385 -3.0365 -2.7415 -2.664 -3.869 -4.282 -3.898 -1.756 -2.645 -3.1575 -3.786 -3.6765 -3.7555 -4.493 -1.756 -3.0365 -2.7415 -5.718 -4.285 0 
-5.518 -5.598001 -5.783 -7.7205 -4.2225 -4.6625 -7.965 -8.677 -7.023 -5.242001 -3.898 -3.72 -7.242001 -7.942501 -7.3865 -6.96 -5.8585 -4.484 -4.2225 -8.465501 -9.378501 -4.285 
-8.429501 -10.022 -8.157001 -8.722 -5.384 -9.856501 -12.976 -10.757 -8.325001 -8.126 -5.4925 -7.347 -12.2243 -12.4781 -9.644001 -8.147 -8.307 -5.51 -9.748501 -12.5358 -9.378501 
-13.0685 -12.4416 -9.1715 -10.0315 -11.0714 -14.8971 -15.056 -12.059 -11.524 -9.306001 -8.460001 -12.6127 -16.7599 -14.7356 -10.72 -9.967 -8.972 -11.131 -14.0344 -12.5358 
-15.4881 -13.4561 -10.6475 -15.7189 -16.112 -16.9771 -16.358 -15.258 -12.704 -12.3931 -14.3125 -17.1483 -19.0174 -15.8116 -12.54 -10.6925 -14.623 -15.4169 -14.0344 
