-4.759 
n/a 
n/a 
n/a 
n/a 
-4.759 
n/a 
n/a 
n/a 
n/a 
-4.759 
n/a 
n/a 
n/a 
n/a 
-4.759 
n/a 
n/a 
n/a 
n/a 
-3.3985 -3.13 0 -9.101001 0 -5.1845 -3.8195 -4.681 
-5.295 -3.13 -9.101001 -9.101001 -5.1845 -6.896501 -7.058001 
-5.295 -12.7538 -9.101001 -10.2985 -6.896501 -9.256001 
-15.9244 -12.7538 -10.2985 -13.1299 -9.256001 
-15.9244 -13.9513 -13.1299 -15.4894 
-3.3985 -3.13 -9.101001 0 -5.1845 -3.8195 -4.681 
-5.295 -12.7538 -9.101001 -5.1845 -6.896501 -7.058001 
-15.9244 -12.7538 -10.2985 -6.896501 -9.256001 
-15.9244 -13.9513 -13.1299 -9.256001 
-17.1219 -16.7827 -15.4894 
-3.3985 -3.13 0 -8.47 0 -5.1845 -3.8195 -4.681 
-5.295 -3.13 -8.47 -8.47 -5.1845 -6.896501 -7.058001 
-5.295 -12.1228 -8.47 -10.7835 -6.896501 -9.256001 
-15.2934 -12.1228 -10.7835 -12.4955 -9.256001 
-15.2934 -14.4363 -12.4955 -14.855 

n/a 
n/a 
n/a 
n/a 
