-4.759 
n/a 
n/a 
n/a 
n/a 
-4.759 
n/a 
n/a 
n/a 
n/a 
-4.759 
n/a 
n/a 
n/a 
n/a 
-4.759 
n/a 
n/a 
n/a 
n/a 
-6.920001 -2.186 -1.4985 -3.0835 -4.2245 -2.0935 -10.944 -6.2845 0 -4.3405 -7.931 -5.994 -2.9805 -4.2215 -2.264 -4.749 -3.609 -5.3605 
-9.146501 -3.339 -3.535 -6.940001 -6.563 -11.6175 -13.133 -6.2845 -4.3405 -10.7025 -10.143 -9.043501 -7.7605 -5.4545 -6.6665 -7.3705 -7.663001 
-10.186 -4.8925 -7.686501 -9.347 -16.1995 -15.5236 -13.2276 -10.3045 -10.7025 -12.9145 -13.1925 -13.9153 -9.3065 -8.891001 -8.445001 -12.0459 
-11.7395 -8.971001 -10.0675 -19.0069 -19.9126 -15.5236 -17.2476 -16.6665 -12.9145 -15.964 -18.0643 -15.4613 -13.0146 -11.3175 -13.4964 
-15.818 -10.575 -19.7802 -22.72 -19.9126 -19.5436 -23.6096 -18.8785 -15.964 -20.8358 -19.6103 -19.1694 -15.4411 -16.3689 
-6.920001 -4.2215 -2.5045 -3.0835 -4.2245 -1.7565 -8.424001 -6.324 -1.756 -8.2725 -5.994 -2.264 -3.488 -8.206501 -2.5045 -5.802 0 
-10.375 -6.628 -5.9195 -6.940001 -4.942 -9.6675 -15.4292 -7.949 -10.1425 -10.0315 -8.412001 -4.790501 -10.2755 -9.713 -7.652 -5.802 
-12.7815 -10.1035 -9.811001 -7.839 -13.6746 -16.5945 -17.0542 -16.7269 -11.9015 -12.5423 -10.6095 -9.9905 -10.858 -14.923 -7.652 
-16.257 -14.1162 -10.1585 -16.686 -20.6016 -18.2195 -25.8321 -18.4859 -14.4123 -14.7398 -15.72 -11.6945 -16.3523 -14.9278 
-20.2697 -14.4637 -19.0055 -23.613 -22.2266 -26.9974 -27.5911 -20.9967 -16.6098 -19.8503 -17.5135 -17.1498 -16.3523 
-6.920001 -4.2705 -2.5045 -5.3605 -3.488 -4.749 -3.193 -1.934 -9.819 -2.0935 -8.111501 -11.0235 -1.756 -7.931 -5.994 0 
-10.4345 -6.7895 -8.717 -8.226001 -6.32 -7.146 -4.837 -10.9315 -12.0309 -11.136 -19.7968 -12.7795 -9.901501 -10.143 -5.994 
-12.9535 -13.4422 -11.8265 -12.1152 -10.078 -9.396501 -14.5745 -13.1434 -21.0734 -22.8213 -21.5528 -20.925 -12.1837 -10.143 
-19.6062 -16.5517 -15.7157 -15.8732 -12.5289 -19.3192 -16.7864 -22.1859 -32.7587 -24.5773 -29.6983 -23.2072 -12.1837 
-22.7157 -20.4409 -19.4737 -18.3241 -22.4516 -21.5311 -25.8289 -33.8712 -34.5147 -32.7228 -31.9805 -23.2072 
-2.264 -4.749 -3.488 -5.3605 0 -6.920001 -2.7415 -4.2215 -1.934 -5.802 -2.5045 -1.4985 -4.2245 -1.7565 -7.203001 -6.2845 -1.756 -7.931 -5.994 0 
-6.6665 -6.99 -7.673 -5.3605 -6.920001 -8.799001 -4.7885 -4.885 -6.889 -8.385 -3.583 -5.219 -4.942 -9.7185 -10.8215 -7.6725 -9.901501 -10.143 -5.994 
-8.038 -10.5135 -7.673 -10.985 -8.799001 -9.989501 -5.2365 -8.421 -8.992001 -9.254001 -6.819 -5.361001 -13.7256 -13.6002 -12.2095 -16.3778 -12.1837 -10.143 
-11.6273 -10.5135 -13.6859 -12.864 -9.989501 -10.315 -8.6125 -11.1348 -9.970001 -12.604 -6.885 -14.4622 -17.6073 -14.9882 -20.9148 -18.66 -12.1837 
-11.6273 -16.5264 -15.5649 -14.0545 -10.315 -10.775 -11.5751 -12.1128 -13.32 -12.67 -16.4362 -18.3439 -18.9953 -23.6935 -23.197 -18.66 
