-4.759 
n/a 
n/a 
n/a 
n/a 
-4.759 
n/a 
n/a 
n/a 
n/a 
-4.759 
n/a 
n/a 
n/a 
n/a 
-4.759 
n/a 
n/a 
n/a 
n/a 
-4.2605 -1.7565 -9.6525 -1.756 -9.5485 -2.186 -2.6165 -4.816 
-5.676001 -11.117 -10.5435 -12.3131 -11.8509 -3.5105 -6.429 
-15.6093 -12.008 -21.1006 -14.6155 -13.1754 -7.068 
-16.5003 -22.5651 -23.403 -15.94 -16.7329 
-27.0574 -24.8675 -24.7275 -19.4975 
-2.847 -2.915 -2.7455 -9.6525 -1.756 -7.891 
-5.3685 -4.0865 -13.3566 -10.5435 -9.755501 
-6.6195 -15.1044 -14.2476 -18.543 
-18.1664 -15.9954 -22.2471 
-19.0574 -23.9949 
-1.4985 -4.2605 -1.7565 -10.8685 -1.756 -10.462 -2.186 -4.2105 0 
-4.8355 -5.676001 -13.5742 -12.6245 -13.2266 -12.648 -5.658 -4.2105 
-6.032001 -18.0665 -15.3302 -24.0951 -15.4126 -16.12 -5.658 
-18.6053 -19.8225 -26.8008 -26.2811 -18.8846 -16.12 
-20.3613 -31.2931 -28.9868 -29.7531 -18.8846 
-9.6525 -1.756 -9.9965 
-10.5435 -12.7611 
-21.5486 
n/a 
n/a 
