-4.759 
n/a 
n/a 
n/a 
n/a 
-4.759 
n/a 
n/a 
n/a 
n/a 
-4.759 
n/a 
n/a 
n/a 
n/a 
-4.759 
n/a 
n/a 
n/a 
n/a 
-3.091 -3.3195 -1.756 -4.1465 -2.7415 -5.077 -2.3345 -3.3715 -2.8965 -3.9755 -1.7565 -3.3195 
-5.8145 -4.768 -5.5085 -6.9485 -6.539001 -5.3265 -5.279 -4.827001 -5.4445 -4.312 -4.8675 
-6.8495 -6.2435 -8.354 -10.2925 -6.6095 -7.2865 -6.902 -6.901501 -5.4915 -6.7545 
-9.104 -8.968 -11.8232 -10.326 -8.682 -8.6335 -9.400001 -6.93 -7.918 
-12.0861 -12.4514 -11.8567 -12.4141 -10.089 -11.6193 -9.420501 -9.073001 
-3.091 -4.1465 -1.756 -3.3195 -4.8675 -3.6065 -4.7005 -1.7565 -3.3195 -3.188 0 
-7.086 -5.6545 -5.1355 -7.9145 -7.729 -5.6825 -4.764 -4.8675 -6.187 -3.188 
-8.724501 -6.8735 -10.485 -10.382 -9.9925 -5.719501 -6.8175 -8.580501 -6.187 
-9.9405 -12.6564 -12.9525 -12.7779 -10 -7.642001 -10.374 -8.580501 
-16.0068 -15.1239 -15.3484 -12.7854 -11.9225 -11.3363 -10.374 
-2.5195 -3.091 -4.1465 -1.756 -3.3195 -3.0415 -3.3715 -3.9755 -1.7565 -3.3195 -3.0465 -3.6835 0 
-4.8225 -7.086 -5.6545 -5.1355 -6.422501 -4.5985 -5.96 -4.312 -4.8675 -6.6305 -7.384501 -3.6835 
-9.2435 -8.724501 -6.8735 -8.043501 -8.4235 -7.5775 -6.003 -6.7545 -8.4215 -11.9057 -7.384501 
-10.7185 -9.9405 -9.885 -10.213 -11.6309 -7.655 -8.182 -10.1855 -14.1491 -11.9057 
-11.9345 -13.2354 -12.0545 -13.4204 -11.7084 -9.1855 -11.7904 -15.9131 -14.1491 
-3.332 -4.1465 -1.756 -3.3195 -3.2345 -3.3715 -3.9755 -1.7565 -3.3195 
-7.019501 -5.6545 -5.1355 -6.7425 -6.465 -5.96 -4.312 -4.8675 
-8.4405 -6.8735 -8.4525 -10.891 -8.914001 -6.003 -6.7545 
-10.328 -10.411 -12.9924 -13.34 -8.927501 -8.182 
-13.8655 -14.9509 -15.4414 -13.3535 -11.1985 
