-4.759 
n/a 
n/a 
n/a 
n/a 
-4.759 
n/a 
n/a 
n/a 
n/a 
-4.759 
n/a 
n/a 
n/a 
n/a 
-4.759 
n/a 
n/a 
n/a 
n/a 
-2.9805 -3.43 -1.8085 -3.3195 -4.3975 -4.287 -1.934 -3.091 -2.8195 -2.264 -4.2005 
-5.2875 -4.6595 -5.6155 -6.4845 -9.4165 -5.971 -4.2105 -5.4555 -5.362 -7.627001 
-6.08 -8.1505 -8.3175 -10.76 -11.4337 -8.529 -6.2675 -7.048 -11.4708 
-9.7915 -11.6909 -13.158 -12.7772 -13.9917 -9.9455 -8.066501 -13.391 
-13.3135 -16.5314 -15.1752 -15.3352 -15.4082 -12.0469 -14.5395 
-3.9535 -4.3975 -4.09 -1.934 -3.091 -3.545 -2.5045 -4.2005 
-7.256001 -6.03 -5.940001 -4.2105 -5.7425 -5.7765 -8.093 
-9.538301 -7.2445 -8.1125 -6.593501 -7.492001 -11.5614 
-10.7528 -8.9025 -9.104501 -8.251501 -13.4337 
-12.4108 -9.7915 -10.9883 -14.3408 
-1.934 -1.4985 -3.158 -4.2005 -2.9805 -3.9535 -1.8085 -3.3195 -4.3975 -4.2885 -1.934 -3.091 -2.8195 0 
-2.6125 -4.178 -6.244 -6.58 -5.607 -5.581 -5.6155 -6.4845 -9.18 -5.8765 -4.2105 -5.4555 -2.8195 
-5.265 -7.633 -9.527 -8.660501 -7.0505 -8.616 -8.3175 -10.6605 -10.9782 -8.544001 -6.2675 -5.4555 
-8.144001 -9.710501 -11.5749 -9.8855 -9.793501 -11.7608 -13.0585 -12.4587 -13.6457 -9.928 -6.2675 
-9.93 -11.8106 -12.7999 -12.6285 -12.9383 -16.5018 -14.8567 -15.1262 -15.0297 -9.928 
-2.9805 -4.834 -3.332 -3.5205 -3.3195 -4.3975 -4.287 -1.934 -3.091 -3.545 
-7.379001 -8.616501 -4.995501 -6.207 -6.4845 -9.4165 -5.971 -4.2105 -5.7425 
-11.5505 -9.410001 -7.628 -9.454 -10.76 -11.4337 -8.529 -6.593501 
-12.344 -12.0851 -11.287 -14.0103 -12.7772 -13.9917 -10.361 
-15.0191 -15.7441 -15.8433 -16.0275 -15.3352 -15.8237 
