-4.759 
n/a 
n/a 
n/a 
n/a 
-4.759 
n/a 
n/a 
n/a 
n/a 
-4.759 
n/a 
n/a 
n/a 
n/a 
-4.759 
n/a 
n/a 
n/a 
n/a 
-8.894501 -1.934 -2.5685 -1.4985 -4.3735 -4.052 -2.4945 -3.849 -6.255 -7.324 -9.7875 0 
-11.2153 -4.244 -3.7015 -5.5435 -7.972501 -6.387 -5.410501 -9.595 -14.327 -17.6949 -9.7875 
-13.5253 -5.3815 -7.904 -8.554001 -9.692501 -9.2735 -11.4501 -17.6982 -24.6979 -17.6949 
-14.6628 -8.9075 -10.0475 -10.1505 -12.6174 -15.4085 -19.5533 -28.0691 -24.6979 
-18.1888 -10.4855 -11.644 -13.0754 -18.7524 -23.5117 -29.9242 -28.0691 
-1.4985 -4.3735 -4.6525 -1.7565 -3.995 -2.674 -4.015 -3.8905 -1.934 -5.1875 -2.229 -3.5125 0 
-5.5435 -8.151001 -5.1545 -5.423 -6.9785 -6.739 -8 -5.5195 -7.1715 -7.694 -5.187 -3.5125 
-8.961 -9.1455 -9.2045 -8.316 -11.3761 -11.5828 -9.609 -8.992001 -10.111 -10.7335 -5.187 
-9.465501 -13.1037 -12.3135 -12.8822 -16.2199 -13.1918 -13.1205 -12.5641 -13.1505 -10.7335 
-13.7531 -16.2127 -16.8797 -17.726 -17.8289 -16.7033 -16.6926 -15.6036 -13.1505 
-3.699 -4.3735 -4.052 -4.5345 -2.4945 -10.5785 -3.9915 -2.5045 -9.482 -12.16972 -12.16972 
-8.9965 -7.972501 -9.153 -6.189 -14.5012 -14.57 -6.164001 -12.9039 -21.86612 -24.33944 
-12.7439 -13.4017 -11.5467 -18.9415 -18.4927 -16.7425 -16.8534 -25.28802 -34.03584 
-18.1731 -15.7954 -24.2992 -22.933 -20.6652 -27.4319 -29.23752 -37.45774 
-20.5668 -28.5479 -28.2907 -25.1055 -31.3546 -39.81602 -41.40724 
-1.4985 -3.699 -4.3735 -4.348 -2.186 -12.16972 
-5.264 -8.9965 -8.841501 -6.6995 -15.56612 
-10.31 -13.6129 -11.3612 -20.36522 
-14.9264 -16.1326 -25.02692 
-17.4461 -29.79832 
