-4.759 
n/a 
n/a 
n/a 
n/a 
-4.759 
n/a 
n/a 
n/a 
n/a 
-4.759 
n/a 
n/a 
n/a 
n/a 
-4.759 
n/a 
n/a 
n/a 
n/a 
-7.641 -2.8645 -5.139 -2.356 -3.704 -6.7735 -1.934 -3.54 -4.6525 -1.7565 -4.712 -5.139 
-10.287 -7.281 -6.727 -5.6755 -8.477501 -8.091001 -5.0325 -6.5485 -5.1545 -6.730501 -8.6745 
-14.9103 -9.781 -9.473001 -10.411 -10.1 -10.609 -9.242001 -7.2235 -9.0155 -10.564 
-17.4103 -12.6788 -14.3033 -12.0335 -12.8006 -14.8185 -9.698001 -11.4137 -12.9838 
-20.3081 -17.5091 -15.9258 -14.7341 -17.0101 -15.2745 -14.2926 -15.382 
-1.4985 -5.7105 -5.9185 -4.186 -2.186 -5.4915 -2.264 -3.54 -4.6525 -2.3345 -7.8485 -3.704 -5.7325 -4.712 0 
-6.535001 -6.078 -8.9335 -6.193001 -6.265 -6.8595 -5.564 -6.5485 -6.639 -9.5465 -10.2045 -7.039001 -8.0675 -4.712 
-6.7405 -8.975 -10.3045 -9.521501 -7.2595 -8.5375 -6.854001 -7.402 -14.301 -12.2533 -10.726 -8.963 -8.0675 
-9.316501 -10.3045 -10.76 -10.343 -8.9385 -8.587501 -7.428501 -15.4502 -17.0078 -12.7748 -12.65 -8.963 
-10.434 -10.76 -11.5815 -11.8704 -8.9515 -8.602501 -15.4883 -18.157 -17.5293 -14.6988 -12.65 
-10.738 -3.54 -4.6525 -4.282 -2.3345 -3.704 -4.6625 -4.921 
-14.278 -6.5485 -8.349 -4.928 -5.9865 -7.3815 -8.165001 
-17.2865 -10.119 -9.4275 -8.862 -9.459001 -9.892501 
-20.857 -11.0335 -13.3533 -10.7575 -10.305 
-21.7715 -14.9593 -15.2488 -11.6035 
-7.641 -5.849 -2.3345 -1.4985 -3.704 -4.6625 -4.921 
-14.052 -8.237501 -3.233 -4.735001 -7.3815 -8.165001 
-16.4405 -9.191001 -6.5845 -8.313001 -9.892501 
-17.394 -12.6881 -10.418 -11.0146 
-20.8911 -16.5216 -13.1196 
