-4.759 
n/a 
n/a 
n/a 
n/a 
-4.759 
n/a 
n/a 
n/a 
n/a 
-4.759 
n/a 
n/a 
n/a 
n/a 
-4.759 
n/a 
n/a 
n/a 
n/a 
-3.9485 -2.356 -3.595 0 -3.091 -4.284 -4.9865 -5.544 -3.074 -4.471 -4.803 0 
-4.311 -4.882 -3.595 -3.091 -4.863 -7.883 -7.564 -8.571501 -6.649 -6.2665 -4.803 
-6.875 -4.882 -5.813001 -4.863 -8.1975 -9.3605 -10.411 -12.2803 -8.726001 -6.2665 
-6.875 -7.063 -7.5 -8.1975 -9.635 -12.3331 -14.1198 -14.3573 -8.726001 
-8.777 -8.378 -11.1279 -9.635 -12.6624 -16.0419 -16.1968 -14.3573 
-3.034 -2.9805 -6.228 -7.6035 -3.091 -4.284 -4.9865 -5.544 -3.074 -6.228 -7.6035 
-4.4605 -8.1415 -9.4265 -11.117 -4.863 -7.883 -7.564 -8.571501 -8.594501 -9.4265 
-9.453001 -10.426 -13.1086 -12.889 -8.1975 -9.3605 -10.411 -14.2258 -12.2808 
-12.0535 -14.1081 -14.8806 -16.2235 -9.635 -12.3331 -16.0653 -17.9121 
-15.7356 -15.8801 -18.2151 -17.661 -12.6624 -17.9874 -19.7516 
-3.091 -4.284 -5.618 -5.934 -3.074 -4.471 -4.803 0 
-4.863 -9.1625 -12.0832 -9.014001 -6.649 -6.2665 -4.803 
-9.495001 -15.6935 -15.1632 -12.8028 -8.726001 -6.2665 
-16.031 -18.7735 -18.952 -14.8798 -8.726001 
-19.111 -22.5623 -21.029 -14.8798 
-3.091 -4.284 -4.9865 -7.041501 -3.074 -4.471 -4.803 -2.356 -3.595 0 
-4.863 -7.883 -12.6054 -10.389 -6.649 -6.2665 -7.080001 -4.882 -3.595 
-8.1975 -15.6725 -15.9529 -13.964 -8.726001 -8.294001 -9.650501 -4.882 
-16.0636 -19.02 -19.5279 -16.041 -10.335 -10.4265 -9.650501 
-19.4111 -22.595 -21.6049 -17.65 -12.6607 -10.4265 
