-4.759 
n/a 
n/a 
n/a 
n/a 
-4.759 
n/a 
n/a 
n/a 
n/a 
-4.759 
n/a 
n/a 
n/a 
n/a 
-4.759 
n/a 
n/a 
n/a 
n/a 
-3.7075 -2.186 -4.692 -3.519 -1.7695 -3.972 -2.664 -4.2635 -3.3715 -4.873 
-5.825 -7.4735 -7.446501 -4.761 -7.123001 -6.7865 -7.8855 -7.497001 -8.383 
-10.4345 -10.1995 -9.213 -11.1477 -10.4035 -12.6396 -11.5598 -12.8573 
-13.5315 -12.099 -15.7219 -14.4282 -16.2566 -16.3139 -16.9201 
-15.431 -18.6079 -19.0024 -20.2813 -19.9309 -21.6742 
-3.7075 -3.7805 -4.9845 -3.046 -3.638 -4.873 0 
-6.981 -8.913 -8.491001 -6.066 -8.566001 -4.873 
-12.5171 -12.9065 -11.9586 -10.208 -8.566001 
-16.5106 -16.3741 -16.1006 -10.208 
-19.9782 -20.5161 -16.1006 
-4.5235 -2.674 -3.557 -2.3335 -3.7075 -2.186 -2.664 -7.8925 -2.356 -2.664 -5.097 -3.893 -1.7565 -4.692 -3.6445 0 
-5.77 -4.9945 -4.678 -6.679 -5.825 -3.8555 -8.986 -10.4035 -4.135 -5.635 -6.3505 -4.1785 -6.084001 -5.5985 -3.6445 
-6.705501 -5.694 -9.120501 -7.744 -7.7475 -10.4185 -11.6878 -12.1825 -7.066 -6.445 -6.385 -8.33 -7.112 -5.5985 
-6.989 -10.0035 -10.504 -10.0095 -14.7491 -13.1203 -13.4668 -15.1135 -8.009501 -6.4845 -10.3035 -9.2915 -7.112 
-11.4863 -11.5428 -12.7695 -17.1147 -17.4509 -14.8993 -16.3978 -16.057 -8.019 -10.381 -12.1418 -9.2915 
-3.7075 -2.186 -1.4985 -9.057001 -3.638 -2.7415 -5.3075 -2.3345 -1.4985 -4.873 
-5.825 -3.339 -8.615001 -9.949 -6.6175 -6.283 -6.2735 -3.233 -6.0205 
-7.137 -10.3045 -10.7225 -12.888 -10.107 -6.828 -7.080501 -7.844501 
-12.3455 -13.3057 -14.0515 -16.5653 -10.652 -7.609 -10.1895 
-15.4694 -16.1269 -17.541 -17.1103 -11.433 -10.9176 
