-4.759 
n/a 
n/a 
n/a 
n/a 
-4.759 
n/a 
n/a 
n/a 
n/a 
-4.759 
n/a 
n/a 
n/a 
n/a 
-4.759 
n/a 
n/a 
n/a 
n/a 
-4.6415 0 -7.3435 0 -5.1645 0 
-4.6415 -7.3435 -7.3435 -5.1645 -5.1645 
-12.4212 -7.3435 -13.1338 -5.1645 
-12.4212 -13.1338 -13.1338 
-18.2115 -13.1338 
-4.6415 0 -12.16972 0 -5.1645 0 
-4.6415 -12.16972 -12.16972 -5.1645 -5.1645 
-17.24742 -12.16972 -17.33422 -5.1645 
-17.24742 -17.33422 -17.33422 
-22.41192 -17.33422 
-4.6415 0 -12.16972 0 -5.1645 0 
-4.6415 -12.16972 -12.16972 -5.1645 -5.1645 
-17.24742 -12.16972 -17.33422 -5.1645 
-17.24742 -17.33422 -17.33422 
-22.41192 -17.33422 
-4.6415 -9.359 0 -5.1645 0 
-14.4367 -9.359 -5.1645 -5.1645 
-14.4367 -14.7377 -5.1645 
-19.8154 -14.7377 
-19.8154 
