-4.759 
n/a 
n/a 
n/a 
n/a 
-4.759 
n/a 
n/a 
n/a 
n/a 
-4.759 
n/a 
n/a 
n/a 
n/a 
-4.759 
n/a 
n/a 
n/a 
n/a 
-3.034 -12.16972 -8.164001 -4.9175 0 -3.091 -4.4455 -12.16972 -5.583 -1.8085 -4.132 -1.934 -4.9205 -4.747 0 -3.851 -1.7695 -12.16972 -2.229 -5.9245 -1.7565 -3.091 -8.6975 -1.756 -7.91 -4.2895 0 
-16.36672 -20.33372 -13.6051 -4.9175 -3.091 -5.4825 -17.48562 -17.75272 -8.206 -5.98 -5.4765 -7.974 -9.6505 -4.546 -3.851 -4.0015 -14.92142 -14.39872 -7.549 -6.7735 -4.0655 -10.254 -10.071 -9.6175 -12.6583 -4.2895 
-24.53072 -25.77482 -13.6051 -7.4 -5.4825 -19.03442 -23.06862 -20.37572 -12.7751 -7.986 -12.4231 -11.7425 -8.8485 -8.774501 -4.0015 -17.86822 -17.15042 -19.71872 -9.0165 -9.270501 -11.4059 -11.8169 -18.0687 -14.5576 -12.6583 
-29.97182 -25.77482 -16.0876 -10.195 -19.03442 -24.61742 -25.69162 -24.94482 -14.7811 -15.3978 -14.4966 -10.0475 -13.2746 -9.323501 -17.86822 -20.09722 -22.47042 -21.18622 -10.7605 -16.8021 -12.9688 -19.8146 -23.0088 -14.5576 
-29.97182 -28.25732 -18.8826 -23.74692 -24.61742 -27.24042 -30.26072 -26.95082 -22.1929 -17.4713 -14.4966 -14.4736 -13.8236 -23.41742 -20.09722 -25.41722 -23.93792 -22.93022 -18.2921 -18.365 -20.9665 -24.7547 -23.0088 
-10.7545 -7.4885 -4.4455 -12.16972 -6.292 -1.934 -1.4985 -3.158 -4.8285 -4.747 -3.433 -1.7565 -10.7545 -7.4885 -5.243 -2.4285 -3.135 -4.2895 
-18.9004 -12.5612 -17.48562 -18.46172 -7.022501 -2.6125 -4.178 -7.422501 -9.745501 -8.5725 -4.1845 -13.4602 -18.9004 -13.3587 -7.127 -5.264501 -6.575 
-23.9731 -25.60132 -23.77762 -19.19222 -7.7355 -5.265 -8.189501 -11.517 -13.2405 -9.364 -16.7776 -21.6061 -24.7706 -15.2427 -10.5975 -9.863001 
-37.01322 -31.89332 -24.50812 -19.90522 -9.958501 -8.7675 -12.5314 -16.1676 -14.2507 -21.9701 -24.9235 -27.4763 -26.6546 -18.7132 -15.196 
-43.30522 -32.62382 -25.22112 -22.12822 -13.9992 -12.8719 -16.8786 -16.9146 -27.051 -30.2202 -30.7937 -29.3603 -30.1251 -23.3117 
-12.16972 -8.164001 -2.6165 -3.013 -3.135 -1.7565 -3.571 -4.2895 -2.9805 -2.229 -4.712 -9.198501 -2.9805 -2.229 -4.4455 -1.7565 -12.16972 -6.28 -4.9205 -8.257501 -3.9725 -3.0465 -1.4985 -3.275 0 
-20.33372 -11.3041 -5.317 -5.287001 -3.9195 -5.085001 -8.587 -6.675 -4.2145 -5.987 -15.0591 -12.485 -4.2145 -5.7415 -5.924001 -14.87542 -17.48722 -10.287 -13.754 -12.6592 -7.5145 -4.046 -4.7845 -3.275 
-23.47382 -14.0046 -7.981501 -6.420001 -8.8175 -10.5975 -11.1603 -7.9125 -10.064 -17.1307 -18.3456 -13.719 -9.362 -8.6455 -19.62692 -20.19292 -22.83772 -19.7885 -18.1557 -16.2012 -8.538 -7.2135 -4.7845 
-26.17432 -16.6691 -8.870501 -12.1904 -14.5418 -13.1708 -12.3978 -13.9184 -21.3997 -20.4172 -19.5796 -18.8665 -10.3825 -22.48682 -24.94442 -25.54342 -31.95822 -24.1902 -21.6977 -17.2247 -12.3295 -7.2135 
-28.83882 -17.5581 -14.8211 -17.9147 -17.1151 -14.4083 -18.4037 -25.2541 -24.6862 -21.6512 -24.7271 -19.887 -24.22382 -27.80432 -30.29492 -34.66392 -36.35992 -27.7322 -22.7212 -21.0162 -12.3295 
-3.929 -5.0955 -1.756 -6.735 0 -1.4985 -3.8315 -6.864 -4.6805 -1.7565 -1.4985 -6.933001 -3.8405 -1.756 -1.4985 -3.3435 -1.7565 -3.1385 -4.5905 -3.4915 -1.7695 -1.4985 -4.2465 -4.6555 -1.7565 -1.4985 -5.1845 -3.59 -1.4985 -6.933001 -4.245 -2.186 -3.3365 -1.7565 -5.008 -2.7455 -1.4985 -5.912 -6.864 -4.6805 0 
-9.444 -6.876 -8.306 -6.735 -1.4985 -4.604 -9.4145 -8.916 -5.617 -2.4195 -8.120501 -8.9175 -5.3535 -3.0405 -4.6745 -4.7005 -4.388 -7.4575 -7.318001 -5.051 -2.7955 -5.423 -7.822001 -5.318 -2.4195 -6.5205 -8.539001 -5.348001 -8.120501 -8.585001 -6.276501 -5.2895 -4.7425 -6.185 -6.908501 -3.637 -6.5275 -11.08 -8.916 -4.6805 
-11.3479 -10.7175 -8.306 -8.578 -4.604 -9.826 -10.311 -10.0965 -6.6055 -8.875501 -9.1295 -10.3895 -6.2905 -6.256 -5.03 -7.1315 -8.507 -10.2485 -7.509501 -6.091001 -6.699501 -8.4305 -8.3995 -6.696501 -7.2335 -8.769501 -9.783 -12.332 -9.355 -10.0285 -8.241 -5.5445 -8.75 -8.813001 -7.937 -8.315001 -11.8503 -13.132 -8.916 
-15.1894 -10.7175 -10.298 -11.8579 -9.826 -10.5565 -11.4915 -10.6945 -13.9901 -9.694501 -10.7175 -11.3265 -9.486501 -6.844 -7.976 -11.9671 -11.515 -10.7115 -7.771501 -9.280001 -9.343 -8.620001 -8.846001 -12.1821 -9.320001 -10.013 -16.767 -13.5665 -10.635 -11.993 -8.248 -9.2405 -10.2545 -9.321 -10.292 -13.7424 -13.9023 -13.132 
-15.1894 -12.7095 -13.5779 -17.0799 -10.5565 -11.737 -12.0895 -18.0791 -14.8091 -11.3113 -11.6545 -14.5225 -9.677 -9.368501 -12.8788 -14.9751 -11.978 -10.9735 -9.922501 -12.1731 -9.4355 -9.087001 -14.5198 -14.2686 -10.5865 -16.997 -18.0015 -14.8465 -12.5995 -12 -12.2234 -10.46 -10.7625 -11.7164 -15.993 -15.7944 -13.9023 
