-4.759 
n/a 
n/a 
n/a 
n/a 
-4.759 
n/a 
n/a 
n/a 
n/a 
-4.759 
n/a 
n/a 
n/a 
n/a 
-4.759 
n/a 
n/a 
n/a 
n/a 
-1.4985 -5.4455 -3.602 -5.1975 -1.7695 -1.4985 -4.2485 -2.5045 -2.9705 -1.4985 -5.254 -4.153 -1.7565 -1.4985 -4.541 -5.062 -1.4985 -4.6465 -3.8965 -4.153 -4.138 0 -1.4985 -5.4455 -3.602 -2.186 -4.589 -2.264 -1.4985 -4.153 -4.0955 0 -5.4455 -3.824 
-6.547501 -5.999001 -7.843501 -5.254 -2.7955 -5.307 -6.211 -4.988501 -4.186 -6.507501 -6.3395 -5.717 -2.4195 -5.628 -8.733001 -6.1195 -5.325 -8.198 -7.5125 -7.7795 -4.138 -1.4985 -6.547501 -5.999001 -5.1035 -5.6805 -5.1735 -2.9195 -5.274 -7.858001 -4.0955 -5.4455 -7.3335 
-6.9715 -10.3475 -7.896501 -5.6295 -6.906001 -6.781001 -6.798 -5.565001 -8.4055 -7.352 -7.1055 -6.319001 -6.357501 -8.856001 -8.8135 -10.1505 -8.828501 -10.0745 -10.586 -7.7795 -5.027 -6.547501 -6.9715 -7.980501 -9.014001 -5.837 -5.6275 -7.08 -9.400001 -7.858001 -9.611 -7.3335 
-10.5855 -10.3855 -8.3395 -8.732 -8.318001 -7.136001 -7.081 -8.577001 -8.637 -7.6425 -7.7535 -8.140501 -8.867001 -8.8725 -10.5235 -13.8548 -10.1075 -13.3664 -10.586 -8.571501 -9.8015 -6.9715 -8.454 -10.634 -9.129001 -6.1955 -8.986501 -10.6875 -9.400001 -13.8257 -10.5875 
-10.6525 -10.473 -10.259 -9.5775 -8.511001 -7.538501 -8.6175 -8.684 -8.703501 -8.0045 -8.506001 -8.876501 -8.880501 -10.7839 -14.381 -15.1338 -13.4228 -13.3664 -11.378 -10.674 -9.981001 -8.454 -10.733 -10.655 -9.290001 -9.351001 -12.831 -10.6875 -15.4333 -14.8022 
-12.16972 
n/a 
n/a 
n/a 
n/a 
-4.426 -1.7565 -1.4985 -3.0835 -4.7285 -4.1555 -7.3455 -4.1495 
-5.47 -2.4195 -3.535 -6.042 -8.4455 -10.6495 -10.6175 
-5.9535 -4.6785 -6.335501 -9.523001 -14.562 -13.2585 
-8.021 -7.476501 -10.0095 -15.724 -17.03 
-9.983001 -11.3061 -16.3205 -18.192 
-12.16972 
n/a 
n/a 
n/a 
n/a 
