-4.759 
n/a 
n/a 
n/a 
n/a 
-4.759 
n/a 
n/a 
n/a 
n/a 
-4.759 
n/a 
n/a 
n/a 
n/a 
-4.759 
n/a 
n/a 
n/a 
n/a 
-2.5195 -1.4985 -4.193 0 -3.986 -2.7415 -3.7015 -1.4985 -4.2665 -1.7565 -1.4985 -4.2905 -1.934 -1.4985 -3.8275 -3.7015 -4.2945 0 
-3.1695 -4.594501 -4.193 -3.986 -6.0125 -6.2755 -4.3435 -5.031 -5.7585 -2.4195 -5.2005 -6.186 -2.6125 -4.726 -5.687 -6.488 -4.2945 
-5.4985 -4.594501 -8.3645 -6.0125 -8.4315 -6.774 -8.236501 -5.9785 -6.1765 -6.093501 -7.701 -6.882 -5.815001 -6.2635 -6.9695 -6.488 
-5.4985 -8.457001 -9.723001 -8.4315 -8.825001 -11.0808 -8.9685 -6.311 -9.896 -8.758501 -8.2615 -9.06 -6.818 -7.611001 -6.9695 
-8.658 -9.758501 -12.5882 -8.825001 -13.8308 -11.8128 -9.597 -10.2585 -12.4846 -9.350501 -10.6837 -10.065 -8.505 -7.611001 
-3.986 -2.7415 -3.7015 -1.4985 -4.002 -1.7565 -4.2945 -3.8275 -2.5195 -1.4985 -4.1805 0 
-6.0125 -6.2755 -4.3435 -5.581 -5.599501 -5.3075 -5.5525 -6.468 -3.1695 -4.733 -4.1805 
-8.4315 -6.774 -7.994 -6.24 -9.5915 -7.297 -7.8605 -7.034 -6.177 -4.733 
-8.825001 -10.1715 -8.1825 -10.2695 -12.192 -9.9945 -8.1455 -10.0275 -6.177 
-12.9215 -10.3165 -12.3174 -12.6632 -14.8895 -10.3789 -11.7628 -10.0275 
-2.925 -4.69 -1.4985 -3.8275 -3.7015 -1.4985 -4.2945 
-6.4055 -6.032 -4.726 -5.687 -4.3435 -5.7065 
-7.554501 -8.297501 -6.2635 -6.335 -7.3585 
-9.618501 -10.1265 -7.0005 -10.0635 
-11.5911 -10.3955 -10.4675 
-3.986 -2.7415 -3.7015 -4.2905 -3.9555 -2.0935 -4.2945 -3.8275 
-6.0125 -6.2755 -6.8685 -5.3725 -5.926 -6.0465 -5.5525 
-8.4315 -8.9655 -8.627501 -7.2685 -9.48 -7.6315 
-11.5321 -11.1079 -10.238 -10.2035 -11.137 
-13.6745 -12.7184 -13.173 -11.9739 
