-4.759 
n/a 
n/a 
n/a 
n/a 
-4.759 
n/a 
n/a 
n/a 
n/a 
-4.759 
n/a 
n/a 
n/a 
n/a 
-4.759 
n/a 
n/a 
n/a 
n/a 
-1.4985 -4.2115 -2.4945 -3.5665 -1.756 -4.6045 -3.135 -1.7565 -1.4985 -3.8015 0 
-5.954 -5.9955 -6.925 -5.252501 -5.931 -6.929 -3.9195 -2.4195 -4.8 -3.8015 
-7.537 -10.31 -9.019 -8.7805 -8.0975 -7.8125 -4.168 -5.895 -4.8 
-11.9679 -13.598 -12.9498 -11.1718 -9.0435 -8.040501 -8.278001 -5.895 
-15.2559 -17.5288 -15.3411 -12.1178 -9.298 -12.3403 -8.278001 
-2.5685 -4.5385 -2.9825 -3.115 -2.3615 -4.3955 -1.4985 -7.5405 -2.915 -1.934 -1.8085 -3.4605 
-7.5305 -8.0015 -6.3055 -4.312 -7.4615 -5.5445 -9.224501 -10.533 -4.628 -3.2685 -4.9875 
-11.5743 -11.9181 -6.996 -9.139 -8.6355 -14.1271 -12.4686 -12.246 -5.7435 -7.1815 
-15.4909 -12.6086 -12.618 -10.038 -17.5505 -17.3712 -14.1816 -13.3615 -9.401501 
-16.1814 -18.2306 -13.517 -19.0734 -20.7946 -19.0842 -15.2971 -17.0195 
-1.4985 -3.135 -3.5025 -3.619 -1.4985 -6.0525 -3.367 0 
-6.4025 -6.8145 -7.791 -4.707 -8.973001 -10.9315 -3.367 
-10.3155 -11.6608 -8.379001 -13.1551 -14.0904 -10.9315 
-15.1618 -12.2488 -17.6723 -18.2725 -14.0904 
-15.7498 -21.5421 -22.7897 -18.2725 
-4.8775 -2.5195 -3.45 -2.911 -4.5745 
-7.351 -5.1315 -7.5105 -4.953 
-9.558001 -9.2805 -8.1265 
-13.8884 -9.647 
-14.2549 
