-4.759 
n/a 
n/a 
n/a 
n/a 
-4.759 
n/a 
n/a 
n/a 
n/a 
-4.759 
n/a 
n/a 
n/a 
n/a 
-4.759 
n/a 
n/a 
n/a 
n/a 
-1.4985 -6.9985 -4.205 -2.186 -4.394 -3.962 
-7.8605 -8.954 -6.054 -5.364 -6.656 
-10.1225 -11.0076 -9.132001 -7.3135 
-12.1761 -14.0856 -10.75 
-15.2541 -15.7036 
-10.7895 -3.729 -3.7865 -4.394 -4.4895 0 
-14.5185 -7.509 -9.234501 -7.535 -4.4895 
-18.2985 -13.572 -12.4477 -7.535 
-24.3615 -16.7852 -12.4477 
-27.5747 -16.7852 
-2.5195 -2.3615 -4.031 -1.4985 -3.729 -3.9195 -2.186 -3.383 -3.299 0 
-4.4095 -5.4055 -5.469 -4.763 -5.707 -5.929 -4.438 -5.179 -3.299 
-8.666 -6.2395 -8.871 -7.3855 -8.0745 -8.002501 -6.351501 -5.179 
-9.589001 -9.5825 -11.6905 -9.1055 -10.176 -9.7075 -6.351501 
-12.932 -12.3848 -13.4105 -11.3068 -12.0078 -9.7075 
-7.961 -4.205 -4.394 -12.16972 
-12.745 -8.712001 -17.75152 
-17.252 -22.27612 
-30.81612 
n/a 
