-4.759 
n/a 
n/a 
n/a 
n/a 
-4.759 
n/a 
n/a 
n/a 
n/a 
-4.759 
n/a 
n/a 
n/a 
n/a 
-4.759 
n/a 
n/a 
n/a 
n/a 
-4.5965 0 -8.3325 0 -5.7865 0 
-4.5965 -8.3325 -8.3325 -5.7865 -5.7865 
-13.3192 -8.3325 -10.9315 -5.7865 
-13.3192 -10.9315 -10.9315 
-15.9182 -10.9315 
-4.5965 0 -8.755 -10.6255 0 -5.7865 0 
-4.5965 -8.755 -19.7959 -10.6255 -5.7865 -5.7865 
-10.8845 -19.7959 -19.7959 -16.412 -5.7865 
-21.9254 -19.7959 -25.5824 -16.412 
-21.9254 -25.5824 -25.5824 
-4.5965 0 -8.755 -12.16972 0 -5.7865 0 
-4.5965 -8.755 -21.34012 -12.16972 -5.7865 -5.7865 
-10.8845 -21.34012 -21.34012 -17.95622 -5.7865 
-23.46962 -21.34012 -27.12662 -17.95622 
-23.46962 -27.12662 -27.12662 
-4.5965 0 -8.755 -10.6255 0 -5.7865 0 
-4.5965 -8.755 -19.7959 -10.6255 -5.7865 -5.7865 
-10.8845 -19.7959 -19.7959 -16.412 -5.7865 
-21.9254 -19.7959 -25.5824 -16.412 
-21.9254 -25.5824 -25.5824 
