-4.759 
n/a 
n/a 
n/a 
n/a 
-4.759 
n/a 
n/a 
n/a 
n/a 
-4.759 
n/a 
n/a 
n/a 
n/a 
-4.759 
n/a 
n/a 
n/a 
n/a 
-3.251 -3.9875 -1.7565 -1.4985 -3.59 -1.7695 -3.6955 -1.7565 -3.498 -2.3335 -2.95 -2.9325 -1.7695 -3.013 -3.676 -2.229 0 
-6.626 -5.377501 -2.4195 -4.268 -5.3875 -4.452 -6.327001 -5.9405 -6.1265 -4.8245 -5.834 -4.604 -3.7215 -7.51 -4.593 -2.229 
-8.404 -5.8095 -5.009 -5.783 -7.785501 -7.2145 -10.6875 -9.342501 -9.479501 -7.4965 -7.689 -4.948 -8.502501 -8.2495 -4.593 
-8.895 -8.983001 -6.672501 -8.166 -11.3196 -11.6622 -14.0895 -12.8427 -12.3161 -9.6485 -8.1195 -9.703 -8.977501 -8.2495 
-12.1421 -9.735001 -9.189001 -12.1705 -15.7673 -15.0642 -17.5897 -15.6793 -14.4681 -10.0085 -13.0211 -10.4875 -8.977501 
-3.321 0 -3.2615 -1.4985 -4.058 -3.8275 -4.0555 -1.7695 -2.664 -3.498 0 -4.9725 -2.4265 -1.934 -5.366 -4.0555 -3.222 -3.895 -2.0935 -3.668 0 -3.4225 -3.468 -2.186 0 0 
-3.321 -3.2615 -4.032 -5.0995 -4.954 -7.198 -4.7475 -4.185 -5.1155 -3.498 -4.9725 -7.8335 -4.3385 -7.588 -10.233 -5.5095 -5.863 -5.5895 -3.995 -3.668 -3.4225 -3.628 -5.589 -2.186 0 
-5.939 -4.032 -6.752501 -5.56 -8.326 -7.6935 -6.349 -5.6315 -5.1155 -8.925 -7.8335 -10.0965 -9.867001 -12.7786 -11.687 -8.7995 -7.7185 -7.261001 -3.995 -7.9325 -3.628 -5.694 -5.589 -2.186 
-6.8205 -6.752501 -6.794001 -8.484501 -8.79 -8.047 -6.4995 -5.6315 -10.4265 -12.3702 -10.0965 -15.6742 -15.3326 -14.2326 -14.977 -10.6345 -8.658 -7.261001 -8.073501 -8.212501 -5.694 -5.694 -5.589 
-9.622001 -6.794001 -9.584001 -9.072001 -9.110001 -8.104 -6.4995 -10.485 -13.8805 -14.6332 -15.6742 -21.1398 -16.7866 -17.5226 -16.812 -11.574 -8.658 -11.4763 -8.4025 -10.3675 -5.694 -5.694 

n/a 
n/a 
n/a 
n/a 
-3.2615 -1.4985 -3.498 -1.7565 -1.4985 -4.101 -3.8275 0 -1.4985 -3.895 -1.7565 -4.5275 -2.3335 -1.934 -5.366 -4.0555 -3.222 -4.6975 0 -2.0935 -3.668 0 -2.9325 -3.676 -2.186 -3.937 -2.186 0 0 
-4.032 -4.0295 -4.005 -2.4195 -4.997 -7.710001 -3.8275 -1.4985 -5.121 -5.073 -6.581 -5.7755 -4.468 -7.588 -10.233 -5.5095 -6.238501 -4.6975 -2.0935 -3.995 -3.668 -2.9325 -6.610001 -5.5015 -5.158 -5.9125 -2.186 0 
-5.903501 -4.188 -4.3765 -5.646501 -8.444 -7.710001 -5.4605 -5.121 -5.411 -8.620501 -8.459001 -7.583 -10.181 -12.7786 -11.687 -6.7535 -6.238501 -6.524 -3.995 -3.995 -6.433001 -6.610001 -7.403501 -8.064501 -6.7745 -5.9125 -2.186 
-5.923 -4.4925 -8.397501 -9.562 -8.444 -9.264501 -9.161 -5.411 -9.033501 -10.6009 -10.3405 -13.5672 -15.3716 -14.2326 -12.931 -6.7535 -7.952001 -8.246 -3.995 -6.58 -10.2777 -7.403501 -8.7395 -9.604 -6.7745 -5.9125 
-6.151 -8.628 -10.586 -9.562 -10.275 -12.9956 -9.385501 -9.033501 -11.0927 -12.4824 -16.3247 -18.7578 -16.8256 -15.4766 -12.931 -8.8095 -9.432501 -8.246 -6.58 -10.4367 -11.0712 -8.7395 -10.034 -9.604 -6.7745 
