-4.759 
n/a 
n/a 
n/a 
n/a 
-4.759 
n/a 
n/a 
n/a 
n/a 
-4.759 
n/a 
n/a 
n/a 
n/a 
-4.759 
n/a 
n/a 
n/a 
n/a 
-3.929 -3.17 -1.7565 -3.277 -3.251 -5.1845 -2.5045 -2.985 -4.121 -8.325001 0 -2.925 -3.8055 -1.8085 -4.2775 -4.832 -4.2655 -4.4525 -1.934 -3.9175 0 
-6.2845 -4.179 -4.25 -6.0975 -9.861 -8.093 -5.065001 -6.031 -9.8995 -8.325001 -2.925 -5.677 -5.0005 -4.8285 -8.501 -7.445001 -9.363501 -6.329 -4.681 -3.9175 
-6.728 -5.4445 -6.18 -12.7477 -12.7695 -9.673 -7.568501 -12.0985 -9.8995 -11.5974 -5.677 -6.8145 -8.568001 -8.6805 -11.7276 -12.9182 -11.4138 -8.139501 -4.681 
-7.646501 -7.2645 -12.8352 -15.6562 -14.3495 -10.149 -13.896 -12.0985 -13.1719 -14.3494 -6.8145 -10.5035 -12.6222 -12.2355 -17.2008 -14.9685 -13.2243 -8.139501 
-9.085501 -14.0741 -15.7437 -17.2362 -14.8255 -17.4155 -13.896 -15.3709 -15.9239 -15.4869 -10.5035 -14.5577 -16.1772 -17.7087 -19.2511 -16.779 -13.2243 
-3.17 -1.7565 -3.277 -2.674 -5.1845 -2.5045 -2.985 -4.121 -5.0485 -3.6885 -3.5725 -2.925 -3.465 -1.7695 -4.085 -4.2315 -2.5045 -5.1255 0 
-4.179 -4.25 -5.662001 -9.1385 -8.093 -5.065001 -6.031 -6.243001 -7.966001 -7.743 -6.486 -4.871 -3.665 -5.135 -6.278 -5.5285 -7.204 -5.1255 
-5.4445 -5.806001 -12.2791 -10.3685 -9.673 -7.568501 -7.172501 -8.078001 -12.3883 -10.0645 -8.669001 -5.1955 -6.742 -6.574501 -7.967 -8.528501 -7.204 
-6.6965 -12.4667 -13.5091 -11.9485 -10.149 -7.9125 -9.363001 -12.6587 -14.7098 -12.2475 -8.893001 -8.243 -8.3585 -8.2705 -11.291 -8.528501 
-13.4858 -13.6967 -15.0891 -12.4245 -10.177 -10.213 -14.0177 -14.9802 -16.8928 -12.4715 -12.1259 -9.035501 -10.2755 -11.7609 -11.291 
-3.929 -4.4285 -1.7565 -3.277 -2.674 -5.1845 -2.5045 -2.985 -4.121 -5.0485 -2.925 -5.077 -1.8085 -4.043 -3.9655 -4.832 -4.3705 -4.4525 0 
-8.689501 -4.6405 -4.25 -5.662001 -9.1385 -8.093 -5.065001 -6.031 -6.243001 -7.794 -6.8065 -5.8085 -4.668 -7.8385 -9.366 -7.348001 -7.524 -4.4525 
-8.894501 -6.4275 -5.806001 -12.2791 -10.3685 -9.673 -7.568501 -7.172501 -8.7845 -11.7689 -7.782001 -8.895 -8.439501 -13.7382 -11.9462 -10.426 -7.524 
-10.0345 -7.7505 -12.4667 -13.5091 -11.9485 -10.149 -7.9125 -8.986501 -12.8806 -12.7444 -10.8901 -12.8101 -14.468 -16.3184 -15.0242 -10.426 
-11.3873 -14.583 -13.6967 -15.0891 -12.4245 -10.177 -9.854501 -13.0812 -13.8561 -15.8525 -14.8052 -18.8386 -17.0482 -19.3964 -15.0242 
-2.925 -2.4945 -4.121 -3.6885 -2.186 -5.1845 0 -2.872 -2.925 -2.8645 -3.5205 -4.2655 0 
-3.7675 -7.778501 -7.4265 -5.4995 -8.139501 -5.1845 -2.872 -4.5305 -7.415501 -7.2715 -7.0855 -4.2655 
-8.7445 -11.4754 -8.618001 -9.4165 -8.139501 -8.627001 -4.5305 -9.1225 -12.0009 -11.2579 -7.0855 
-12.7036 -12.6669 -12.919 -9.4165 -9.925501 -10.4505 -9.1225 -13.9011 -15.9873 -11.2579 
-13.8951 -16.9679 -12.919 -11.3469 -11.7864 -15.0425 -13.9011 -17.8875 -15.9873 
