-4.759 
n/a 
n/a 
n/a 
n/a 
-4.759 
n/a 
n/a 
n/a 
n/a 
-4.759 
n/a 
n/a 
n/a 
n/a 
-4.759 
n/a 
n/a 
n/a 
n/a 
-1.934 -4.989 -4.866 -3.7015 -5.1645 0 
-6.2285 -11.1415 -6.1515 -9.2995 -5.1645 
-12.7938 -12.427 -12.4437 -9.2995 
-14.0793 -18.7192 -12.4437 
-20.3715 -18.7192 
-1.934 -4.989 -4.866 -1.7695 -2.664 -5.1645 0 
-6.2285 -11.1415 -5.5975 -4.185 -9.339001 -5.1645 
-12.7938 -11.873 -9.1625 -11.2606 -9.339001 
-13.5253 -15.438 -16.4575 -11.2606 
-17.0903 -22.733 -16.4575 
-4.088 -5.1645 -5.9545 -1.934 -1.4985 -3.158 -4.989 0 
-8.739 -9.371 -7.2755 -2.6125 -4.178 -7.759501 -4.989 
-9.39 -10.173 -7.913 -5.265 -8.443501 -7.759501 
-10.182 -10.6175 -10.8009 -8.928 -8.443501 
-10.618 -14.05 -14.4639 -8.928 
-4.2995 -3.7015 -5.1645 -3.9535 -1.934 -4.989 
-6.8725 -9.2995 -10.013 -5.3325 -6.2285 
-13.0217 -14.326 -11.392 -8.683001 
-18.0482 -15.705 -14.7425 
-19.4272 -19.0555 
