-4.759 
n/a 
n/a 
n/a 
n/a 
-4.759 
n/a 
n/a 
n/a 
n/a 
-4.759 
n/a 
n/a 
n/a 
n/a 
-4.759 
n/a 
n/a 
n/a 
n/a 
-3.034 -4.2725 -3.7905 -3.704 0 -3.433 -1.7565 -5.004 0 0 -1.4985 -3.995 -4.587 -3.704 0 -4.086 0 
-8.212001 -7.7055 -7.508 -3.704 -3.433 -4.1845 -6.1495 -5.004 0 -1.4985 -4.712 -7.834001 -7.131001 -3.704 -4.086 -4.086 
-10.058 -9.0105 -7.508 -7.449 -4.1845 -8.4275 -6.1495 -5.004 -1.4985 -4.712 -8.057001 -10.204 -7.131001 -5.9795 -4.086 
-11.6438 -9.0105 -9.986501 -8.205 -8.4275 -8.4275 -6.1495 -6.783 -4.712 -8.057001 -10.2225 -10.204 -10.435 -5.9795 
-11.6438 -11.9336 -10.401 -12.5992 -8.4275 -8.4275 -7.666 -10.1185 -8.057001 -10.2225 -10.2225 -13.934 -10.435 
-5.3295 -10.827 -3.6385 -9.985001 
-16.7409 -14.8673 -11.117 
-20.7812 -22.3458 
-28.2597 
n/a 
-5.3295 -10.827 -3.6385 -9.985001 
-16.7409 -14.8673 -11.117 
-20.7812 -22.3458 
-28.2597 
n/a 
-3.034 -4.208 -3.704 -2.3335 -4.489 -3.074 -4.255 
-7.426001 -7.780001 -7.04 -7.18 -7.7155 -9.2725 
-11.5356 -11.7442 -12.1995 -9.889501 -14.222 
-15.4998 -16.9037 -14.909 -16.5228 
-20.6593 -19.6132 -21.5423 
