-4.759 
n/a 
n/a 
n/a 
n/a 
-4.759 
n/a 
n/a 
n/a 
n/a 
-4.759 
n/a 
n/a 
n/a 
n/a 
-4.759 
n/a 
n/a 
n/a 
n/a 
-4.8625 -5.4075 -3.898 -2.186 -5.716 
-11.3598 -8.0745 -5.717 -7.099501 
-14.0268 -9.604501 -9.243001 
-15.5568 -13.2387 
-19.191 
-4.1865 -5.4075 -4.019 -2.186 -2.6165 -4.7255 
-10.4425 -8.918 -5.8195 -3.5105 -6.759001 
-13.953 -11.1591 -7.111 -7.1125 
-16.1941 -12.4506 -8.827001 
-17.4856 -14.1666 
-3.1495 -3.013 -5.651501 -6.4 -2.0935 -3.8735 -2.229 -4.351 0 
-6.43 -8.529501 -11.127 -8.93 -6.1265 -5.3655 -6.9425 -4.351 
-11.3075 -14.2701 -14.035 -13.072 -6.996 -10.2485 -6.9425 
-17.3155 -17.1719 -18.177 -13.9415 -12.2524 -10.2485 
-20.5253 -21.3139 -19.0465 -19.1979 -12.2524 
-4.351 -1.7565 -3.8735 -2.186 -6.9 -4.386 
-5.6075 -5.112 -5.949 -8.2405 -7.762 
-9.417001 -7.035501 -12.5173 -8.5015 
-11.7481 -13.6978 -12.7783 
-18.4104 -13.9588 
