-4.759 
n/a 
n/a 
n/a 
n/a 
-4.759 
n/a 
n/a 
n/a 
n/a 
-4.759 
n/a 
n/a 
n/a 
n/a 
-4.759 
n/a 
n/a 
n/a 
n/a 
-3.616 -4.891 -4.299 -2.264 -8.663 -6.3165 
-8.17 -8.580501 -5.322001 -11.959 -15.7163 
-12.2009 -9.972501 -15.5814 -19.0123 
-13.5929 -20.8021 -22.6347 
-24.4225 -27.8554 
-8.663 -3.599 -3.9665 -4.0465 -2.7415 -5.198 -2.3345 -3.616 -4.891 -2.1715 
-12.6448 -4.743 -7.1835 -6.332 -6.292 -5.898001 -6.019 -8.17 -7.034 
-13.7888 -7.1945 -9.3255 -8.9875 -6.675 -8.964001 -11.2904 -10.647 
-16.2403 -9.326501 -12.1494 -9.377001 -9.786501 -14.404 -13.7674 
-18.3723 -12.1512 -12.5389 -12.5363 -15.3547 -16.881 
-4.299 -2.264 -8.903001 -6.3565 -3.918 -2.3345 -3.616 -7.0625 
-5.322001 -11.0145 -15.4645 -7.448 -6.410501 -6.019 -10.313 
-14.6369 -17.576 -16.556 -10.382 -10.4425 -13.7674 
-21.1984 -18.6675 -19.49 -14.414 -18.4855 
-22.2899 -21.6015 -23.522 -22.457 
-6.144 -3.599 -3.9665 -4.299 -2.264 -8.903001 -4.145 
-8.8675 -4.743 -7.1645 -5.322001 -11.0145 -10.575 
-10.048 -8.6505 -8.286 -14.6369 -12.6865 
-13.9555 -9.265 -18.0161 -16.3089 
-14.57 -19.2001 -19.6881 
