-4.759 
n/a 
n/a 
n/a 
n/a 
-4.759 
n/a 
n/a 
n/a 
n/a 
-4.759 
n/a 
n/a 
n/a 
n/a 
-4.759 
n/a 
n/a 
n/a 
n/a 
-4.248 -2.6165 -5.844 -3.941 -3.0465 0 -3.5435 -3.367 -4.64 -1.934 -3.3635 -3.909 -1.7695 -4.5075 -3.8475 -5.036 -3.4625 -4.9285 -3.17 0 
-6.8755 -6.401 -10.958 -7.8785 -3.0465 -3.5435 -8.213 -8.505501 -6.486001 -4.921 -7.8535 -6.209001 -6.502501 -8.6325 -8.1055 -8.4835 -8.909 -8.592 -3.17 
-11.5854 -11.734 -14.8955 -7.8785 -7.114501 -8.213 -13.6799 -11.3311 -9.171 -9.698501 -10.9695 -10.494 -10.9637 -12.6887 -11.2095 -13.3258 -13.2251 -8.592 
-16.9184 -15.6715 -14.8955 -12.4101 -12.7822 -13.6799 -16.5055 -14.0161 -14.0025 -12.6311 -15.2545 -15.887 -15.0199 -16.4245 -17.5342 -17.9305 -13.2251 
-20.8559 -15.6715 -19.4271 -18.0778 -18.2491 -16.5055 -19.1905 -18.8476 -16.9351 -16.9161 -20.6475 -19.9432 -18.7557 -22.4704 -21.8503 -17.9305 
-5.254 -1.4985 -9.163 -1.756 -4.015 -5.078 -2.4265 -5.2625 0 -3.9345 -1.7695 -3.5435 -2.229 -2.915 -4.1445 -2.229 -3.3635 -3.277 0 -3.0365 -2.186 -3.6055 -4.2055 -1.7565 -1.4985 -2.985 -3.2785 -4.5045 -1.8085 -3.6885 -1.756 -8.1985 -4.5675 
-5.7355 -10.841 -11.2072 -5.501 -8.909 -7.0855 -7.038 -5.2625 -3.9345 -3.94 -5.561501 -4.973001 -5.55 -5.922 -5.717 -6.06 -6.516 -3.277 -3.0365 -3.66 -6.0665 -6.508 -4.859 -2.4195 -4.1115 -4.88 -9.057 -5.0395 -4.3555 -5.283 -9.094501 -13.1475 
-15.8996 -12.8852 -14.9522 -10.9198 -11.2915 -10.264 -7.038 -9.543501 -3.94 -7.017 -7.2465 -7.7675 -8.4895 -8.231001 -10.0605 -8.1875 -6.516 -6.571 -3.66 -6.850501 -7.8595 -7.6815 -6.8255 -5.0205 -5.686501 -9.6085 -9.712501 -8.261001 -6.1595 -10.9635 -14.6316 
-17.9438 -16.6302 -20.371 -13.3023 -14.47 -10.264 -11.9326 -9.5535 -7.017 -9.2535 -10.476 -11.3724 -10.2285 -12.8805 -10.4475 -8.1875 -9.572001 -7.1515 -6.850501 -7.8665 -8.835501 -9.5185 -9.83 -6.5395 -9.722501 -10.2345 -13.0228 -9.634501 -12.4796 -17.9146 
-21.6888 -22.049 -22.7535 -16.4808 -14.47 -15.4728 -11.9426 -12.7125 -9.2535 -12.564 -14.0809 -13.1114 -15.087 -13.2675 -10.4475 -10.7335 -10.144 -10.0605 -7.8665 -8.84 -9.889501 -12.5302 -11.1934 -11.1413 -10.4875 -13.6544 -14.3963 -16.1606 -18.6953 
-3.074 -3.7875 -4.6805 -3.941 0 -2.5045 -3.543 -3.5435 -3.127 -4.64 -3.644 -2.3335 -3.0365 -2.4945 -4.2055 -1.7695 -3.4625 -1.934 -5.124 -2.742 -3.0465 -4.4755 -3.8475 0 
-6.3405 -8.888 -8.954 -3.941 -2.5045 -5.323 -7.922 -6.4145 -8.544001 -7.597501 -4.989501 -4.2925 -3.688 -8.337501 -4.621 -4.3 -4.565 -6.676 -8.4635 -4.8155 -7.941501 -9.859 -3.8475 
-11.7014 -13.2927 -8.954 -6.383 -5.323 -8.1885 -10.3605 -12.7001 -11.6487 -8.963 -6.695001 -4.9395 -9.052001 -9.414001 -7.085001 -6.2035 -9.9694 -10.4265 -10.6896 -9.2235 -13.799 -9.859 
-16.1061 -13.2927 -10.587 -9.301001 -8.1885 -10.411 -16.6461 -15.8048 -13.0142 -10.5035 -7.286001 -10.6875 -10.419 -11.9556 -9.8485 -12.0807 -13.7199 -12.6526 -15.0976 -15.28 -13.799 
-16.1061 -14.9257 -13.505 -12.3105 -10.411 -16.6966 -19.7508 -17.1703 -14.5547 -11.2165 -13.192 -12.0545 -12.9606 -14.7191 -15.7167 -15.8312 -15.946 -17.0606 -21.1541 -15.28 
-4.957 -3.046 -1.756 -3.5435 -2.229 -4.1 -3.3635 -2.742 -3.5185 -6.556 -4.6985 -2.0935 -1.4985 -4.598 -2.7835 -4.4695 -2.5045 -2.985 -3.8225 -4.4475 0 
-8.138 -4.7 -5.099 -4.973001 -6.1495 -8.067501 -6.739 -5.4405 -9.5825 -7.92 -6.3825 -2.9725 -5.8625 -7.3275 -8.47 -7.065001 -5.065001 -6.304 -6.9455 -4.4475 
-9.355 -9.205501 -7.627 -8.657001 -10.0225 -11.877 -9.75 -11.9721 -10.0665 -8.745501 -7.2405 -7.1295 -9.0845 -13.378 -11.3555 -8.171 -7.979501 -8.831501 -6.9455 
-14.3359 -12.0397 -11.5706 -12.7516 -13.832 -14.888 -16.2836 -12.4561 -10.419 -9.4615 -11.7387 -9.7995 -15.4438 -16.2635 -12.4615 -8.948501 -9.039001 -8.831501 
-17.1701 -15.9833 -15.6652 -16.5611 -16.843 -21.4216 -16.7676 -12.8086 -11.135 -13.9597 -14.4087 -16.8562 -18.3293 -17.3695 -13.239 -9.075001 -9.039001 
