-4.759 
n/a 
n/a 
n/a 
n/a 
-4.759 
n/a 
n/a 
n/a 
n/a 
-4.759 
n/a 
n/a 
n/a 
n/a 
-4.759 
n/a 
n/a 
n/a 
n/a 
-9.784 -12.16972 
-22.06952 
n/a 
n/a 
n/a 
-10.0295 -12.16972 
-22.46202 
n/a 
n/a 
n/a 
-10.0295 -9.6995 
-19.9918 
n/a 
n/a 
n/a 
-10.0295 -9.6995 0 -3.098 -1.7565 -1.4985 -3.452 0 0 -4.9005 -5.076 0 
-19.9918 -9.6995 -3.098 -4.3615 -2.4195 -4.4485 -3.452 0 -4.9005 -11.1415 -5.076 
-19.9918 -13.2765 -4.3615 -4.731 -5.267 -4.4485 -3.452 -4.9005 -11.1415 -11.1415 
-23.5688 -14.54 -4.731 -7.4465 -5.267 -4.4485 -9.047501 -11.1415 -11.1415 
-24.8323 -14.9095 -7.4465 -7.4465 -5.267 -9.896501 -15.8023 -11.1415 
