-4.759 
n/a 
n/a 
n/a 
n/a 
-4.759 
n/a 
n/a 
n/a 
n/a 
-4.759 
n/a 
n/a 
n/a 
n/a 
-4.759 
n/a 
n/a 
n/a 
n/a 
-3.1435 -2.882 -2.489 -5.415 -8.128 -2.5195 -2.3615 -4.8 -2.674 -3.486 -2.95 -3.8405 -1.7695 -5.25 -1.756 -3.486 -3.976 -3.115 -8.795 -2.674 -3.6885 -3.4905 -3.7075 -1.756 -2.4265 -3.4405 -2.6165 -2.674 -4.541 -3.319 -8.507501 -2.3615 -3.824 -2.4945 -4.079 -2.0935 -3.326 -3.098 
-7.005 -3.631 -6.4065 -14.282 -11.243 -4.4095 -7.9785 -7.8135 -6.629 -4.563 -5.133 -5.658 -6.051001 -6.8125 -6.2845 -6.662 -7.5745 -10.509 -10.285 -6.2125 -5.939 -8.236 -5.318 -3.949 -4.5365 -3.7415 -4.2165 -7.837 -7.954 -12.7355 -11.08 -6.877501 -5.6875 -5.7875 -5.1445 -5.0985 -6.9705 
-8.533501 -7.3155 -15.9057 -17.6983 -13.7113 -9.654 -11.399 -11.9849 -9.467501 -6.458 -6.8115 -10.181 -7.4405 -12.1968 -9.324 -9.462 -13.9236 -13.1274 -14.8583 -9.1255 -10.459 -9.92 -7.6195 -5.9215 -4.8645 -4.926001 -9.0845 -11.647 -17.6061 -15.308 -15.596 -9.219 -8.814 -6.3595 -6.74 -8.178 
-12.5466 -16.9763 -19.322 -19.5208 -19.263 -13.6851 -15.5704 -14.8234 -11.4091 -8.363 -11.7869 -11.8191 -13.0568 -15.2363 -12.1544 -16.0273 -18.2317 -17.3585 -17.7713 -13.7413 -12.143 -12.4793 -9.498 -6.263 -6.1405 -9.6525 -13.0901 -21.2991 -20.1786 -19.824 -17.9375 -12.5155 -9.264 -8.975 -11.2317 
-22.2074 -20.3926 -21.1445 -25.0725 -23.2941 -17.8565 -18.4089 -16.765 -13.3141 -13.6 -13.425 -17.4354 -16.0963 -18.0667 -18.7197 -20.3354 -21.9866 -20.2715 -22.3871 -15.4253 -14.7023 -14.3578 -9.660501 -7.4765 -11.1484 -13.7845 -22.7422 -23.8716 -24.6946 -22.1655 -21.234 -12.9655 -12.1331 -12.4927 
-1.8085 -3.7375 -4.674 -5.3955 -2.4945 -3.88 -4.544 0 -4.764 -4.335 -1.7565 -5.165 -5.3955 -1.756 -4.3645 -5.2805 -5.1795 -1.4985 -3.995 -2.5045 -3.7345 -5.22 -1.8085 -3.7375 -3.7345 -5.3115 -2.674 -3.1125 -4.3725 -3.222 -5.1795 -3.6215 -2.8965 -4.603 -1.756 -3.7905 -4.839 -5.3955 -1.7695 -1.4985 -4.4515 0 -5.26 0 -4.8 0 -5.301 -1.756 -5.117 0 
-3.8995 -5.903 -9.603001 -6.910501 -4.616 -6.8385 -4.544 -4.764 -8.764 -4.436 -6.407001 -10.2755 -6.445 -5.7545 -9.596001 -10.5975 -6.601 -4.712 -6.1995 -6.527 -7.0385 -7.5895 -3.8995 -8.347 -7.2885 -7.582 -3.6315 -5.851501 -6.008 -6.577001 -6.7435 -6.7965 -6.41 -5.668 -5.3495 -8.6145 -7.245501 -6.761 -2.7955 -5.0235 -4.4515 -5.26 -5.26 -4.8 -4.8 -5.301 -6.675 -6.8195 -5.117 
-5.946 -10.5035 -10.69 -8.922001 -8.286 -6.8385 -9.569 -8.764 -8.8155 -8.789001 -12.1117 -10.7665 -8.498501 -10.749 -15.0968 -10.7765 -7.531 -6.650001 -10.0675 -9.247 -9.0515 -9.319 -8.570001 -10.4765 -8.649 -8.096001 -6.362 -7.43 -8.3695 -7.754001 -9.187 -9.6085 -7.674 -8.939501 -10.341 -10.66 -9.351 -8.102 -5.902 -5.0235 -7.596001 -5.26 -7.228 -4.8 -7.088 -6.675 -7.2865 -6.8195 
-10.5125 -10.7755 -12.7015 -10.5035 -8.286 -10.757 -13.6002 -8.8155 -13.2781 -14.8521 -12.6027 -12.82 -14.0476 -16.2498 -15.2758 -11.7065 -9.442 -10.396 -10.755 -11.4304 -10.7335 -14.0185 -10.5325 -10.7645 -9.710501 -10.111 -7.8295 -9.696 -9.540501 -10.6095 -10.4435 -10.751 -10.733 -13.91 -12.3865 -12.7655 -10.244 -9.715 -5.902 -8.1125 -7.596001 -7.228 -7.228 -7.088 -8.023001 -7.2865 -7.2865 
-10.775 -12.787 -14.283 -10.5035 -10.7575 -14.7882 -13.6517 -13.2781 -19.3412 -15.3431 -14.6562 -18.3691 -19.5484 -16.4288 -16.2058 -13.6175 -10.7345 -10.77 -12.9384 -13.1124 -15.433 -15.981 -10.8205 -11.826 -11.8803 -11.6129 -10.208 -10.6625 -12.6462 -11.866 -11.586 -13.81 -15.7035 -15.9555 -14.492 -13.6585 -10.6435 -9.715 -9.486501 -8.1125 -8.614501 -7.228 -7.6775 -8.023001 -8.1405 -7.2865 
-3.5725 -3.1435 -5.0665 0 -3.937 -3.326 -2.264 -4.8 -2.9705 -2.186 -3.8825 -1.7695 -3.995 -1.934 -3.3715 -4.029 -2.8645 -3.6135 -4.4515 -2.742 -3.6845 -1.8085 -3.969 -2.0935 -2.3615 0 
-7.145 -7.113 -5.0665 -3.937 -6.308001 -5.025001 -5.8685 -7.641 -3.89 -5.2765 -4.5575 -5.497 -5.975 -4.622 -5.29 -7.354501 -6.515 -7.9945 -6.9925 -4.8705 -4.7885 -5.074 -5.008 -3.854 -2.3615 
-11.5527 -7.113 -9.923 -6.308001 -6.9635 -9.205501 -8.321 -8.349 -6.545001 -5.3695 -7.9725 -7.057 -8.504001 -5.569 -8.0585 -11.2266 -11.5344 -10.8593 -9.1435 -6.1245 -7.9545 -6.074 -6.561 -3.854 
-11.5527 -10.674 -12.7174 -6.9635 -10.564 -11.7668 -9.102 -11.16 -6.608 -8.9645 -9.087001 -9.623001 -8.901501 -8.115001 -12.1452 -16.246 -14.3992 -13.0103 -10.2755 -9.3415 -8.823501 -7.0285 -6.561 
-15.1137 -14.6496 -13.3729 -10.564 -13.1253 -12.5478 -11.9818 -11.223 -10.3155 -9.726501 -9.9665 -9.837501 -11.6797 -12.2361 -17.1646 -19.1108 -16.5502 -14.1423 -13.4925 -10.2545 -9.415001 -7.0285 
-3.7015 -9.563001 -2.7295 -2.7765 -3.335 -3.135 -4.8635 -3.7075 
-14.2545 -12.7389 -4.065 -5.675 -5.943501 -9.5045 -7.745501 
-17.4304 -14.0744 -6.536 -7.856 -12.866 -12.4877 
-18.7659 -16.5454 -8.866501 -14.8505 -15.8492 
-21.2369 -18.8759 -16.0162 -17.8337 
