-4.759 
n/a 
n/a 
n/a 
n/a 
-4.759 
n/a 
n/a 
n/a 
n/a 
-4.759 
n/a 
n/a 
n/a 
n/a 
-4.759 
n/a 
n/a 
n/a 
n/a 
-3.5855 -2.186 -1.8085 -3.6645 -1.7565 -3.9745 -2.356 -2.8705 -6.3735 -1.7695 -4.0585 0 -3.043 0 -3.034 -2.9325 0 -3.043 -2.4265 -3.7455 0 -2.7835 -4.8465 -2.742 -3.0465 -1.4985 -3.9105 
-5.7365 -3.164 -4.9825 -4.613 -5.221 -6.443501 -4.4285 -8.442 -8.132 -4.6165 -4.0585 -3.043 -3.043 -3.034 -6.504001 -2.9325 -3.043 -4.6235 -6.874001 -3.7455 -2.7835 -8.442 -7.841001 -4.8155 -4.046 -4.757 
-6.719501 -6.614 -5.424 -7.7135 -7.2745 -8.38 -9.764 -10.3675 -9.358001 -4.6165 -5.2805 -3.043 -6.3415 -6.504001 -6.504001 -6.5055 -4.6235 -9.684501 -6.874001 -6.0525 -8.442 -10.5035 -10.4963 -5.854 -6.7845 
-9.234501 -6.9685 -9.0465 -9.747001 -9.1885 -13.9841 -11.7827 -11.8265 -9.358001 -5.7665 -5.2805 -6.3415 -8.3195 -6.504001 -8.588 -8.5845 -9.684501 -9.684501 -9.4655 -11.9732 -10.5035 -13.1588 -11.5348 -8.287001 
-9.307501 -10.138 -11.179 -11.7856 -14.8782 -16.0028 -13.2417 -11.8265 -10.362 -5.7665 -8.502501 -8.3195 -8.3195 -8.588 -10.8922 -13.7097 -9.684501 -12.387 -15.5132 -14.0347 -13.1588 -14.1973 -13.9678 
-3.5855 -2.186 -3.17 -10.337 -1.7695 -5.3075 -2.8965 -3.681 
-5.7365 -5.1385 -15.02 -12.2601 -8.76 -8.8015 -5.023 
-8.910501 -17.7599 -16.9431 -19.2506 -12.2152 -10.209 
-21.5433 -19.683 -23.9336 -22.7058 -13.6227 
-23.4664 -26.6735 -27.3888 -24.1133 
-3.5855 -2.186 -4.025 -2.872 -1.4985 -3.9005 -1.7565 -4.0335 
-5.7365 -5.0765 -5.2105 -4.035 -4.797 -6.763 -5.1275 
-8.086 -6.1615 -6.11 -6.8455 -7.573501 -10.5362 
-8.7685 -7.2085 -9.4315 -10 -11.5083 
-9.816 -10.553 -12.6406 -13.9348 
-3.5855 -2.186 -1.7695 -3.3785 -2.7455 -3.043 -1.756 -2.9325 -2.186 -4.683 -1.934 -2.9705 -4.703 -3.1435 -8.434501 -3.914 -2.5195 -1.4985 -3.9745 -1.756 -2.356 -2.8705 -3.914 -1.7695 -5.4365 -3.043 -3.1435 -2.5685 -4.4995 0 
-5.7365 -3.8745 -4.1685 -4.6985 -4.6075 -5.4575 -4.4385 -3.8335 -5.344 -5.473 -4.051 -8.291 -8.1595 -12.22 -13.4515 -6.185 -3.1695 -4.7475 -5.1055 -4.553 -4.4285 -5.6835 -5.556 -5.942 -7.3585 -6.2885 -5.808001 -7.1205 -4.4995 
-7.4535 -6.3425 -5.138 -6.776 -6.9355 -6.758 -5.544 -5.6035 -6.028 -8.9785 -9.635501 -11.9879 -17.69 -17.4018 -14.8608 -6.7755 -6.851 -5.687 -7.812 -6.547 -7.6 -7.465 -8.837001 -7.7235 -10.1305 -8.5105 -11.2208 -7.1205 
-9.6265 -6.837501 -7.193 -8.628 -8.205501 -8.297501 -7.338 -6.22 -9.8915 -14.6484 -13.374 -21.5184 -22.5778 -18.4163 -15.5598 -10.3955 -8.1475 -9.8155 -9.571 -9.265 -9.794001 -11.1442 -10.8461 -10.5125 -12.3525 -14.1373 -11.2208 
-10.2171 -8.837001 -9.307501 -10.1545 -9.9855 -10.434 -7.846 -10.5225 -15.7648 -18.3869 -22.9045 -26.4062 -23.5923 -19.1153 -19.323 -11.7028 -12.4734 -11.7211 -12.4836 -11.6268 -13.5778 -13.1533 -13.6351 -12.7345 -17.9793 -14.1373 
