-4.759 
n/a 
n/a 
n/a 
n/a 
-4.759 
n/a 
n/a 
n/a 
n/a 
-4.759 
n/a 
n/a 
n/a 
n/a 
-4.759 
n/a 
n/a 
n/a 
n/a 
-2.872 0 -1.934 -5.8135 0 -10.7895 -3.8275 -6.6115 -1.7565 -12.16972 -12.16972 -5.2725 -1.4985 -5.6655 -1.7565 -7.6 -1.756 -1.4985 -3.8195 -5.1605 -2.3345 -7.6 -2.4945 -3.7855 -1.7695 -9.8175 -1.7695 -4.1 0 
-2.872 -1.934 -7.762 -5.8135 -10.7895 -14.617 -11.545 -7.0725 -14.87542 -24.33944 -17.44222 -6.1685 -6.495501 -6.4855 -8.364 -9.114 -3.0405 -5.146501 -9.0395 -6.162 -10.028 -10.647 -5.125 -4.793 -12.5692 -11.7148 -5.4985 -4.1 
-4.659 -7.762 -7.762 -17.1736 -14.617 -22.3345 -12.006 -21.39322 -27.04514 -29.61194 -18.33822 -10.275 -6.8745 -10.389 -9.4865 -9.6925 -6.92 -9.727501 -9.110001 -14.6681 -13.075 -13.2775 -6.3155 -15.9725 -14.4665 -15.4438 -5.4985 
-10.218 -7.762 -19.4203 -21.0011 -22.3345 -22.7955 -26.32672 -33.56294 -32.31764 -30.50794 -22.44472 -10.3435 -10.9548 -11.5115 -9.827001 -13.8458 -11.5282 -9.764501 -17.5809 -17.7151 -15.7055 -14.468 -17.7958 -17.8698 -18.1955 -15.4438 
-10.218 -19.4203 -23.2478 -28.7186 -22.7955 -37.11622 -38.49644 -38.83544 -33.21364 -34.61444 -22.51322 -14.4238 -12.0773 -11.852 -14.1455 -18.454 -11.5652 -18.3212 -20.6279 -20.3456 -16.896 -25.9483 -19.6931 -21.5988 -18.1955 
-3.6705 0 -3.5455 -1.4985 -5.8135 -9.1615 0 -4.3685 0 -6.6115 -5.2115 -1.7695 -9.651 -3.873 -6.491 -7.6 -4.6825 -1.756 -3.8195 -4.0225 -3.325 -2.4265 -3.152 -4.386 -3.9225 -10.128 0 
-3.6705 -3.5455 -3.91 -8.9235 -15.5456 -9.1615 -4.3685 -4.3685 -6.6115 -12.7308 -5.282 -12.4027 -13.8858 -10.884 -14.8738 -8.493501 -6.147 -5.915 -8.2795 -6.703 -6.117 -5.253 -6.2805 -6.443501 -15.2803 -10.128 
-6.522501 -3.91 -12.2556 -18.736 -15.5456 -10.8625 -4.3685 -12.1052 -12.7308 -12.8013 -16.612 -16.6375 -20.8968 -19.2668 -15.7673 -9.798 -11.0428 -10.259 -9.271 -9.7705 -8.536 -8.875501 -7.713 -18.1541 -15.2803 
-6.797501 -12.2556 -22.0681 -18.736 -17.2466 -10.8625 -12.1052 -18.2245 -12.8013 -24.1313 -20.8468 -23.6485 -29.2796 -20.1603 -17.0718 -14.7332 -15.3868 -11.4877 -12.5185 -12.1895 -12.3131 -10.4345 -19.5292 -18.1541 
-15.3439 -22.0681 -22.0681 -20.437 -17.2466 -18.5992 -18.2245 -18.295 -24.1313 -28.3661 -27.8578 -32.0313 -30.1731 -21.4648 -22.007 -19.0772 -16.6155 -14.7352 -14.9375 -15.9666 -13.8721 -22.2693 -19.5292 
-1.4985 -3.8275 -2.356 -8.6415 -1.756 -9.761001 0 -2.5045 -5.8135 0 
-4.726 -5.674 -11.9083 -10.051 -12.5256 -9.761001 -2.5045 -8.679501 -5.8135 
-6.6115 -16.0047 -13.3178 -21.0164 -12.5256 -12.6893 -8.679501 -8.679501 
-17.1908 -17.4142 -24.2832 -21.0164 -15.4539 -18.8643 -8.679501 
-18.6003 -28.3796 -24.2832 -23.9447 -21.6289 -18.8643 
-2.872 -3.5455 -1.4985 -3.158 -5.8135 0 -1.934 -1.4985 -4.3685 -1.7565 -9.1615 -6.6115 -2.5195 -6.226 -5.481 -5.2725 -7.7545 -5.6655 -1.756 -2.985 -4.418 -3.152 -4.7925 -3.9225 -1.756 -1.7695 -1.4985 -10.128 0 
-6.297501 -3.91 -4.178 -8.994 -5.8135 -1.934 -2.6125 -5.106 -5.0855 -9.329 -16.0884 -8.98 -8.955501 -7.9905 -11.5465 -11.1165 -9.6385 -6.7545 -4.2025 -7.0015 -6.7815 -6.3265 -6.6195 -6.9275 -3.963 -2.7955 -10.396 -10.128 
-6.6165 -5.429 -9.1285 -8.994 -8.257501 -2.6125 -6.0625 -5.569 -9.3435 -16.3177 -18.4569 -15.6966 -10.6674 -14.434 -17.3905 -13.0005 -10.7521 -8.082001 -8.3035 -9.5455 -9.282001 -7.927001 -9.118 -9.202001 -5.0505 -11.9282 -10.396 
-8.831 -10.9107 -9.1285 -10.6345 -9.159 -6.0625 -6.5045 -9.637 -16.336 -18.6862 -25.1735 -17.4085 -17.1109 -20.278 -19.2745 -14.1141 -12.0796 -12.4478 -10.6465 -12.046 -10.9145 -10.759 -11.7393 -10.032 -14.526 -11.9282 
-14.5141 -10.9107 -10.703 -11.536 -12.7816 -6.5045 -10.1185 -16.7055 -18.7045 -25.4028 -26.8854 -23.852 -22.9549 -22.162 -20.3881 -15.4416 -16.4454 -14.7908 -13.147 -13.6785 -13.7465 -13.3803 -12.5693 -19.6219 -14.526 
