-4.759 
n/a 
n/a 
n/a 
n/a 
-4.759 
n/a 
n/a 
n/a 
n/a 
-4.759 
n/a 
n/a 
n/a 
n/a 
-4.759 
n/a 
n/a 
n/a 
n/a 
-5.1845 -3.5025 -3.452 -1.756 -5.1845 -3.5025 -3.594 
-8.614 -7.218 -5.1485 -7.0085 -8.614 -7.115 
-13.1093 -9.167 -11.382 -10.213 -13.0063 
-15.0583 -15.7397 -14.5865 -14.6053 
-21.631 -18.9442 -18.9788 
-5.1845 -3.473 -3.594 -5.1845 -3.473 -3.594 
-10.27 -7.595 -7.2625 -10.27 -7.595 
-14.392 -11.8855 -14.165 -14.392 
-18.6825 -18.788 -18.287 
-25.585 -22.91 
-5.1845 -7.408 -3.618 -5.1845 -7.408 -3.618 
-13.8869 -10.862 -9.652 -13.8869 -10.862 
-17.3409 -16.896 -18.4762 -17.3409 
-23.3749 -25.7202 -21.9302 
-32.1991 -29.1742 
-5.1845 -3.1065 -3.618 -5.1845 -3.1065 -3.618 
-8.406 -5.9115 -9.652 -8.406 -5.9115 
-12.0554 -12.5765 -12.9953 -12.0554 
-18.7204 -15.9198 -16.6447 
-22.0637 -19.5692 
