-4.759 
n/a 
n/a 
n/a 
n/a 
-4.759 
n/a 
n/a 
n/a 
n/a 
-4.759 
n/a 
n/a 
n/a 
n/a 
-4.759 
n/a 
n/a 
n/a 
n/a 
-4.4245 0 -7.247 -12.16972 0 -5.7865 0 0 -5.506 -1.934 -5.1645 -2.5045 -8.455001 -3.9485 -2.356 -5.8775 -5.87 
-4.4245 -7.247 -20.14492 -12.16972 -5.7865 -5.7865 0 -5.506 -7.632 -6.5525 -7.98 -11.8769 -12.7897 -4.311 -7.993501 -7.0805 
-11.046 -20.14492 -20.14492 -17.95622 -5.7865 -5.7865 -5.506 -7.632 -10.3095 -8.627501 -17.713 -16.2116 -13.1522 -9.922501 -9.0305 
-23.94392 -20.14492 -25.93142 -17.95622 -5.7865 -9.303501 -7.632 -10.3095 -12.3845 -18.3409 -22.0477 -16.5741 -18.7637 -10.6775 
-23.94392 -25.93142 -25.93142 -17.95622 -9.303501 -11.7029 -10.3095 -12.3845 -22.0979 -22.6756 -22.4102 -22.1856 -19.5187 
-4.4245 0 -10.7715 -12.16972 0 -5.7865 0 0 -5.1645 -5.506 -7.304501 -5.8775 -8.1815 
-4.4245 -10.7715 -23.18662 -12.16972 -5.7865 -5.7865 0 -5.1645 -8.408001 -13.8663 -14.3036 -10.2335 
-15.5634 -23.18662 -23.18662 -17.95622 -5.7865 -5.7865 -5.1645 -8.408001 -17.5433 -20.8654 -18.6596 
-27.97852 -23.18662 -28.97312 -17.95622 -5.7865 -8.167001 -8.408001 -17.5433 -24.5424 -25.2214 
-27.97852 -28.97312 -28.97312 -17.95622 -8.167001 -11.9817 -17.5433 -24.5424 -28.8984 
-4.4245 0 -7.247 -8.363001 0 -5.7865 0 -2.4265 -2.186 -4.7455 -2.0935 -5.1645 0 -7.304501 -5.8775 -5.87 
-4.4245 -7.247 -8.401501 -8.363001 -5.7865 -5.7865 -2.4265 -3.292 -8.1905 -6.7025 -7.549 -5.1645 -7.304501 -14.3036 -7.0805 
-11.046 -8.401501 -8.401501 -10.985 -5.7865 -9.129001 -3.292 -9.693001 -10.061 -13.1892 -7.549 -13.5654 -14.3036 -15.5066 
-12.2005 -8.401501 -11.4149 -10.985 -9.129001 -9.535001 -9.693001 -11.6191 -16.6805 -13.1892 -16.4869 -20.5645 -15.5066 
-12.2005 -11.4149 -11.4149 -14.3275 -9.535001 -16.0662 -11.6191 -18.2386 -16.6805 -22.1271 -23.486 -21.7675 
-4.4245 0 -7.247 -8.363001 0 -5.7865 0 0 -2.4265 -8.734 -1.934 -5.1645 -2.356 -7.304501 -5.8775 -7.9855 
-4.4245 -7.247 -8.401501 -8.363001 -5.7865 -5.7865 0 -2.4265 -12.3569 -10.228 -6.5525 -8.0495 -9.986501 -14.3036 -14.6292 
-11.046 -8.401501 -8.401501 -10.985 -5.7865 -5.7865 -2.4265 -12.3569 -13.8509 -14.8465 -8.426001 -16.0726 -17.5164 -23.0553 
-12.2005 -8.401501 -11.4149 -10.985 -5.7865 -9.129001 -12.3569 -13.8509 -18.4694 -16.72 -16.5481 -23.6025 -26.2681 
-12.2005 -11.4149 -11.4149 -10.985 -9.129001 -19.4274 -13.8509 -18.4694 -20.3429 -24.8421 -24.078 -32.3542 
