-4.759 
n/a 
n/a 
n/a 
n/a 
-4.759 
n/a 
n/a 
n/a 
n/a 
-4.759 
n/a 
n/a 
n/a 
n/a 
-4.759 
n/a 
n/a 
n/a 
n/a 
-1.4985 -3.9355 -3.2775 -2.5045 -8.174001 -1.756 -9.412001 -3.152 -3.074 -1.934 -4.3435 0 
-4.8035 -6.2875 -3.678 -10.958 -10.1305 -12.1766 -13.2908 -5.0635 -4.93 -6.816 -4.3435 
-8.029 -6.315 -12.0877 -12.9145 -20.5511 -16.0554 -15.2023 -6.943 -9.938001 -6.816 
-8.2945 -15.1715 -14.0442 -23.3351 -24.4299 -17.9669 -17.0818 -12.5694 -9.938001 
-17.287 -17.128 -24.4648 -27.2139 -26.3414 -19.8464 -22.7082 -12.5694 
-3.432 -3.8625 0 -1.756 -3.432 -3.3715 -3.9355 -2.9645 -1.7695 -4.0535 -3.3435 0 
-7.451 -3.8625 -1.756 -5.815 -7.5855 -6.386001 -6.956 -4.905 -5.266 -6.292 -3.3435 
-7.451 -5.304 -5.815 -11.0657 -9.969501 -9.3345 -9.4175 -9.434501 -7.555 -6.292 
-8.899 -9.737 -11.0657 -13.4497 -13.8034 -12.27 -14.2458 -12.1345 -7.555 
-14.0548 -15.0195 -13.4497 -17.2836 -16.7389 -17.0983 -16.9458 -12.1345 
-3.16 -3.6595 0 -3.16 -3.545 -3.074 -3.9355 -3.2955 
-7.5425 -3.6595 -3.16 -7.8715 -6.7665 -8.078501 -6.479 
-7.5425 -7.622 -7.8715 -11.589 -12.172 -10.123 
-10.1595 -12.7661 -11.589 -16.9945 -14.2165 
-15.4002 -16.4836 -16.9945 -19.039 
-3.9355 -1.7565 -3.16 -3.5125 0 
-5.244 -5.1555 -6.7915 -3.5125 
-8.822001 -8.8505 -6.7915 
-13.515 -8.8505 
-13.515 
