-4.759 
n/a 
n/a 
n/a 
n/a 
-4.759 
n/a 
n/a 
n/a 
n/a 
-4.759 
n/a 
n/a 
n/a 
n/a 
-4.759 
n/a 
n/a 
n/a 
n/a 
-3.5715 -3.711 -1.7565 -9.061501 -3.6825 0 -7.443 
-7.808001 -5.305 -11.7672 -13.3178 -3.6825 -7.443 
-9.7585 -16.5089 -16.0235 -13.3178 -12.2225 
-21.1792 -20.7652 -16.0235 -21.8578 
-25.4355 -20.7652 -24.5635 
-3.5715 0 -9.061501 -8.995001 -9.554501 
-3.5715 -9.061501 -18.6303 -18.9639 
-14.257 -18.6303 -28.5992 
-23.8258 -28.5992 
-33.7947 
-8.756001 -3.5435 -8.075001 -9.554501 
-14.5295 -13.0455 -18.2347 
-24.2131 -23.2052 
-34.3728 
n/a 
-12.633 -3.6825 -2.229 -7.443 -3.711 
-18.5133 -5.3925 -8.41 -11.855 
-20.2233 -12.5433 -13.5426 
-27.3741 -17.6759 
-32.5067 
