-4.759 
n/a 
n/a 
n/a 
n/a 
-4.759 
n/a 
n/a 
n/a 
n/a 
-4.759 
n/a 
n/a 
n/a 
n/a 
-4.759 
n/a 
n/a 
n/a 
n/a 
-2.3615 -2.186 -1.8085 -5.2035 -5.259 -4.413 -2.95 
-3.5005 -3.164 -7.5965 -11.7085 -10.3475 -6.247 
-4.179 -9.213 -14.8401 -16.797 -12.4235 
-9.9075 -15.9934 -19.9286 -18.873 
-16.8015 -21.0819 -22.0046 
-2.3615 -2.186 -3.013 -5.651501 -4.3285 -2.0935 -5.259 -4.413 -2.95 
-3.5005 -6.109 -8.529501 -9.342501 -5.6165 -7.148 -10.3475 -6.247 
-7.915 -10.738 -13.1015 -11.961 -11.588 -12.9237 -12.4235 
-12.7448 -16.3374 -15.0979 -18.0275 -17.3637 -14.9997 
-18.3202 -18.1034 -21.1644 -23.8032 -19.4397 
-2.4265 -2.186 -2.6165 -4.7055 -2.4265 -2.229 -1.8085 -4.413 -2.95 -2.0935 -3.8385 0 
-3.292 -3.5105 -5.8915 -6.9795 -3.3415 -3.813 -6.151 -6.247 -4.4955 -6.31 -3.8385 
-4.443 -6.2535 -7.3565 -7.9535 -4.2785 -8.026001 -7.9255 -7.1615 -8.01 -6.31 
-7.1465 -8.153 -8.6675 -8.952001 -8.4355 -10.411 -8.914001 -10.442 -8.01 
-9.347 -9.089001 -9.698501 -13.212 -11.1517 -11.3995 -12.4411 -10.442 
-2.3615 -3.013 -5.651501 -4.598 -2.0935 -3.571 -3.6885 -4.413 -2.95 0 
-6.181 -8.529501 -10.939 -6.5295 -5.032001 -6.1615 -8.9475 -6.247 -2.95 
-11.104 -14.0821 -13.0391 -9.8735 -8.271 -12.2109 -11.4121 -6.247 
-17.9314 -16.176 -16.3831 -13.2299 -14.622 -14.6755 -11.4121 
-19.7949 -19.52 -19.7395 -19.5809 -17.0866 -14.6755 
