-4.759 
n/a 
n/a 
n/a 
n/a 
-4.759 
n/a 
n/a 
n/a 
n/a 
-4.759 
n/a 
n/a 
n/a 
n/a 
-4.759 
n/a 
n/a 
n/a 
n/a 
-5.864 -4.251 -5.1845 -4.953 -4.255 -2.5045 -1.4985 -12.16972 
-11.315 -10.9315 -8.975 -8.9475 -6.6955 -3.583 -14.76202 
-17.9955 -14.722 -13.0899 -11.7184 -7.5285 -17.01852 
-21.786 -18.8369 -15.8608 -12.5514 -21.29402 
-25.9009 -21.6078 -16.6938 -26.31692 
-6.8035 0 -5.1845 -4.953 -2.186 -7.252501 -2.5045 -3.8665 -5.1845 
-6.8035 -5.1845 -8.975 -6.739 -9.749001 -8.484501 -6.224 -10.8845 
-12.904 -8.975 -10.382 -14.7474 -9.995 -12.2894 -13.5836 
-16.6945 -10.382 -18.3904 -14.9934 -13.9731 -19.649 
-18.1015 -18.3904 -18.6364 -18.9715 -21.3327 
-4.62 0 -5.1845 -4.245 -3.6595 -2.186 -12.16972 -4.245 
-4.62 -5.1845 -7.991 -7.5795 -5.8905 -15.56612 -16.41472 
-10.209 -7.991 -11.6449 -10.5877 -19.87642 -19.81112 
-13.8725 -11.6449 -14.6531 -24.57362 -24.12142 
-17.5264 -14.6531 -28.63902 -28.81862 
-2.872 0 -7.3565 -5.1845 -5.87 -2.186 -4.4295 -1.4985 -3.5905 -5.1845 
-2.872 -7.3565 -13.0018 -10.907 -8.176001 -7.59 -5.163 -4.435 -8.0375 
-8.9205 -13.0018 -18.7243 -13.213 -13.8614 -8.564 -8.847501 -9.5755 
-14.9236 -18.7243 -21.0303 -18.8984 -14.8354 -12.3659 -14.175 
-20.6461 -21.0303 -26.7157 -19.8724 -18.6373 -17.6934 
