-4.759 
n/a 
n/a 
n/a 
n/a 
-4.759 
n/a 
n/a 
n/a 
n/a 
-4.759 
n/a 
n/a 
n/a 
n/a 
-4.759 
n/a 
n/a 
n/a 
n/a 
-7.190001 -4.179 -4.85 -5.1805 -2.3345 -3.1385 
-8.514001 -8.987501 -9.9835 -6.612 -5.443501 
-13.6793 -14.7764 -11.415 -8.6455 
-19.4682 -16.2079 -13.4485 
-20.8997 -18.2414 
-7.190001 -4.179 -2.186 -3.699 -4.179 -2.0935 -5.1845 -4.9225 0 
-8.514001 -5.982 -4.636 -7.9145 -6.361501 -7.298 -9.13 -4.9225 
-10.0645 -9.392 -9.904501 -8.8715 -12.291 -10.4765 -9.13 
-13.6119 -14.6943 -10.8615 -15.0978 -15.4695 -10.4765 
-18.9142 -15.6513 -17.0878 -18.2763 -15.4695 
-4.9225 -4.62 -4.7425 -7.190001 -4.179 
-9.4285 -9.037001 -9.484001 -8.514001 
-14.5277 -13.9381 -10.6615 
-19.4288 -15.1156 
-20.6063 
-7.190001 -4.759 -2.186 -5.1805 -4.62 0 
-9.362 -6.772 -6.3525 -10.281 -4.62 
-11.7114 -10.1635 -12.4704 -10.281 
-15.1029 -16.2814 -12.4704 
-21.2208 -16.2814 
