-4.759 
n/a 
n/a 
n/a 
n/a 
-4.759 
n/a 
n/a 
n/a 
n/a 
-4.759 
n/a 
n/a 
n/a 
n/a 
-4.759 
n/a 
n/a 
n/a 
n/a 
-2.925 -4.4015 -1.7695 -4.024 -1.4985 -4.191 -1.7695 -1.4985 -3.959 -3.0695 -2.4945 -1.4985 -3.499 -1.7565 -2.3615 
-6.006001 -4.6435 -6.9055 -5.5295 -5.8 -5.965 -2.7955 -5.5 -6.422 -4.2085 -3.9315 -4.967 -4.306 -3.523 
-6.168 -9.226501 -8.203 -9.008 -7.641001 -6.7535 -6.960001 -7.8205 -7.1605 -5.6565 -7.0765 -5.2225 -5.934 
-10.647 -9.996 -11.8669 -9.834001 -8.452001 -11.4978 -9.024 -8.620501 -8.851 -7.6195 -7.165 -6.511 
-11.4165 -13.6599 -12.6929 -10.371 -13.2725 -13.5618 -9.874001 -10.0475 -10.1765 -7.692 -8.747001 
-1.4985 -4.4755 -3.098 -2.0935 -3.4185 -3.959 0 
-6.114 -8.277 -4.8475 -6.0975 -5.9345 -3.959 
-10.403 -10.27 -8.198 -8.026 -5.9345 
-12.396 -13.6205 -10.5777 -8.026 
-15.7465 -16.0002 -10.5777 
-3.499 -1.7565 -2.3615 -3.9235 -2.8645 -3.098 -3.8935 -1.4985 -5.3085 -4.191 
-4.306 -3.523 -5.7745 -5.948 -5.4205 -6.793 -5.0685 -6.114 -6.580501 
-5.934 -6.6555 -7.1675 -8.710501 -8.0535 -7.9295 -10.4115 -7.836501 
-7.984 -8.830501 -10.1715 -10.7495 -9.507501 -13.4083 -12.134 
-10.1108 -11.9283 -12.3199 -12.2035 -15.0603 -15.1308 
-2.4265 -2.7415 -4.4015 -2.3335 -3.098 -1.4985 -3.4185 -3.959 -2.742 -2.489 -4.024 -4.191 -3.9495 
-3.681 -5.9195 -5.3755 -5.0465 -4.514 -5.019 -5.9345 -6.1555 -3.301 -4.7505 -8.0305 -6.4575 
-6.045 -6.4285 -7.9585 -5.999 -8.028501 -6.993001 -8.011001 -6.797 -5.156 -9.481001 -9.68 
-6.432 -8.7425 -8.7925 -9.454 -10.3475 -8.991501 -8.601001 -9.592 -9.969501 -10.565 
-8.743501 -9.392501 -12.2773 -11.9628 -12.346 -9.697001 -11.5184 -14.4859 -11.0677 
