-4.759 
n/a 
n/a 
n/a 
n/a 
-4.759 
n/a 
n/a 
n/a 
n/a 
-4.759 
n/a 
n/a 
n/a 
n/a 
-4.759 
n/a 
n/a 
n/a 
n/a 
-3.2825 -3.668 -2.0935 -2.3615 0 -1.7695 -4.174 -6.552001 -1.934 -3.45 -3.8195 -3.0365 -2.4945 -3.4865 -4.0145 -3.849 -7.636 -4.0145 0 
-6.526501 -5.612 -3.854 -2.3615 -1.7695 -5.6635 -10.0285 -8.839001 -5.009 -5.884501 -6.447001 -3.688 -6.069 -7.492001 -7.736 -11.6456 -12.9921 -4.0145 
-8.120001 -7.317501 -3.854 -4.6245 -5.6635 -10.6735 -12.3155 -12.2138 -6.302 -8.330501 -6.871 -6.613501 -9.361501 -9.894501 -15.8286 -17.0017 -12.9921 
-8.861501 -7.317501 -6.0495 -8.846001 -10.6735 -12.9605 -15.6903 -13.5068 -8.571 -8.828 -9.441501 -10.0705 -12.0424 -18.1835 -21.1847 -17.0017 
-8.861501 -9.2965 -9.448501 -14.137 -12.9605 -16.3353 -16.9833 -15.7758 -9.105 -11.4405 -13.0721 -12.9946 -20.3314 -23.5396 -21.1847 
-3.2825 -3.668 -2.0935 -2.3615 0 -2.3335 -4.088 -4.9595 -2.0935 -5.4865 -2.186 -3.3425 -12.16972 -3.6885 
-6.526501 -5.612 -3.854 -2.3615 -2.3335 -6.462501 -9.337501 -7.085001 -7.609 -7.7375 -5.2235 -16.36422 -15.85822 
-8.120001 -7.317501 -3.854 -5.6525 -6.462501 -12.126 -11.7162 -12.9805 -9.383 -11.018 -18.73702 -20.05272 
-8.861501 -7.317501 -7.138 -10.0815 -12.126 -14.5047 -17.6117 -14.7545 -12.5915 -24.53152 -22.42552 
-8.861501 -10.1425 -11.8984 -15.745 -14.5047 -20.4002 -19.3857 -17.963 -26.10502 -28.22002 
-2.3335 -3.383 -4.0385 -3.668 0 -3.1495 -3.5015 -4.8515 -4.9595 -5.147 -3.2955 -7.3925 -4.0145 0 
-5.711 -8.130501 -8.605 -3.668 -3.1495 -7.7355 -9.491001 -10.5535 -10.8625 -8.266001 -11.8278 -12.0406 -4.0145 
-10.7175 -12.931 -8.605 -6.8435 -7.7355 -14.0712 -15.2534 -16.4565 -13.9815 -17.4807 -16.4759 -12.0406 
-15.518 -12.931 -12.2455 -11.6751 -14.0712 -19.8336 -21.1564 -19.5755 -23.1962 -22.1288 -16.4759 
-15.518 -16.5715 -17.0771 -18.0108 -19.8336 -25.7366 -24.2754 -28.7902 -27.8443 -22.1288 
-3.2825 -3.668 -2.0935 -2.3615 -2.186 -4.3435 -1.7565 -3.4865 -5.0745 -3.6885 -7.3925 -1.7695 -4.174 -5.4865 -1.934 -2.3335 -3.892 
-6.526501 -5.612 -3.854 -3.5005 -7.806001 -5.325 -5.2165 -8.389 -9.027 -12.2834 -9.8485 -5.6635 -10.1635 -7.0925 -4.359 -6.2355 
-8.120001 -7.317501 -5.761 -9.673 -8.510501 -8.6155 -10.7595 -13.1287 -18.0159 -14.7394 -13.7425 -12.3152 -11.7695 -9.542001 -6.5425 
-8.861501 -8.2115 -12.0295 -10.343 -11.8858 -14.4131 -15.4992 -22.1176 -20.4719 -18.6334 -20.3942 -13.9212 -14.219 -11.8577 
-9.318001 -14.6052 -12.6995 -13.7183 -17.6834 -19.1528 -24.4881 -24.5736 -24.3659 -25.2851 -22.0002 -16.3707 -16.5347 
