-4.759 
n/a 
n/a 
n/a 
n/a 
-4.759 
n/a 
n/a 
n/a 
n/a 
-4.759 
n/a 
n/a 
n/a 
n/a 
-4.759 
n/a 
n/a 
n/a 
n/a 
-2.872 -1.4985 -4.477 -4.2055 -2.186 -3.0365 
-4.035 -6.1505 -9.302 -6.6415 -4.5415 
-8.782501 -10.485 -11.8388 -8.01 
-13.3982 -13.0218 -13.2073 
-15.935 -14.3903 
-4.3465 -3.595 -3.401 
-5.631001 -6.493001 
-9.493001 
n/a 
n/a 
-2.872 -3.5725 -3.0365 -2.4945 -4.9285 -1.7565 -3.8255 -5.468 
-5.087501 -5.6995 -3.688 -7.548501 -5.4325 -5.2035 -10.019 
-7.053 -6.8035 -7.711 -8.1455 -6.425 -11.6656 
-7.689001 -10.0185 -8.2635 -9.331501 -13.4499 
-10.5325 -10.518 -9.554501 -16.2996 
-2.872 -3.0365 -2.186 -4.2055 -1.7695 -4.7505 
-4.651 -3.66 -7.580501 -4.621 -6.777501 
-5.2045 -8.233001 -8.121 -10.5755 
-9.8985 -9.1225 -14.5673 
-10.753 -15.7312 
