-4.759 
n/a 
n/a 
n/a 
n/a 
-4.759 
n/a 
n/a 
n/a 
n/a 
-4.759 
n/a 
n/a 
n/a 
n/a 
-4.759 
n/a 
n/a 
n/a 
n/a 
-2.9805 -5.389 -4.179 -2.0935 -1.4985 -3.705 -4.3805 -2.0935 -4.23 0 -6.3665 -1.7565 -3.758 -1.756 -4.033 -3.189 -1.7565 -3.5385 0 
-8.658001 -10.082 -6.1085 -2.9725 -4.925 -6.715 -6.265 -6.022 -4.23 -6.3665 -6.939001 -6.117001 -5.509 -5.167 -6.039 -5.26 -4.808 -3.5385 
-13.678 -12.4057 -6.8595 -6.3405 -7.8505 -7.8455 -9.583 -6.022 -11.5435 -6.939001 -11.8763 -8.074 -10.5865 -6.6905 -7.356 -6.95 -4.808 
-16.0017 -13.1567 -10.126 -9.0655 -9.1475 -11.6223 -9.583 -13.8313 -12.116 -11.8763 -13.8333 -13.3227 -12.11 -7.7335 -8.8695 -6.95 
-16.7527 -16.4232 -13.2898 -10.317 -13.1427 -11.6223 -17.7281 -14.4038 -17.0533 -13.8333 -19.082 -14.8462 -13.153 -9.146001 -8.8695 
-2.9805 -4.38 -2.264 -1.4985 -3.84 -1.7565 -4.23 -3.1385 -3.705 -4.3805 0 -4.5735 -1.756 -6.655 0 -3.736 -3.189 -4.5735 
-6.521501 -7.163 -2.9195 -4.752501 -4.881 -5.6925 -5.86 -7.95 -6.715 -4.3805 -4.5735 -5.7525 -7.59 -6.655 -3.736 -5.5235 -6.481501 
-9.620501 -7.535501 -6.7215 -5.3265 -10.674 -6.836 -9.805 -11.4714 -6.715 -9.690001 -5.7525 -10.096 -7.59 -11.1644 -5.5235 -9.002001 
-10.2295 -12.0117 -7.258 -11.4225 -11.8175 -10.9474 -13.6034 -11.4714 -12.4727 -11.0278 -10.096 -10.096 -12.343 -12.9519 -9.002001 
-14.7057 -12.5482 -13.4224 -12.566 -15.9289 -14.7458 -13.6034 -17.2291 -13.8105 -15.3713 -10.096 -15.054 -14.1305 -16.4304 
-3.84 -1.7695 -2.489 -5.359 -4.23 -3.1385 -3.705 -5.2845 0 -4.5735 -1.756 -3.736 -3.189 
-5.5655 -3.1405 -9.744 -10.6748 -5.86 -7.95 -8.381001 -5.2845 -4.5735 -5.7525 -5.289001 -5.5235 
-6.7465 -10.389 -15.2552 -12.3048 -9.805 -13.1374 -8.381001 -9.196 -5.7525 -7.896 -6.104 
-14.7442 -15.9002 -16.8852 -16.2498 -15.2694 -13.1374 -12.3447 -10.6225 -7.896 -9.729 
-20.2554 -17.5302 -20.8302 -21.7142 -15.2694 -17.1011 -13.7712 -12.766 -9.729 
-2.0935 -1.4985 -4.23 -3.1385 -2.925 -5.119 -7.632 0 -4.5735 -1.756 -2.0935 -1.4985 -3.5385 -3.189 -2.925 -4.3465 -1.8085 -3.5435 -3.2015 0 
-2.9725 -5.015 -5.86 -5.268001 -7.4575 -14.0894 -7.632 -4.5735 -5.7525 -4.3175 -2.9725 -4.694 -6.7985 -6.8595 -5.7895 -5.472001 -5.2635 -6.2695 -3.2015 
-5.916501 -6.8395 -8.073 -10.4185 -16.6065 -14.0894 -12.8949 -5.7525 -8.165501 -5.074 -5.8355 -8.749001 -11.0634 -9.8585 -7.222 -9.723001 -8.7395 -6.2695 
-7.887001 -8.791 -13.7457 -19.5675 -16.6065 -19.3523 -14.0739 -8.165501 -8.5225 -7.861001 -9.564501 -13.1779 -14.0624 -11.2694 -11.607 -13.3516 -8.7395 
-9.7845 -14.5843 -22.8947 -19.5675 -21.8694 -20.5313 -16.4869 -8.5225 -11.8491 -11.8596 -14.155 -16.1769 -15.4733 -15.6544 -15.2356 -13.3516 
