-4.759 
n/a 
n/a 
n/a 
n/a 
-4.759 
n/a 
n/a 
n/a 
n/a 
-4.759 
n/a 
n/a 
n/a 
n/a 
-4.759 
n/a 
n/a 
n/a 
n/a 
-1.934 -3.531 -3.2815 0 -1.8085 -4.889 -4.8115 -1.934 -4.1865 -3.9515 -2.688 -4.883 -4.493 -2.341 -5.351 -1.756 -3.133 -3.152 -4.874 0 
-5.012 -5.568501 -3.2815 -1.8085 -5.919001 -6.759501 -6.611 -5.967 -7.49 -7.2555 -5.259 -9.693001 -7.035 -8.1145 -6.346 -5.5925 -6.823 -6.21 -4.874 
-7.9455 -5.568501 -5.87 -5.919001 -7.55 -7.510001 -9.792001 -8.672501 -8.716001 -7.988 -10.1635 -12.3608 -9.2605 -9.4215 -9.7075 -7.9785 -9.294001 -6.21 
-7.9455 -8.614 -9.9565 -7.55 -8.086 -10.0575 -10.637 -9.5015 -8.721001 -13.2691 -12.8313 -14.5863 -10.4685 -12.9832 -12.1143 -9.7355 -9.294001 
-11.6142 -12.8031 -11.7217 -8.086 -10.8765 -11.1473 -12.3418 -9.507501 -14.1233 -15.9369 -15.0568 -15.7943 -14.0302 -15.39 -13.8713 -9.7355 
-7.936501 -3.2815 0 -2.341 -4.424 -1.756 -3.133 -4.874 -1.934 -1.4985 -4.889 -4.8115 -4.005 -1.934 -4.883 0 -3.9515 -1.7565 -3.8735 
-9.989501 -3.2815 -2.341 -7.515501 -5.9015 -5.5925 -8.3395 -5.694 -2.6125 -5.8525 -6.759501 -9.1525 -4.808 -6.081 -4.883 -3.9515 -5.368 -5.112 
-9.989501 -5.3645 -7.515501 -9.245001 -9.3795 -8.992001 -8.688 -6.5475 -7.543 -7.963 -11.8549 -10.177 -8.0275 -6.081 -8.463 -5.368 -7.546 
-12.2889 -11.1142 -9.245001 -12.8426 -13.1116 -9.5835 -10.2595 -9.3835 -8.785501 -13.3446 -12.8794 -13.3965 -8.0275 -9.967001 -8.932501 -7.546 
-18.0386 -12.8437 -12.8426 -16.5747 -13.7031 -10.4365 -13.0955 -9.842501 -14.3409 -14.3691 -16.0989 -13.3965 -12.4201 -10.143 -8.993001 
-3.531 -3.2815 0 -3.133 -3.1385 -3.152 -4.874 -1.756 -2.871 -2.7415 -4.493 -1.934 -1.8085 -4.889 -4.8115 -1.934 -2.688 -4.883 0 -1.4985 -3.9515 -3.2875 -1.7565 -3.8735 
-5.568501 -3.2815 -3.133 -6.403 -5.219 -6.21 -6.231 -4.514 -5.3315 -5.5985 -5.1865 -3.2685 -5.919001 -6.759501 -6.611 -4.282 -5.259 -4.883 -1.4985 -5.059 -5.783 -4.3315 -5.112 
-5.568501 -5.902 -6.403 -8.0255 -6.9205 -7.263 -8.2065 -6.7555 -7.4995 -6.158 -6.1955 -7.381001 -7.55 -7.510001 -8.7795 -6.249001 -5.259 -6.624001 -5.059 -6.233 -6.4065 -7.6775 
-10.199 -10.4425 -8.0255 -9.329 -7.8475 -8.536 -9.238501 -8.68 -8.2945 -6.6645 -8.1805 -8.0705 -8.086 -10.316 -9.415501 -6.249001 -6.8715 -8.187 -6.233 -6.543 -8.441 
-14.7395 -12.065 -9.329 -10.3105 -8.935 -9.361501 -9.5485 -9.433001 -9.14 -8.6485 -8.596001 -8.507 -10.7575 -10.5965 -9.415501 -7.6355 -8.616 -8.809501 -6.543 -8.507 
-3.531 -5.2155 -3.8735 -3.9515 -7.759 -4.889 -4.8115 -2.341 -4.269 -4.493 
-8.191501 -8.8555 -7.986 -12.9959 -13.1262 -6.759501 -7.219501 -6.041 -7.4075 
-11.8565 -13.7595 -17.5486 -18.3631 -14.9967 -9.232 -11.4211 -9.6595 
-16.4881 -23.5955 -22.9158 -20.2336 -17.4692 -13.804 -15.0396 
-26.2253 -28.9627 -24.7863 -22.7061 -22.0412 -17.4225 
