-4.759 
n/a 
n/a 
n/a 
n/a 
-4.759 
n/a 
n/a 
n/a 
n/a 
-4.759 
n/a 
n/a 
n/a 
n/a 
-4.759 
n/a 
n/a 
n/a 
n/a 
-3.1495 -5.3695 -2.356 -3.0785 -1.934 -4.17 -1.4985 -3.8665 -3.681 0 -5.138 0 -6.636 -1.756 -4.3915 -3.1435 -3.898 0 
-9.8465 -7.669001 -5.8915 -5.132 -5.7735 -5.1315 -4.915 -7.3625 -3.681 -5.138 -5.138 -6.636 -7.7955 -5.71 -7.2055 -6.2875 -3.898 
-12.3868 -11.9051 -7.8975 -7.182 -6.2215 -7.974 -8.525001 -7.3625 -9.238001 -5.138 -13.05 -7.7955 -12.1489 -8.6835 -10.1265 -6.2875 
-16.6229 -13.9111 -9.927501 -7.623001 -8.951 -12.1086 -8.525001 -13.1653 -9.238001 -13.05 -14.2095 -12.1489 -15.1224 -11.6037 -10.1265 
-18.6289 -15.9411 -10.3385 -10.76 -13.2782 -12.1086 -14.6724 -13.1653 -17.2292 -14.2095 -18.5629 -15.1224 -18.0426 -11.6037 
-4.0175 -2.4945 -4.17 -5.9385 -3.213 0 -1.756 -1.7695 -3.2345 -3.277 -2.645 -4.0205 -1.756 -4.684 0 -4.3915 -3.769 -3.6245 -2.4265 -3.2645 -2.489 -3.115 -2.3335 
-6.955501 -6.9835 -10.2435 -9.325001 -3.213 -1.756 -3.963 -3.713 -5.126 -5.639 -7.003 -5.399 -6.2455 -4.684 -4.3915 -5.9775 -6.672 -5.802 -4.563 -3.7195 -5.344501 -4.7415 
-11.8601 -13.6922 -13.63 -9.325001 -4.5875 -3.963 -5.66 -5.5445 -6.326 -10.1635 -8.31 -8.683001 -6.2455 -9.786501 -5.9775 -9.0955 -8.487 -7.948501 -4.8385 -6.7205 -6.6955 
-18.5688 -17.0787 -13.63 -10.8689 -6.4325 -5.66 -7.2205 -6.606 -11.5741 -10.571 -11.7278 -8.683001 -10.5325 -11.5927 -9.0955 -10.7605 -10.7495 -8.207001 -7.5915 -8.070001 
-21.9553 -17.0787 -15.1739 -12.7139 -7.8515 -7.2205 -8.236 -11.9253 -11.9816 -13.9888 -11.7278 -13.1032 -12.3387 -14.7107 -10.7605 -13.023 -11.008 -11.1646 -8.626 
-2.3615 -4.8345 -2.742 -3.0785 -1.7695 -4.0585 -1.4985 -3.8665 -4.979 -1.756 -3.074 -2.4265 -2.742 -3.0785 -1.7695 -4.0545 -1.4985 -4.979 0 
-9.021501 -6.849501 -4.6085 -4.903 -4.6165 -4.7185 -4.915 -8.829 -5.909 -4.566 -5.653 -4.095 -4.6085 -4.903 -4.4685 -5.291 -6.319 -4.979 
-11.1191 -8.9245 -5.809 -7.182 -5.2205 -7.8135 -10.553 -10.5135 -8.853001 -6.903501 -7.177501 -5.8685 -5.809 -6.973001 -5.575 -9.3365 -6.319 
-13.1941 -9.4905 -8.045 -7.6195 -8.138 -13.8775 -12.2375 -13.4575 -11.2487 -8.343 -8.4005 -6.986 -7.6885 -7.854 -9.6045 -9.3365 
-13.7601 -11.8679 -8.429 -10.485 -14.272 -15.562 -15.1815 -15.8532 -12.6882 -9.453 -9.383 -8.922001 -8.532001 -12.0599 -9.6045 
-4.385 -3.3875 -4.2705 -2.791 -1.7695 -4.0585 -3.8665 -4.2995 -1.756 -3.074 -2.0935 -3.1435 -3.3825 -1.756 -4.4095 0 
-7.493 -9.872001 -5.721 -4.3355 -4.6165 -7.8865 -7.4075 -5.518 -4.566 -5.4025 -4.568 -6.009501 -4.5235 -5.7315 -4.4095 
-14.6175 -11.3645 -6.2915 -6.491 -8.2215 -11.9631 -8.471001 -8.107 -6.212501 -7.2695 -7.256001 -6.9525 -8.781 -5.7315 
-16.11 -11.935 -7.366 -10.146 -12.3457 -13.0266 -11.1708 -9.804501 -8.264501 -10.0885 -8.0845 -10.733 -8.781 
-16.6805 -13.0095 -11.2398 -14.2702 -13.4092 -15.7264 -12.8683 -11.8313 -11.1453 -11.0224 -12.0536 -10.733 
