-4.759 
n/a 
n/a 
n/a 
n/a 
-4.759 
n/a 
n/a 
n/a 
n/a 
-4.759 
n/a 
n/a 
n/a 
n/a 
-4.759 
n/a 
n/a 
n/a 
n/a 
-4.5925 -3.8045 -3.4075 -4.4075 0 -4.565 -1.7565 -2.8965 -5.5655 -4.8645 -4.4075 0 -1.756 -4.9545 -2.4945 -1.4985 -4.2085 -4.418 0 
-9.7235 -7.732 -5.283 -4.4075 -4.565 -4.631 -4.5345 -8.259001 -9.6945 -10.9575 -4.4075 -1.756 -6.2975 -6.479 -3.9315 -5.206 -7.630001 -4.418 
-13.6986 -8.7095 -5.283 -9.141001 -4.631 -6.3705 -9.335001 -12.9446 -15.7677 -10.9575 -5.199 -6.2975 -7.8975 -7.95 -8.4565 -8.769501 -7.630001 
-14.6761 -8.7095 -10.172 -9.245501 -6.3705 -11.6068 -14.4402 -19.0178 -15.7677 -11.749 -7.1895 -7.8975 -9.4165 -12.8666 -12.1186 -8.769501 
-14.6761 -14.1653 -10.2065 -11.1306 -11.6068 -16.712 -20.5134 -19.0178 -16.5592 -13.7395 -8.922001 -9.4165 -14.3169 -16.5287 -12.1186 
-3.8045 -3.4075 -4.4075 0 -4.565 -1.7565 -2.8965 -3.468 -4.4075 -1.756 -4.9545 -2.4945 -4.282 -3.325 -2.3615 -3.685 0 
-7.732 -5.283 -4.4075 -4.565 -4.631 -4.5345 -5.387 -8.2335 -5.199 -6.2975 -6.479 -5.481 -5.76 -4.645 -4.9725 -3.685 
-8.7095 -5.283 -9.141001 -4.631 -6.3705 -6.6835 -10.199 -9.476501 -7.1895 -7.8975 -9.5165 -6.4735 -6.8695 -5.709 -4.9725 
-8.7095 -10.172 -9.245501 -6.3705 -8.9553 -11.7451 -10.3485 -10.661 -8.922001 -11.0476 -10.9168 -7.968 -8.705501 -5.709 
-14.1653 -10.2065 -11.1306 -8.9553 -14.0169 -11.8946 -12.249 -12.3935 -12.3005 -12.4479 -12.4113 -9.767 -8.705501 
-3.0365 -2.4945 -4.994 -4.3735 -3.4075 -4.4075 0 -4.565 -1.7565 -2.8965 -4.449 -4.4075 0 -4.9545 -1.756 -4.869 -3.8195 -1.934 -1.4985 -3.59 0 
-3.688 -7.4525 -6.857501 -7.5185 -5.283 -4.4075 -4.565 -4.631 -4.5345 -6.653501 -8.275001 -4.4075 -4.9545 -5.808 -6.072 -6.737 -5.221 -2.6125 -4.268 -3.59 
-7.696001 -9.1645 -9.8255 -8.774 -5.283 -9.141001 -4.631 -6.3705 -7.686 -9.4655 -8.275001 -6.8415 -5.808 -8.9635 -7.133 -8.078001 -5.7955 -4.955501 -4.268 
-9.288501 -10.1995 -9.9835 -8.774 -10.172 -9.245501 -6.3705 -9.3015 -10.731 -9.4655 -11.0672 -7.0925 -8.9635 -10.19 -8.357 -8.7635 -7.324501 -4.955501 
-10.204 -10.2165 -9.9835 -14.0454 -10.2065 -11.1306 -9.3015 -12.4197 -10.731 -12.3399 -11.3182 -11.8092 -10.19 -11.508 -9.1125 -10.3565 -7.324501 
-4.5925 -3.8045 -3.4075 -4.4075 0 -3.3935 -2.229 -1.7565 -2.8965 -4.4075 0 -1.756 -4.9545 -2.4945 -3.8825 0 
-9.7235 -7.732 -5.283 -4.4075 -3.3935 -5.8575 -4.9155 -4.5345 -6.9395 -4.4075 -1.756 -6.2975 -6.479 -5.478001 -3.8825 
-13.6986 -8.7095 -5.283 -8.199 -5.8575 -6.201 -7.428 -8.746501 -6.9395 -5.199 -6.2975 -7.8975 -9.4215 -5.478001 
-14.6761 -8.7095 -9.121501 -10.4265 -6.201 -8.054001 -11.9866 -8.746501 -7.916501 -7.1895 -7.8975 -10.9526 -9.4215 
-14.6761 -13.1148 -12.045 -10.577 -8.054001 -12.9668 -11.9866 -9.5135 -9.347 -8.922001 -10.9526 -10.9526 
