-4.759 
n/a 
n/a 
n/a 
n/a 
-4.759 
n/a 
n/a 
n/a 
n/a 
-4.759 
n/a 
n/a 
n/a 
n/a 
-4.759 
n/a 
n/a 
n/a 
n/a 
-10.3925 -9.936501 -7.1035 
-22.6394 -16.1191 
-28.822 
n/a 
n/a 
-3.3985 0 -10.4135 -3.8145 -3.352 -4.219 0 -2.8845 0 
-3.3985 -10.4135 -14.3532 -7.087 -6.7485 -4.219 -2.8845 -2.8845 
-15.512 -14.3532 -17.6257 -10.7495 -6.7485 -5.984 -2.8845 
-19.4517 -17.6257 -21.2882 -10.7495 -8.398001 -5.984 
-22.7242 -21.2882 -21.2882 -12.399 -8.398001 
-3.352 -8.586 -1.934 -2.8845 
-13.2238 -10.2925 -4.7805 
-14.9303 -13.139 
-17.7768 
n/a 
-3.3985 0 -6.601501 -4.519 -1.7565 -10.546 0 -2.8845 0 
-3.3985 -6.601501 -8.251 -6.5135 -13.2517 -10.546 -2.8845 -2.8845 
-11.7 -8.251 -10.2535 -18.9681 -13.2517 -13.4305 -2.8845 
-13.3495 -10.2535 -22.7081 -18.9681 -16.1362 -13.4305 
-15.352 -22.7081 -22.7081 -21.8526 -16.1362 
