-4.759 
n/a 
n/a 
n/a 
n/a 
-4.759 
n/a 
n/a 
n/a 
n/a 
-4.759 
n/a 
n/a 
n/a 
n/a 
-4.759 
n/a 
n/a 
n/a 
n/a 
-3.524 -2.461 0 -4.5335 -4.502 -1.7565 -4.5735 -5.223 -4.677 -3.152 -3.557 0 
-5.5525 -2.461 -4.5335 -7.6695 -5.093 -5.6355 -8.984 -9.273001 -7.6505 -5.1785 -3.557 
-5.5525 -7.440001 -7.6695 -8.089001 -8.500501 -10.1675 -13.152 -13.8711 -9.5825 -5.1785 
-11.5977 -10.757 -8.089001 -11.7155 -13.3411 -14.4547 -17.7501 -15.8031 -9.5825 
-14.9147 -11.1765 -11.7155 -16.5561 -17.6283 -19.0528 -19.6821 -15.8031 
-3.524 -2.461 0 -4.0745 -1.7565 -5.2985 -7.806 -3.9565 -2.8645 -3.557 -1.934 -4.389 
-5.5525 -2.461 -4.0745 -4.8425 -7.230501 -14.0695 -12.2269 -6.092 -5.5535 -4.4175 -5.576 
-5.5525 -6.929501 -4.8425 -9.5065 -16.4703 -18.4904 -14.3624 -8.824 -7.4715 -8.331 
-10.389 -7.528 -9.5065 -18.9729 -20.8912 -20.6259 -17.0944 -10.575 -11.7924 
-10.772 -12.4588 -18.9729 -23.3938 -23.0267 -23.3579 -18.8454 -14.8959 
-3.524 -2.461 0 -1.4985 -4.461 -1.7565 -1.8085 -5.2985 -3.7515 -3.9565 -2.7415 -3.557 -1.934 -7.3525 
-5.5525 -2.461 -1.4985 -5.892 -5.722001 -3.2595 -6.848001 -7.2935 -8.400001 -6.0605 -5.094501 -4.4175 -8.424001 
-5.5525 -4.514 -5.892 -6.0185 -6.582001 -7.8635 -8.793 -10.361 -10.523 -8.932001 -5.837501 -11.1533 
-7.6835 -9.243 -6.0185 -6.7805 -9.414001 -9.565001 -12.1541 -13.0444 -13.3945 -9.715501 -13.0417 
-12.6583 -9.3395 -6.7805 -9.524501 -10.7585 -12.9833 -14.8375 -15.9159 -14.178 -16.9765 
-3.524 -7.759501 -2.95 -4.7965 -2.7415 -3.557 
-10.583 -11.178 -8.599501 -7.6905 -5.094501 
-16.1247 -17.9407 -11.7285 -10.5425 
-22.0984 -21.0697 -14.5805 
-25.2274 -23.9217 
