-4.759 
n/a 
n/a 
n/a 
n/a 
-4.759 
n/a 
n/a 
n/a 
n/a 
-4.759 
n/a 
n/a 
n/a 
n/a 
-4.759 
n/a 
n/a 
n/a 
n/a 
-4.1145 -2.229 -2.915 -3.2345 -1.756 -3.3255 -1.4985 -2.871 -3.6045 0 
-6.818501 -5.55 -6.5515 -5.557 -5.2605 -3.8945 -4.316 -7.146501 -3.6045 
-9.486501 -9.155001 -8.6745 -9.5495 -5.811 -7.209001 -8.2965 -7.146501 
-13.5093 -11.6614 -13.487 -10.349 -9.0955 -11.5933 -8.2965 
-16.0157 -16.4739 -14.2865 -13.6335 -13.6428 -11.5933 
-4.1145 -2.186 -1.8085 -3.4605 -2.9705 -2.186 -3.2955 -1.7695 -3.5185 -2.9195 0 -4.6045 -3.3715 -2.915 -1.756 -1.7695 -2.911 -3.3715 -3.509 0 
-6.3365 -3.164 -4.9875 -5.989 -3.89 -4.348001 -3.9425 -4.134 -7.534 -2.9195 -4.6045 -7.609 -7.243501 -4.266 -3.963 -4.603 -7.3995 -6.54 -3.509 
-7.133 -6.0645 -6.9215 -6.681 -5.7615 -4.837 -5.655 -8.171 -7.534 -8.3195 -7.609 -10.5225 -8.646501 -5.934 -7.2425 -8.087501 -10.9996 -6.54 
-8.4135 -7.7325 -7.823501 -9.105 -6.2085 -6.481501 -9.709001 -8.171 -13.6824 -12.2526 -10.5225 -11.9255 -10.5839 -8.981001 -11.4634 -12.135 -10.9996 
-10.025 -9.070001 -9.763 -9.472 -7.863501 -10.8411 -9.709001 -14.678 -17.6155 -15.1661 -11.9255 -13.8629 -13.6309 -13.3565 -15.5109 -12.135 
-4.1145 -2.186 -1.4985 -4.636 -2.9825 -1.7695 -3.5185 0 -3.693 -1.756 -2.911 -2.915 -3.3255 -2.4265 0 
-6.3365 -3.339 -5.769 -8.0065 -4.86 -4.134 -3.5185 -3.693 -5.9015 -5.25 -5.8125 -5.9175 -5.4315 -2.4265 
-7.6755 -7.914001 -9.31 -9.154 -7.3015 -4.134 -7.0245 -5.9015 -6.475 -8.5065 -9.7845 -7.6255 -5.4315 
-12.9223 -11.937 -10.7251 -12.8493 -7.3015 -8.9985 -9.2235 -6.475 -9.988501 -12.7697 -11.5123 -7.6255 
-16.9453 -13.3521 -14.4204 -12.8493 -12.6264 -9.7515 -10.758 -9.988501 -14.2883 -14.4975 -11.5123 
-3.135 -4.4155 -1.4985 -4.4525 -1.7565 -4.278 -2.6165 -3.098 -2.5045 -2.664 -6.509 -3.7775 -2.872 -3.074 -2.5045 -1.8085 -4.321 -3.754 -2.9195 -3.8445 -3.433 -1.7565 -3.043 -4.2735 -3.602 -2.7455 -3.634 -3.371 -7.3475 
-7.759501 -5.687 -4.731 -4.6715 -6.515 -7.962501 -4.283 -5.3345 -4.074 -7.2205 -8.1005 -6.870501 -4.5415 -5.708 -3.3625 -6.5755 -6.5815 -6.410501 -6.491 -7.5525 -4.1845 -4.6315 -5.948 -9.183001 -5.518001 -6.408 -5.927 -9.7325 
-8.972 -7.2745 -4.7575 -9.486501 -9.321501 -9.2805 -6.384 -6.6105 -8.9325 -8.5 -9.948 -8.5345 -6.39 -6.279 -8.4265 -7.3855 -7.937 -9.903 -10.004 -8.3245 -6.524 -7.421 -9.708 -9.914001 -8.6555 -7.95 -12.9083 
-9.8325 -7.2955 -9.564001 -10.0325 -9.908501 -9.987 -7.414001 -10.025 -9.669001 -9.9505 -10.026 -9.413 -6.731501 -9.9805 -9.432 -9.333 -9.972 -10.041 -10.046 -9.972501 -8.73 -10.0065 -10.047 -10.0525 -9.7165 -15.4811 
-9.837501 -10.0565 -10.0325 -10.0375 -10.023 -10.024 -10.025 -10.0335 -10.021 -10.026 -10.031 -9.5015 -10.003 -10.011 -9.9685 -10.001 -10.042 -10.056 -10.058 -10.052 -10.047 -10.052 -10.0555 -10.058 -17.4984 
