-4.759 
n/a 
n/a 
n/a 
n/a 
-4.759 
n/a 
n/a 
n/a 
n/a 
-4.759 
n/a 
n/a 
n/a 
n/a 
-4.759 
n/a 
n/a 
n/a 
n/a 
-12.16972 -3.158 0 -2.5195 -4.751 -3.488 -5.628 -1.7695 -4.767 -3.488 -5.805501 
-15.32772 -3.158 -2.5195 -7.2295 -6.890501 -8.744 -8.692 -7.126 -6.9665 -9.243501 
-15.32772 -5.471001 -7.2295 -8.981501 -12.0989 -12.0228 -14.2399 -9.1145 -13.0036 
-17.64072 -10.1385 -8.981501 -14.2387 -15.3777 -17.5707 -16.2284 -15.1372 
-22.30822 -11.8905 -14.2387 -17.5175 -20.9256 -19.5592 -22.2511 
-8.214001 -3.158 0 -3.488 -2.998 -1.756 -3.488 -3.0605 -2.5195 -5.805501 
-11.08 -3.158 -3.488 -5.3595 -5.365 -6.127 -5.4835 -6.215 -9.302501 
-11.08 -6.4825 -5.3595 -7.6975 -8.3415 -8.2085 -8.413 -13.3536 
-14.4045 -8.689 -7.6975 -9.236 -10.0065 -10.7495 -16.149 
-16.611 -10.7175 -9.236 -10.1905 -12.5475 -18.4855 
-8.214001 -3.158 0 -2.5195 -3.488 -8.626 -4.732 -3.488 -3.0605 -5.805501 0 
-11.08 -3.158 -2.5195 -5.609 -10.5895 -13.717 -7.459001 -5.4835 -9.0135 -5.805501 
-11.08 -5.471001 -5.609 -12.3435 -15.7753 -16.7798 -9.701501 -12.6227 -9.0135 
-13.393 -7.701 -12.5161 -18.5423 -18.7037 -19.0223 -16.9027 -12.6227 
-15.623 -14.899 -18.5423 -21.2693 -20.9462 -26.2235 -16.9027 
-8.214001 -3.158 0 -5.7865 -3.488 -2.998 -5.628 -1.7695 -3.488 -3.0605 -5.805501 
-11.08 -3.158 -5.7865 -8.9385 -5.3595 -8.228001 -8.692 -5.748 -5.4835 -9.0135 
-11.08 -8.4755 -8.9385 -10.598 -9.9505 -11.6278 -12.8619 -7.9265 -12.6227 
-16.3975 -10.6215 -10.598 -15.189 -13.5517 -15.7977 -15.0404 -15.3543 
-18.5435 -12.281 -15.189 -18.7902 -17.7216 -17.9762 -22.4682 
