-4.759 
n/a 
n/a 
n/a 
n/a 
-4.759 
n/a 
n/a 
n/a 
n/a 
-4.759 
n/a 
n/a 
n/a 
n/a 
-4.759 
n/a 
n/a 
n/a 
n/a 
-2.4265 -4.2725 -1.934 -1.4985 -3.75 -4.963 -4.1115 -2.5045 -1.4985 -3.158 -1.7565 -5.804 -4.7765 -3.5315 0 -4.602 -1.756 -2.4265 -3.43 -3.6135 -4.0865 -1.934 -4.5325 -5.049 -2.3335 -2.186 -2.9325 -4.873 -4.6525 0 
-6.851501 -6.1805 -2.6125 -4.8715 -6.875 -6.226 -6.662001 -3.1915 -4.178 -4.71 -6.644001 -8.9145 -8.6675 -3.5315 -4.602 -6.828 -3.949 -5.461 -7.0315 -6.1675 -5.8935 -5.6755 -7.1745 -8.2045 -3.7085 -4.589 -8.5085 -8.533501 -4.6525 
-8.213 -6.8505 -5.621 -8.130501 -9.105501 -8.4665 -7.277501 -6.7915 -5.562 -9.604501 -12.0915 -13.8612 -8.6675 -6.4335 -6.828 -8.893001 -6.492001 -8.909 -10.543 -7.222 -10.019 -8.827001 -11.1834 -9.238501 -5.4205 -9.935501 -12.5626 -8.533501 
-8.565001 -8.581 -8.6 -9.466001 -11.444 -8.8765 -11.2915 -8.347501 -11.78 -15.7466 -16.4399 -13.9378 -11.7683 -8.5245 -8.893001 -11.6668 -9.995001 -12.7195 -11.5975 -11.6525 -13.2121 -12.7615 -12.2174 -11.3301 -10.8924 -13.9896 -12.5626 
-9.940001 -11.8956 -9.847501 -11.9439 -11.854 -13.0411 -12.8475 -14.7679 -17.2598 -20.1044 -16.4399 -17.0386 -13.8593 -10.5225 -11.6668 -15.1698 -13.9815 -13.774 -16.028 -14.8456 -17.1466 -13.7955 -14.309 -16.802 -14.9465 -13.9896 
-5.0025 -2.229 -3.644 0 -9.864 -3.5315 -3.1255 -2.4265 -2.186 -3.6955 -2.5195 -3.7745 -3.873 -4.1115 -1.756 -5.198 -4.5325 -2.229 -5.049 0 
-6.556 -6.3395 -3.644 -9.864 -13.6559 -5.5025 -6.536 -3.292 -6.5235 -4.843 -5.9975 -7.868501 -6.334001 -5.537 -6.6705 -8.6665 -6.2095 -7.6485 -5.049 
-11.3789 -6.3395 -14.2124 -13.6559 -15.6269 -8.845 -7.081 -7.866001 -8.216001 -8.2545 -10.4185 -11.0675 -7.004 -9.672001 -10.3475 -9.657001 -9.3795 -7.6485 
-11.3789 -17.1153 -18.0043 -15.6269 -18.9694 -9.691501 -12.0286 -9.6155 -11.8805 -13.1111 -13.6175 -11.7375 -12.4824 -13.4876 -11.338 -13.4508 -9.3795 
-22.1547 -20.9072 -19.9753 -18.9694 -19.8159 -14.6663 -13.7781 -13.3238 -16.7371 -16.3101 -14.2875 -17.2159 -16.298 -14.4781 -15.1318 -13.4508 
-4.873 -3.152 -5.855 -2.3335 -10.5805 -3.5315 -4.602 -3.218 -3.307 -1.7565 -1.4985 -4.1115 -3.9535 -1.756 -3.6135 -3.974 -2.7415 -4.4825 -1.934 -4.5325 -5.049 0 
-8.285501 -10.674 -8.6625 -12.091 -12.8055 -6.4335 -8.8155 -7.785001 -4.8035 -2.4195 -4.843 -8.716001 -5.831501 -5.5885 -7.243 -6.132 -8.028501 -5.5625 -5.6755 -7.1745 -5.049 
-16.0273 -13.4815 -19.5159 -17.2177 -16.962 -10.4345 -13.6283 -9.956 -5.2765 -5.5165 -9.1005 -10.7575 -10.1855 -10.7175 -10.2535 -12.1124 -8.9495 -8.6005 -8.827001 -7.1745 
-18.8348 -24.3779 -23.9167 -20.4381 -21.0396 -15.2473 -15.7993 -10.678 -8.653501 -9.956 -11.2404 -15.1115 -15.3145 -13.728 -16.2339 -13.0334 -11.9635 -12.1536 -8.827001 
-29.7312 -28.7357 -27.0175 -24.4391 -25.8524 -17.4183 -16.5213 -14.055 -13.661 -12.0121 -15.5944 -20.2405 -18.325 -19.7084 -17.1549 -16.0474 -15.5166 -12.1536 
-3.9345 -1.7695 -4.873 0 -2.5045 -4.4175 -4.7765 0 -3.5315 -4.602 -3.9535 -1.934 -3.75 -3.7745 -4.3355 -1.756 -4.434 -1.934 -4.5325 -6.5725 -2.4265 -4.4125 -6.022 -8.137501 0 
-3.94 -7.934501 -4.873 -2.5045 -7.0015 -9.3245 -4.7765 -3.5315 -6.4335 -9.114 -5.3325 -5.3465 -5.873 -8.7565 -5.8165 -5.863 -5.81 -5.6755 -10.1555 -10.1385 -6.067 -9.268001 -14.7971 -8.137501 
-8.93 -7.934501 -6.3825 -7.0015 -12.4753 -9.3245 -8.6675 -6.4335 -11.4973 -11.1398 -8.102 -6.9575 -11.9572 -10.718 -9.7325 -7.0575 -10.0445 -11.5117 -13.7215 -13.935 -10.2645 -18.2539 -14.7971 
-8.93 -9.6555 -11.4787 -12.4753 -12.4753 -13.2797 -11.7683 -11.4973 -13.5231 -13.9093 -10.7126 -13.9087 -13.9187 -14.634 -11.0432 -11.3878 -15.8807 -15.0777 -17.518 -18.1325 -19.405 -18.2539 
-10.442 -15.0059 -16.9525 -12.4753 -16.4305 -16.3805 -16.8321 -13.5231 -16.2926 -16.5199 -17.6638 -15.8702 -17.8347 -15.9447 -15.3735 -17.224 -19.4467 -18.8742 -21.7155 -27.273 -19.405 
