-4.759 
n/a 
n/a 
n/a 
n/a 
-4.759 
n/a 
n/a 
n/a 
n/a 
-4.759 
n/a 
n/a 
n/a 
n/a 
-4.759 
n/a 
n/a 
n/a 
n/a 
-3.1015 -1.8085 -3.4795 -4.6035 -2.229 0 -4.3225 0 -4.1865 -3.3195 0 -4.1975 -3.433 0 -3.6055 -3.193 -3.3435 -4.4695 0 -2.4945 -3.383 -8.255501 -1.934 -3.3435 0 
-5.0505 -6.392 -8.691 -7.214001 -2.229 -4.3225 -4.3225 -4.1865 -6.689 -3.3195 -4.1975 -6.8875 -3.433 -3.6055 -4.658 -6.269 -8.022501 -4.4695 -2.4945 -4.732 -9.469001 -10.281 -5.009501 -3.3435 
-6.6635 -11.8793 -11.7237 -7.214001 -6.419 -4.3225 -8.014501 -6.689 -6.689 -8.002001 -6.8875 -6.8875 -7.4855 -4.658 -6.753 -11.4066 -8.022501 -7.281 -4.732 -11.4188 -11.7157 -13.3565 -5.009501 
-12.4778 -14.912 -11.7237 -11.8396 -6.419 -8.014501 -10.4505 -6.689 -11.9093 -11.3352 -6.8875 -11.9982 -8.2935 -6.753 -11.9996 -11.4066 -11.2226 -9.714001 -11.4188 -13.6655 -14.7912 -13.3565 
-15.5105 -14.912 -16.3493 -11.8396 -10.7186 -10.4505 -10.4505 -11.9093 -15.2425 -11.3352 -11.9982 -12.8062 -10.6517 -11.9996 -11.9996 -14.6067 -13.6556 -16.4008 -13.6655 -16.741 -14.7912 
-4.127 -4.02 -3.3195 0 -4.1865 -3.3195 0 -3.7805 0 -5.8205 0 -6.201 0 -4.029 -1.7565 -3.8355 0 -8.1555 -3.8245 -3.6835 0 -7.259501 -9.113001 -2.4945 -3.9535 -3.3425 -3.6085 -3.9355 0 -4.02 -3.959 -4.414 -2.4945 -3.9535 -4.287 0 
-6.889 -6.7005 -3.3195 -4.1865 -6.689 -3.3195 -3.7805 -3.7805 -5.8205 -5.8205 -6.201 -6.201 -4.029 -5.1 -5.261 -3.8355 -8.085501 -11.731 -5.987 -3.6835 -5.400001 -12.8665 -10.593 -6.6715 -5.968 -7.132 -6.448 -3.9355 -4.02 -6.338 -9.596001 -6.1615 -6.6715 -7.521501 -4.287 
-9.043 -6.7005 -7.439 -6.689 -6.689 -5.389501 -3.7805 -8.026 -5.8205 -13.0057 -6.201 -10.956 -5.1 -9.314501 -5.261 -9.861001 -7.4275 -11.2495 -5.987 -9.205001 -13.5005 -16.6852 -15.4094 -8.8365 -10.007 -8.8175 -6.448 -8.6635 -6.338 -12.3096 -11.5361 -11.0251 -10.6095 -7.521501 
-9.043 -10.127 -8.391001 -6.689 -9.9205 -5.389501 -8.026 -8.026 -13.0057 -13.0057 -10.956 -12.027 -9.314501 -9.314501 -12.4926 -11.8605 -11.3612 -11.3612 -13.6027 -17.5141 -16.6852 -21.1574 -17.5744 -13.3195 -11.7517 -8.8175 -11.588 -11.0389 -12.3096 -14.2497 -16.3997 -14.9631 -10.6095 
-12.6663 -10.3545 -8.391001 -9.9205 -9.9205 -9.087001 -8.026 -15.7996 -13.0057 -17.7607 -12.027 -16.2415 -9.314501 -16.8417 -14.6201 -16.1895 -11.362 -18.9777 -21.9118 -20.6988 -21.1574 -23.3224 -22.0574 -15.0642 -11.7517 -14.1423 -13.9634 -17.0105 -14.2497 -19.1133 -20.3377 -14.9631 
-3.6205 -4.02 -3.3195 0 -4.1865 -3.3195 0 -4.3225 0 -5.8205 0 -3.36 -2.229 0 -4.1975 -4.017 0 -6.041 -4.1105 -3.783 -4.335 -2.4285 -4.53 -4.335 -3.584 -2.356 -3.6085 -3.9355 -1.756 -4.02 -4.414 0 
-7.9835 -6.7005 -3.3195 -4.1865 -6.689 -3.3195 -4.3225 -4.3225 -5.8205 -5.8205 -3.36 -5.7295 -2.229 -4.1975 -8.4345 -4.017 -6.041 -11.1415 -7.8455 -7.757501 -6.396 -7.296 -7.3145 -8.396 -5.0575 -5.975 -6.448 -5.2215 -5.5495 -8.978001 -4.414 
-10.4035 -6.7005 -7.439 -6.689 -6.689 -7.033501 -4.3225 -8.681 -5.8205 -9.635 -5.7295 -5.7295 -6.305 -8.4345 -8.4345 -11.0706 -11.1415 -14.8765 -12.236 -9.8295 -12.1565 -9.977501 -11.8523 -9.634501 -8.631001 -8.39 -7.4335 -9.715 -9.953501 -8.978001 
-10.4035 -10.127 -8.391001 -6.689 -10.9408 -7.033501 -8.681 -8.681 -9.635 -12.2893 -5.7295 -10.597 -11.295 -8.4345 -16.0677 -16.1711 -14.8765 -19.267 -14.308 -15.59 -14.838 -14.5153 -13.0908 -13.8826 -11.5676 -9.326501 -10.575 -14.673 -9.953501 
-13.83 -10.3545 -8.391001 -10.9408 -10.9408 -10.2235 -8.681 -13.0233 -12.2893 -12.2893 -10.597 -15.587 -11.295 -16.0677 -21.1682 -19.9061 -19.267 -21.339 -20.0685 -18.2715 -19.3758 -15.7538 -17.3389 -16.8192 -12.5041 -12.3324 -15.533 -14.673 
-3.6085 -3.9355 -1.756 -4.051 -4.414 -5.5365 -6.2625 -3.7715 -2.674 -3.9535 -4.26 -5.8675 -1.934 -6.7835 -4.02 -3.3195 -4.1865 -3.3195 -4.3225 -5.8205 -4.4605 -3.688 -5.2225 -9.6955 -4.2885 -1.756 -7.259501 -9.218 
-6.448 -5.2215 -5.368 -9.092001 -10.0255 -12.226 -10.709 -6.264 -5.6255 -7.333 -10.2485 -6.640501 -8.695001 -10.443 -6.7005 -7.439 -6.689 -7.033501 -8.681 -8.9975 -8.3175 -8.422001 -12.7155 -9.456 -5.4515 -7.158501 -13.1695 
-7.4335 -9.265 -10.575 -14.8467 -16.95 -17.7631 -13.6786 -8.811001 -9.2475 -13.9303 -10.618 -14.0323 -12.7707 -13.1235 -10.127 -8.391001 -10.9408 -10.2235 -12.3858 -13.2097 -13.7131 -16.6674 -15.7075 -10.9635 -12.2905 -16.423 
-10.1265 -14.9554 -16.3297 -21.7712 -22.3201 -19.8311 -16.3314 -12.9636 -16.0308 -14.2998 -18.0098 -18.108 -15.4512 -16.55 -10.3545 -12.968 -14.1308 -15.6311 -16.598 -18.6053 -21.9585 -19.4044 -16.7345 -17.4972 -21.228 
-16.4441 -20.7101 -23.2542 -27.1413 -24.3881 -22.4839 -20.484 -19.7469 -16.4003 -21.6916 -22.0855 -20.7885 -18.8777 -16.7775 -14.9315 -16.158 -19.5384 -19.8433 -21.9936 -26.8507 -24.6955 -20.4314 -23.5957 -26.4125 
