-4.759 
n/a 
n/a 
n/a 
n/a 
-4.759 
n/a 
n/a 
n/a 
n/a 
-4.759 
n/a 
n/a 
n/a 
n/a 
-4.759 
n/a 
n/a 
n/a 
n/a 
-4.628 -5.939 -4.432 -4.328 -3.915 -3.4605 
-5.9615 -8.4925 -4.899 -8.6415 -5.1545 
-8.503 -8.5 -9.1505 -10.061 
-8.509501 -13.3485 -10.123 
-13.3878 -14.321 
-3.5435 -1.7565 -6.899 -3.972 -4.6535 -2.9825 0 
-4.9885 -8.5275 -10.7665 -9.5775 -8.6695 -2.9825 
-13.1195 -12.5846 -16.372 -14.0081 -8.6695 
-17.1766 -18.1901 -20.8026 -14.0081 
-22.7821 -22.6207 -20.8026 
-6.899 -4.432 -4.328 -3.915 -3.7905 
-10.575 -4.899 -8.6415 -8.116501 
-10.64 -9.1505 -13.1564 
-14.8915 -13.8812 
-19.6222 
-6.6585 -2.229 -4.432 -4.328 -2.229 -4.285 -3.4425 
-9.037001 -6.106501 -4.899 -5.7215 -6.284 -7.096001 
-13.1559 -6.407001 -6.1155 -9.283 -8.994501 
-13.4564 -8.437 -10.1945 -12.4599 
-15.4864 -12.9188 -13.3714 
