-4.759 
n/a 
n/a 
n/a 
n/a 
-4.759 
n/a 
n/a 
n/a 
n/a 
-4.759 
n/a 
n/a 
n/a 
n/a 
-4.759 
n/a 
n/a 
n/a 
n/a 
-3.77 -2.0935 -4.248 -8.438001 
-5.3235 -5.816 -9.984 
-9.938801 -12.0166 
-16.1394 
n/a 
-4.0105 -3.522 0 -4.934 -2.7455 -4.891 
-8.1415 -3.522 -4.934 -6.937 -8.0465 
-8.1415 -8.782001 -6.937 -12.4944 
-13.7951 -11.3682 -12.4944 
-16.3813 -16.9256 
-4.432 -3.522 0 -5.7015 -4.33 -6.144 
-9.068501 -3.522 -5.7015 -9.757501 -9.524501 
-9.068501 -9.125 -9.757501 -15.733 
-14.9323 -13.9176 -15.733 
-19.7249 -19.8931 
-4.0105 -4.867 0 -4.934 -2.264 -6.144 
-9.665001 -4.867 -4.934 -6.883 -8.295501 
-9.665001 -8.9205 -6.883 -13.3563 
-13.8981 -11.3197 -13.3563 
-16.2973 -17.793 
