-4.759 
n/a 
n/a 
n/a 
n/a 
-4.759 
n/a 
n/a 
n/a 
n/a 
-4.759 
n/a 
n/a 
n/a 
n/a 
-4.759 
n/a 
n/a 
n/a 
n/a 
-4.042 -1.7565 -3.8655 -2.186 -1.4985 -4.431 -4.042 -1.7565 -4.02 -3.959 0 
-5.657001 -5.196 -5.968 -3.339 -5.995501 -7.253 -5.657001 -5.2945 -6.338 -3.959 
-8.736001 -7.193501 -6.9385 -8.066501 -8.0115 -8.158 -8.508 -7.719501 -6.338 
-10.2985 -8.044001 -12.297 -10.061 -8.636001 -11.4496 -10.5645 -7.719501 
-11.149 -13.6805 -14.2915 -10.519 -12.2074 -13.5061 -10.5645 
-3.222 -3.8655 -3.641 -3.59 -1.7695 -4.8625 -4.042 -3.946 
-6.85 -7.1495 -6.539001 -5.3875 -6.162001 -10.068 -8.6105 
-10.8774 -11.3705 -8.792001 -9.872001 -12.0933 -14.6365 
-15.0984 -13.6235 -13.3997 -15.9805 -16.6618 
-17.3514 -18.2312 -19.5082 -20.549 
-3.8655 -2.8645 -4.431 -4.042 -3.115 -4.02 -3.959 0 
-6.2115 -7.1965 -7.253 -7.225 -7.460001 -6.338 -3.959 
-10.9485 -10.5777 -9.854 -11.9924 -9.4855 -6.338 
-14.3297 -13.1787 -14.6694 -14.0179 -9.4855 
-16.9307 -17.9941 -16.6949 -14.0179 
-4.431 -4.351 -2.4945 -1.934 -3.75 -3.8655 
-9.645 -7.052501 -4.2645 -5.3465 -6.591001 
-12.3379 -8.977 -8.2535 -9.415501 
-14.2624 -13.0662 -12.4875 
-18.3516 -17.3002 
