-4.759 
n/a 
n/a 
n/a 
n/a 
-4.759 
n/a 
n/a 
n/a 
n/a 
-4.759 
n/a 
n/a 
n/a 
n/a 
-4.759 
n/a 
n/a 
n/a 
n/a 
-2.5235 -4.7495 -2.5685 -3.013 -2.0935 -3.1405 
-5.96 -7.837501 -6.009501 -5.1945 -4.328 
-11.2414 -11.7481 -8.238501 -6.589001 
-15.152 -13.9771 -9.865001 
-17.381 -15.6036 
-3.013 -2.0935 -3.1405 -2.0935 -6.398 -3.4985 
-5.1945 -4.328 -5.088 -7.893001 -10.6215 
-6.589001 -6.414001 -11.7947 -12.5683 
-8.821001 -13.5243 -16.47 
-16.1541 -18.1996 
-3.013 -2.5685 -2.5235 -3.8125 -2.0935 -3.1405 0 
-5.3405 -4.6405 -6.791 -5.1715 -4.328 -3.1405 
-7.128 -8.118 -8.660001 -5.9855 -4.328 
-10.3815 -10.2185 -10.348 -5.9855 
-12.482 -11.9065 -10.348 
-2.985 -3.013 -2.5685 -3.925 -3.213 -2.0935 -4.374 
-6.318 -5.3405 -6.944 -8.007 -4.5705 -5.613501 
-8.746 -10.5535 -10.733 -9.794001 -7.5905 
-14.1788 -14.3425 -12.52 -13.1478 
-17.9678 -16.1295 -15.8738 
