-4.759 
n/a 
n/a 
n/a 
n/a 
-4.759 
n/a 
n/a 
n/a 
n/a 
-4.759 
n/a 
n/a 
n/a 
n/a 
-4.759 
n/a 
n/a 
n/a 
n/a 
-1.4985 -5.605 -4.1335 -5.62 -2.5045 -2.664 -4.374 0 -4.912 -6.7115 
-7.006001 -10.287 -8.928 -7.368001 -4.074 -6.433001 -4.374 -4.912 -9.1595 
-10.4505 -10.469 -9.696 -8.558001 -7.904 -6.433001 -7.6515 -9.1595 
-10.4815 -10.483 -10.179 -10.4675 -7.904 -9.1055 -10.4675 
-10.496 -10.497 -10.4775 -10.4675 -10.204 -10.4675 
-5.605 -4.4275 -2.5045 -2.664 -4.374 -1.756 -4.017 -6.1915 0 
-9.5895 -5.386 -4.074 -6.433001 -5.7685 -5.5965 -9.9835 -6.1915 
-9.679501 -6.312 -7.904 -7.837 -9.3505 -12.1026 -9.9835 
-10.754 -9.194501 -9.239 -12.0332 -16.1874 -12.1026 
-13.6365 -10.2435 -13.4952 -18.8701 -16.1874 
-3.5185 -6.1915 -4.8745 -3.685 -2.5045 -5.605 -4.374 
-10.8215 -10.8415 -9.0775 -5.0275 -7.801001 -9.283001 
-15.4715 -15.0445 -9.7235 -11.0684 -11.8574 
-19.6745 -15.6905 -15.9764 -15.1248 
-20.3205 -21.9434 -20.0328 
-5.605 -2.186 -3.937 -3.115 -4.374 -1.756 -3.5185 -6.7115 0 
-7.4595 -5.158 -7.3395 -7.6965 -5.7685 -5.1175 -11.117 -6.7115 
-10.8467 -8.502001 -12.094 -8.956 -10.019 -13.1552 -11.117 
-14.1907 -13.4003 -13.3535 -13.3585 -18.1601 -13.1552 
-19.089 -14.6598 -17.756 -21.4996 -18.1601 
