-4.759 
n/a 
n/a 
n/a 
n/a 
-4.759 
n/a 
n/a 
n/a 
n/a 
-4.759 
n/a 
n/a 
n/a 
n/a 
-4.759 
n/a 
n/a 
n/a 
n/a 
-2.5045 -1.7565 -4.919 -5.543 -7.917 0 -3.893 -4.1205 -2.5045 -2.664 -4.007 -1.7565 -4.7145 
-4.4235 -7.601501 -10.884 -13.9506 -7.917 -3.893 -9.526501 -5.3175 -4.074 -5.5905 -5.9395 -6.573501 
-8.905001 -14.3121 -19.2916 -13.9506 -12.246 -9.526501 -10.9743 -6.448 -6.939001 -7.5215 -11.4073 
-16.504 -22.7197 -19.2916 -18.2796 -17.8795 -10.9743 -12.1048 -9.684 -9.137501 -13.3783 
-24.9116 -22.7197 -23.6206 -23.9131 -19.3273 -12.1048 -15.3408 -11.8395 -14.9325 
-1.934 -3.281 -3.5715 -3.0105 -8.571501 -3.893 
-6.1835 -5.969501 -4.788 -12.285 -13.0581 
-9.319 -7.182 -14.8023 -16.7716 
-10.9207 -17.9115 -19.2889 
-21.6502 -22.3981 
-3.281 -3.5715 -3.0105 -1.8085 -5.507 -3.893 0 
-5.969501 -4.788 -5.432 -8.069 -10.3345 -3.893 
-7.182 -7.36 -12.1261 -13.1725 -10.3345 
-9.7075 -14.2803 -17.2296 -13.1725 
-16.6752 -19.3838 -17.2296 
-2.5045 -2.264 -3.281 -3.5715 -3.0105 -4.7145 -4.007 -3.893 
-5.495501 -5.71 -5.969501 -4.788 -8.135 -7.683001 -8.872 
-8.762001 -7.2045 -7.182 -10.3675 -11.5495 -13.1332 
-10.598 -8.740001 -13.4767 -13.782 -16.9997 
-12.1335 -15.2847 -16.8912 -19.2322 
