-4.759 
n/a 
n/a 
n/a 
n/a 
-4.759 
n/a 
n/a 
n/a 
n/a 
-4.759 
n/a 
n/a 
n/a 
n/a 
-4.759 
n/a 
n/a 
n/a 
n/a 
-3.321 -1.4985 -5.377 -2.742 -2.489 -4.3155 -3.251 -1.7695 -1.4985 -4.698 -2.0935 -4.498 -1.756 -6.6775 -1.7565 -1.4985 -3.499 -1.7565 -4.698 -3.2645 -3.2015 -2.3335 -5.377 0 
-4.481 -6.459001 -7.698 -3.301 -5.4645 -5.8865 -3.664 -2.7955 -5.740001 -6.378 -5.941 -6.163 -8.9525 -8.947001 -2.4195 -4.967 -4.306 -5.5475 -7.186001 -6.081 -5.737 -7.5825 -5.377 
-9.0825 -8.660501 -8.098001 -6.368 -6.7225 -6.469 -4.522 -6.8255 -7.686001 -9.710501 -7.571 -13.354 -10.335 -9.0725 -5.6355 -5.2225 -6.29 -8.155001 -9.6595 -8.292001 -9.842501 -7.5825 
-10.2285 -8.979 -11.498 -7.5055 -7.0875 -7.0235 -8.7405 -8.208 -10.485 -11.5267 -15.495 -14.7339 -10.1955 -11.2345 -5.9315 -7.4975 -8.544001 -10.9411 -12.0091 -12.5533 -9.842501 
-10.6555 -12.4158 -12.6355 -7.751 -7.5425 -10.2475 -9.528001 -10.749 -12.3012 -19.4507 -16.5675 -15.0249 -12.0395 -10.95 -8.116 -9.884501 -11.3201 -13.2907 -16.2704 -12.5533 
-3.321 0 -1.4985 -3.803 -4.138 -4.559 -5.677 -2.3345 -1.4985 -5.226 -3.7455 0 -2.742 -3.6955 -2.925 -3.436 -1.4985 -4.698 -3.819 -3.693 -6.016 -2.847 -3.689 -3.1575 -8.5695 -1.7565 -1.4985 -3.5085 -3.499 -2.742 -2.674 -1.7695 -4.037 -2.0935 -2.4265 -1.756 -4.0655 -1.8085 -4.1285 -2.0935 -5.804 -1.7695 -4.1885 -4.502 -1.4985 -4.0175 
-3.321 -1.4985 -5.238 -8.1615 -8.2715 -9.661 -7.4855 -3.233 -6.160501 -7.311 -3.7455 -2.742 -5.043 -4.957 -5.891 -4.213 -5.740001 -8.205501 -4.852 -9.47 -9.2545 -5.4315 -4.168 -7.354501 -5.6165 -2.4195 -4.4755 -6.1735 -5.682 -4.275 -3.787 -4.8205 -4.876 -4.488 -4.303 -5.6835 -5.643001 -5.432 -6.0525 -6.977 -7.991 -5.829 -8.2475 -5.253 -4.8215 
-4.481 -5.238 -9.33 -12.623 -13.5841 -10.69 -8.116 -8.022 -7.5465 -7.311 -6.0415 -5.043 -6.3755 -7.478 -6.6375 -7.6295 -9.1435 -9.054001 -10.8532 -12.9037 -11.8848 -5.7415 -7.169 -6.705 -5.9085 -5.126 -8.281501 -10.322 -6.864 -4.849 -6.949 -5.6385 -6.461 -5.844 -7.507501 -6.969501 -7.226 -7.1585 -9.610001 -8.985001 -12.4433 -8.743 -8.829 -7.7345 
-7.812 -9.33 -13.8207 -17.9356 -14.6131 -11.3205 -13.2264 -8.5765 -7.5465 -9.570001 -8.8095 -6.3755 -8.933001 -8.358001 -10.2695 -10.6595 -9.946001 -15.1308 -14.2869 -15.534 -12.1948 -8.6695 -7.3665 -6.973001 -7.3535 -8.4025 -13.0818 -11.504 -7.524 -8.071501 -7.4525 -7.291501 -7.952 -9.323 -9.433001 -8.847501 -8.757501 -9.925 -11.6712 -13.4801 -15.3573 -9.34 -11.3749 
-12.9458 -13.8207 -19.1333 -18.9646 -15.2436 -16.4309 -13.7809 -8.5765 -9.6905 -12.557 -10.139 -8.933001 -9.3465 -12.1742 -13.4937 -11.462 -16.0228 -18.5645 -16.9172 -15.844 -14.8628 -8.5115 -7.72 -8.420001 -9.542 -13.3424 -14.2638 -12.164 -9.7915 -8.667001 -8.8725 -8.522 -10.147 -11.3093 -11.4114 -10.3095 -11.8374 -11.9612 -16.1663 -16.3941 -15.9543 -11.9085 
-3.2615 -2.3335 -1.4985 -4.1975 -3.277 -4.5385 -2.3345 -1.4985 -3.299 -3.7455 -1.756 -3.693 -2.742 -3.6955 -1.7695 -1.4985 -3.9175 -1.7565 -4.698 0 -3.1435 -4.802 -1.7565 -3.5085 -3.499 -3.2645 -4.037 -1.756 -4.7665 -2.4265 0 
-5.0495 -3.3515 -5.4275 -6.455 -8.169001 -5.509 -3.233 -4.5915 -5.544001 -5.392 -5.153501 -6.4455 -5.043 -4.4705 -2.7955 -4.6635 -4.64 -5.5475 -4.698 -3.1435 -7.7115 -5.6745 -5.016 -6.1735 -6.173 -6.7255 -5.766 -5.8245 -6.5885 -2.4265 
-6.2185 -7.1845 -7.9055 -12.125 -9.184501 -5.872 -6.297 -5.933001 -7.130001 -8.752501 -8.084001 -9.029 -5.838 -5.2635 -5.615 -5.4405 -8.102 -5.5475 -8.0585 -8.155001 -10.7255 -8.5565 -8.738001 -10.6095 -8.878 -8.604501 -9.9205 -7.2475 -6.5885 
-10.2017 -10.199 -14.2427 -13.1405 -9.995501 -9.403001 -7.1465 -7.332 -10.3535 -11.837 -10.0745 -9.906 -6.7305 -7.516 -6.2565 -9.427001 -8.102 -8.7825 -13.3344 -10.543 -12.794 -11.6205 -13.4152 -13.3145 -10.8032 -12.9426 -12.1319 -7.2475 
-13.2162 -16.5362 -15.2582 -13.9515 -13.8493 -10.108 -8.4475 -10.4585 -13.438 -13.8275 -11.0895 -10.314 -8.844501 -8.078 -10.634 -9.427001 -11.7894 -14.2658 -15.7224 -12.794 -16.1091 -16.3093 -16.1202 -15.2397 -15.1413 -15.154 -12.1319 
-1.4985 -3.7455 -5.301 -2.186 -4.3155 -1.7695 -1.4985 -4.698 -2.0935 -3.7535 -6.016 -4.802 -3.499 -3.8825 -3.2645 -4.037 -2.0935 -4.4765 0 
-4.4155 -7.479 -6.637 -5.5135 -4.928 -2.7955 -5.740001 -6.378 -5.618 -10.3965 -9.686001 -7.3495 -6.131001 -7.402 -6.7255 -4.876 -6.0265 -4.4765 
-8.3485 -9.144501 -9.992001 -5.6665 -5.7845 -6.8255 -7.686001 -8.9455 -12.9628 -14.866 -15.0895 -10.6505 -9.467001 -10.4765 -7.1235 -8.7735 -6.0265 
-9.781 -12.6877 -10.5238 -7.032001 -9.351001 -8.208 -9.644501 -16.4665 -17.4323 -19.47 -17.2995 -13.9505 -12.3985 -10.8745 -11.448 -8.7735 
-13.3242 -13.2195 -11.8893 -10.7175 -10.688 -9.802501 -17.1717 -20.936 -22.0363 -21.68 -21.0363 -16.9778 -12.7965 -15.199 -11.448 
