-4.759 
n/a 
n/a 
n/a 
n/a 
-4.759 
n/a 
n/a 
n/a 
n/a 
-4.759 
n/a 
n/a 
n/a 
n/a 
-4.759 
n/a 
n/a 
n/a 
n/a 
-3.4765 -3.929 0 -1.4985 -5.0895 -4.9505 -2.186 -3.115 -4.6335 -5.3805 0 -5.335 0 -8.63 0 -1.756 -1.4985 -3.826 -3.1715 -2.4945 -1.4985 -3.6065 -3.9915 -2.4945 -3.7855 -1.7695 -2.3615 -7.9595 0 -7.0735 -4.6805 -4.126 0 
-4.589 -3.929 -1.4985 -5.859 -7.5115 -6.17 -4.989 -8.106501 -8.106501 -5.3805 -5.335 -5.335 -8.63 -8.63 -1.756 -3.0405 -4.4325 -6.576 -6.0855 -3.9315 -4.8665 -6.367001 -5.397 -5.125 -4.793 -3.736 -11.665 -8.476 -7.0735 -12.4332 -9.7425 -4.126 
-4.589 -4.8985 -5.859 -8.712501 -9.035501 -8.3555 -9.457001 -11.6533 -8.106501 -10.4855 -5.335 -15.1924 -8.63 -10.31 -3.0405 -5.9955 -7.0135 -8.741501 -7.6485 -6.539001 -7.8155 -8.170501 -7.517 -6.3155 -6.9015 -13.6109 -12.0764 -10.702 -12.4332 -17.4952 -9.7425 
-5.3395 -9.5105 -8.712501 -10.8949 -11.2484 -13.3583 -13.0868 -11.6533 -13.4721 -10.4855 -15.1924 -15.1924 -10.31 -11.5945 -5.9955 -8.356 -9.066 -10.2385 -10.4254 -9.285501 -9.347 -9.358001 -8.509501 -8.864 -17.054 -13.7697 -14.3024 -16.0617 -17.4952 -17.4952 
-10.328 -12.4344 -10.8949 -13.1078 -16.2512 -16.9881 -13.0868 -17.0189 -13.4721 -20.3429 -15.1924 -16.8724 -11.5945 -14.5495 -8.356 -10.1065 -10.5325 -13.1264 -13.1719 -11.2876 -10.4971 -9.462501 -9.961 -19.1269 -17.054 -15.9957 -19.6621 -21.1237 -17.4952 
-2.872 0 -1.934 -3.3435 -3.723 -4.065 -4.2995 0 -2.8195 -2.186 -4.1685 -4.065 -1.756 -3.1435 -3.3435 -2.186 -3.383 -8.1485 
-2.872 -1.934 -5.009501 -7.604001 -8.612 -9.533501 -4.2995 -2.8195 -5.3625 -5.75 -8.2665 -5.5985 -4.1365 -6.169 -4.9685 -4.438 -9.5465 
-4.659 -5.009501 -9.710501 -12.9194 -14.5109 -9.533501 -7.3615 -5.3625 -9.286001 -10.468 -10.418 -8.8555 -7.6445 -7.98 -7.1485 -10.259 
-7.8125 -9.710501 -15.3901 -18.8183 -14.5109 -12.6239 -10.543 -9.286001 -14.1692 -12.6195 -13.675 -12.6037 -9.1405 -10.0065 -13.4157 
-12.7945 -15.3901 -21.289 -18.8183 -17.6013 -15.8054 -14.4665 -14.1692 -16.3207 -15.8765 -17.4232 -14.0997 -11.193 -16.3829 
-3.2615 -4.6505 -1.4985 -4.763 -1.7565 -3.3435 0 -1.4985 -4.126 -1.7565 -4.9505 -2.186 -4.518 -2.3345 -5.1645 -3.992 -1.7695 -1.4985 -3.8905 0 -3.7855 -4.394 -1.7695 -1.4985 -3.8905 0 
-6.4175 -5.685 -6.128 -5.1985 -4.4105 -3.3435 -1.4985 -5.0885 -5.221001 -5.8415 -6.17 -5.766 -5.917 -7.961 -7.699 -5.667 -2.7955 -5.518001 -3.8905 -3.7855 -8.883 -6.177 -2.7955 -5.518001 -3.8905 
-7.01 -10.341 -6.362501 -6.9305 -4.4105 -5.0885 -5.0885 -6.211 -9.778001 -7.4385 -9.9175 -7.1745 -12.3847 -10.7385 -8.360001 -6.8565 -6.8005 -5.518001 -6.317 -8.883 -10.4945 -6.9335 -6.8005 -5.518001 
-11.909 -10.671 -8.0675 -6.9305 -5.914001 -8.8995 -6.211 -10.7714 -11.6182 -10.2695 -11.6898 -13.9106 -15.1622 -11.3995 -9.6785 -10.3965 -6.8005 -7.356501 -9.578501 -10.4945 -11.251 -9.606 -6.8005 
-12.239 -12.376 -8.0675 -8.218 -9.758 -9.9505 -10.7714 -12.6116 -14.4492 -12.258 -18.4259 -16.6881 -15.8232 -12.718 -13.2597 -10.3965 -8.901501 -10.426 -11.2626 -11.251 -13.9235 -9.606 
-2.4265 -2.8645 -1.4985 -4.248 -4.126 -1.7565 -3.091 -3.3435 -2.5045 -2.8195 0 -8.63 0 -3.93 -2.664 -2.5685 
-4.1435 -4.3545 -5.2845 -9.214001 -5.221001 -4.0655 -5.029 -5.3205 -6.1405 -2.8195 -8.63 -8.63 -3.93 -7.645 -5.128 
-5.63 -7.322001 -9.790001 -10.425 -7.232 -5.5855 -6.606 -9.4195 -6.1405 -12.6355 -8.63 -12.7872 -7.645 -10.304 
-9.068501 -12.9767 -11.1376 -12.436 -8.053501 -7.194 -11.1464 -9.4195 -16.6633 -12.6355 -12.7872 -16.5022 -10.304 
-14.5776 -14.3243 -13.1486 -13.2575 -9.461 -11.755 -11.1464 -20.1793 -16.6633 -16.7927 -16.5022 -19.1612 
