-4.759 
n/a 
n/a 
n/a 
n/a 
-4.759 
n/a 
n/a 
n/a 
n/a 
-4.759 
n/a 
n/a 
n/a 
n/a 
-4.759 
n/a 
n/a 
n/a 
n/a 
-1.7695 -4.503 -4.4385 -1.934 -5.057 -6.05 -2.4285 -3.818 -4.088 0 -5.2515 -4.7975 -4.431 -2.356 -3.4715 -1.756 -4.292 0 -3.321 -3.429 -1.8085 -4.98 -3.8055 -1.4985 -5.1775 -3.1015 -4.503 -1.8085 -4.4385 -3.815 -1.4985 -4.98 
-5.1235 -8.279501 -6.26 -7.2475 -7.2445 -8.0765 -6.054 -7.921 -4.088 -5.2515 -10.9696 -7.868 -5.562 -5.443 -4.7575 -6.0595 -4.292 -3.321 -5.8285 -4.274 -6.5 -8.556 -4.870501 -6.389501 -8.2465 -7.346 -5.643001 -6.185 -8.481501 -4.676001 -6.3295 
-9.531 -10.4035 -12.0731 -8.8435 -9.0325 -12.0816 -10.0315 -7.921 -9.351501 -10.9696 -14.0401 -8.151 -6.984 -6.2885 -7.729 -6.0595 -7.5775 -5.8285 -6.499001 -8.793501 -9.363001 -9.379001 -8.908001 -9.453501 -13.0884 -8.0815 -8.18 -9.814 -9.217001 -10.5745 
-11.8658 -16.4574 -13.6691 -10.434 -13.1064 -16.0591 -10.0315 -13.3591 -15.212 -14.0401 -14.3231 -8.891001 -7.681 -8.896001 -7.729 -8.91 -10.1305 -6.499001 -10.172 -12.2361 -10.4115 -13.5083 -12.8744 -14.4194 -13.8239 -10.3815 -12.2392 -10.0245 -15.2667 
-17.9197 -18.0534 -15.2596 -14.5079 -17.0839 -16.0591 -15.6824 -19.2196 -18.2825 -14.3231 -15.0631 -9.6745 -10.7351 -8.896001 -10.223 -11.6838 -10.6945 -10.172 -13.748 -13.2846 -14.5408 -17.4747 -17.8403 -15.1549 -16.1239 -14.4407 -12.4497 -16.3352 
-3.034 -2.925 -4.503 -4.8255 -1.934 -4.1375 -2.9705 -2.186 -5.2785 -2.356 -5.057 -6.05 0 -2.925 -2.742 -3.5185 -1.8085 -5.346 -1.4985 -4.536 0 -1.756 -3.1715 -3.4715 -1.7695 -3.2345 -2.4265 -2.5045 -1.8085 -4.701 -1.756 -5.0875 -1.8085 -4.98 -1.934 -2.3335 -4.701 -3.3425 -4.825 -4.153 -1.7695 -4.503 -4.8255 -3.115 -1.8085 -4.773 0 
-4.4 -6.72 -9.186501 -6.514 -6.729 -6.8395 -3.89 -6.832001 -6.2845 -7.401 -7.2445 -6.05 -2.925 -4.3725 -5.4405 -4.072 -7.045501 -6.67 -6.001 -4.536 -1.756 -4.8895 -6.527 -5.353 -3.713 -4.358 -4.6185 -3.3625 -6.712 -6.4265 -6.726 -7.107 -6.5 -6.9415 -4.359 -8.23 -7.896501 -7.9845 -7.586 -5.5495 -5.1235 -9.186501 -7.853 -4.2095 -6.0105 -4.773 
-8.207001 -12.0941 -10.9228 -12.0294 -10.3345 -7.5455 -8.566501 -7.663501 -10.718 -8.46 -7.2445 -8.644501 -4.3725 -7.255001 -5.86 -10.5135 -8.828001 -9.344501 -6.001 -5.822001 -4.8895 -7.793 -7.269001 -6.954 -4.843 -6.333 -5.1695 -8.215 -7.9295 -10.5535 -8.6955 -9.252001 -8.323 -9.5045 -9.712501 -11.4295 -12.9151 -9.024 -8.515 -8.903001 -9.894 -12.2618 -9.59 -7.725501 -6.0105 
-13.7659 -13.8304 -16.4382 -15.6349 -11.0405 -12.4594 -9.481001 -12.2282 -11.777 -8.46 -9.715 -10.2985 -7.255001 -7.7745 -12.4863 -12.296 -11.6539 -9.344501 -7.2345 -8.7335 -7.793 -8.29 -8.398001 -7.8765 -6.5655 -7.219501 -9.71 -9.441001 -12.4977 -12.523 -10.9489 -9.4995 -11.341 -14.8754 -13.058 -16.4481 -13.9546 -10.0965 -12.2181 -13.9197 -13.1835 -13.9988 -13.106 -7.725501 
-15.5022 -19.3458 -20.0437 -16.3409 -15.9544 -13.3739 -14.0869 -13.2872 -11.777 -10.5135 -11.383 -13.181 -7.7745 -14.4778 -14.2688 -15.1219 -11.6539 -10.079 -9.197001 -10.4115 -8.29 -9.077001 -9.509501 -9.977501 -7.5345 -10.513 -10.515 -14.0484 -14.4672 -14.7764 -11.1964 -12.5443 -16.7119 -18.2209 -18.0766 -17.4876 -15.0271 -13.9032 -17.2348 -17.2092 -14.9205 -17.5148 -13.106 
-3.135 -2.95 -2.925 -2.7765 -2.9645 -4.536 -4.7975 -2.0935 -5.281 0 
-4.868 -5.224 -4.3215 -4.5195 -7.917001 -7.654 -6.742 -6.9455 -5.281 
-7.302501 -6.914001 -6.061 -9.259001 -10.5225 -9.776001 -12.177 -6.9455 
-9.105 -8.79 -11.2379 -12.0487 -12.6445 -15.2628 -12.177 
-11.069 -14.0577 -14.0276 -14.1707 -18.1313 -15.2628 
-2.7835 -1.8085 -3.873 -2.7835 -4.54 -2.356 -1.8085 -4.6625 -2.4285 -1.8085 -4.5945 -4.1455 -2.925 -2.925 -3.2955 -1.7695 -5.717 -1.4985 -5.057 -6.05 -3.0835 -1.756 -3.321 -4.292 -1.4985 -4.536 -5.1965 -1.934 -1.8085 -3.4715 -1.756 -3.737 -2.4265 -2.5045 -1.8085 -4.701 -1.934 -1.4985 -5.0335 -1.7565 -1.8085 -5.272 -4.541 -3.321 -5.6865 -1.934 -1.7695 -1.4985 -4.2835 -1.7565 -4.98 -1.756 -5.2485 -1.4985 -4.98 -4.946 -3.9875 -1.4985 -5.004 -2.3345 -4.1655 -1.4985 -4.2285 -3.0415 -2.3335 -1.8085 -4.0685 -7.6445 -4.066 -2.5045 -4.6255 -1.756 -2.4265 -4.1675 -3.115 -4.3615 -2.356 -1.8085 -4.773 
-4.329 -5.6705 -6.686501 -7.665 -4.954501 -3.4075 -6.4455 -6.518001 -4.126 -5.889501 -7.063 -6.9825 -6.5635 -5.588 -3.9425 -6.975 -7.093501 -6.124001 -7.2445 -9.7185 -4.7735 -4.0055 -7.225 -5.9645 -6.001 -6.789001 -6.974501 -3.2685 -5.3105 -4.7575 -5.2025 -4.8895 -4.6185 -3.3625 -6.712 -6.006001 -2.6125 -6.1 -5.7925 -3.2595 -6.867001 -7.9245 -7.825001 -8.137501 -6.7075 -4.0395 -2.7955 -5.552501 -4.689 -6.433001 -6.32 -6.897 -6.412001 -6.3295 -9.683001 -8.858 -4.653 -6.1715 -7.563 -5.9165 -5.409 -5.116 -6.771 -4.132 -4.155 -4.7835 -12.6132 -12.2557 -6.017 -6.177 -6.4755 -3.949 -4.8995 -4.664 -7.387001 -6.68 -3.4075 -6.0105 
-8.225 -8.965 -12.0204 -8.239 -6.295001 -7.779 -8.519 -8.247001 -8.198501 -8.111501 -9.964001 -10.8926 -9.2325 -5.948 -8.7575 -7.849 -12.168 -8.6285 -11.35 -11.5813 -6.083 -7.8055 -8.245001 -8.781 -8.373 -8.776 -7.610001 -6.681 -7.347 -8.066 -6.2585 -7.139 -5.1695 -8.215 -8.503 -6.774 -7.8475 -6.3365 -7.422 -8.0895 -8.604 -11.5999 -12.8857 -9.427501 -8.125 -5.3685 -7.0755 -6.3205 -7.0845 -7.516001 -10.375 -7.6505 -11.817 -10.634 -13.7702 -9.3715 -9.569 -8.729 -10.3605 -6.516 -8.637 -8.448501 -7.648 -5.8445 -7.6565 -14.0046 -17.2244 -14.2067 -10.3717 -7.4505 -8.382 -5.985 -5.1585 -9.892 -8.961 -7.601 -6.9505 
-11.8047 -14.7103 -12.5944 -9.576 -9.372001 -9.653 -10.119 -10.586 -10.757 -11.2009 -13.9259 -13.5616 -9.587501 -10.3885 -9.649 -13.0917 -14.6725 -12.8478 -13.2128 -12.8908 -9.6925 -8.8675 -10.609 -9.666 -9.76 -9.3385 -11.8491 -8.731001 -11.2155 -9.0915 -8.301001 -7.954 -9.71 -9.486501 -9.257 -12.96 -8.163501 -7.631 -12.6382 -9.427001 -12.4946 -16.6606 -14.1757 -11.009 -8.717 -9.52 -7.8085 -8.530001 -8.287001 -11.7828 -11.3229 -13.1901 -16.1215 -14.7212 -14.2837 -14.3635 -12.2185 -11.7423 -10.96 -9.234501 -11.5235 -9.192 -9.833501 -9.516001 -16.9936 -18.6158 -19.1754 -18.5614 -11.6452 -9.443501 -10.7082 -6.2835 -10.532 -11.466 -9.370001 -9.183001 
-17.55 -15.2843 -13.9314 -12.653 -11.601 -11.3348 -12.458 -13.1445 -13.8464 -15.1628 -16.5949 -13.9166 -14.0248 -11.28 -14.9231 -15.5962 -18.8918 -14.7106 -14.5223 -16.5003 -10.8749 -11.2559 -11.494 -11.2462 -10.084 -13.6652 -13.8991 -12.6481 -12.241 -11.2058 -9.3915 -12.9283 -11.0475 -10.1605 -15.6882 -13.276 -9.819501 -12.9592 -13.9757 -13.4634 -17.5553 -17.9506 -15.7572 -11.601 -12.9967 -10.6615 -10.0995 -9.7755 -12.7288 -12.7307 -16.8625 -17.4946 -20.2087 -15.2347 -19.2757 -17.013 -15.2318 -12.3418 -13.6785 -12.2834 -12.267 -11.5203 -13.505 -18.9167 -21.6048 -20.5668 -23.5301 -19.8349 -13.6382 -12.0481 -11.0067 -11.8824 -12.106 -11.875 -10.3295 
