-4.759 
n/a 
n/a 
n/a 
n/a 
-4.759 
n/a 
n/a 
n/a 
n/a 
-4.759 
n/a 
n/a 
n/a 
n/a 
-4.759 
n/a 
n/a 
n/a 
n/a 
-1.756 -2.4265 -4.4155 -1.7565 -4.5125 -1.4985 -4.7915 0 -3.64 0 -4.8255 -1.756 -3.0465 -2.8965 -4.045 -1.756 -3.043 -1.7695 -3.2955 -1.4985 -4.045 0 
-3.949 -7.003 -7.453 -5.856501 -5.636001 -5.4405 -4.7915 -3.64 -3.64 -4.8255 -5.829 -4.477 -6.541 -6.226501 -5.4175 -4.2975 -3.528 -6.642001 -4.8715 -5.334001 -4.045 
-8.2845 -9.871501 -11.9334 -6.954501 -9.083 -5.4405 -8.2815 -3.64 -8.591001 -5.829 -9.191 -7.677501 -9.906 -7.825 -7.9035 -4.9115 -8.159 -8.0045 -8.693501 -5.334001 
-10.078 -14.7613 -13.0314 -10.688 -9.083 -9.332001 -8.2815 -8.591001 -9.443501 -9.191 -12.6321 -11.4365 -11.5709 -10.426 -8.474501 -9.76 -9.349 -11.9425 -8.693501 
-16.217 -15.8593 -16.7649 -10.688 -13.5627 -9.332001 -13.9573 -9.443501 -13.1633 -12.6321 -16.3911 -13.1014 -14.1719 -10.997 -13.5814 -10.762 -13.4168 -11.9425 
-1.756 -3.0415 -1.7695 -4.255 -1.4985 -4.0045 -4.239 -1.7695 -2.489 -3.2955 -2.0935 -1.4985 -3.669 -1.756 -3.8385 0 
-4.454 -5.3075 -5.034 -5.1745 -5.330501 -6.383501 -5.904 -3.1405 -3.979 -4.307 -2.9725 -4.85 -5.4395 -5.584 -3.8385 
-6.665501 -8.68 -5.678 -8.6165 -7.384501 -7.970501 -7.116 -4.7755 -4.7805 -5.1685 -6.364 -6.2565 -6.7045 -5.584 
-9.958 -9.381001 -9.153001 -9.9895 -8.853001 -9.079 -7.54 -5.521501 -5.681 -8.202001 -7.463 -7.4185 -6.7045 
-10.5365 -12.8694 -10.5865 -11.5306 -9.661 -9.215001 -8.181001 -6.2885 -9.1415 -9.465 -8.762001 -7.4185 
-1.7695 -3.563 -2.645 -4.7365 -3.64 -2.356 -2.985 -3.482 -2.356 -2.8965 -4.6555 -1.7695 -5.4315 -3.1495 -3.681 -2.4945 -3.2955 0 
-4.525 -6.3765 -7.2275 -9.0165 -5.078 -4.4615 -6.423 -5.9005 -4.4085 -7.982501 -6.527 -7.802501 -9.635 -5.1675 -5.112 -4.6305 -3.2955 
-6.8415 -9.669001 -12.3425 -10.5535 -8.203 -8.175 -8.019 -7.9785 -9.615 -9.861001 -13.136 -12.3528 -11.6794 -6.1995 -8.267 -4.6305 
-9.992001 -15.4532 -13.8795 -14.1071 -12.1115 -10.2585 -9.4615 -13.8334 -11.5811 -16.509 -17.6863 -14.3972 -12.7114 -8.866 -8.267 
-16.1136 -16.9902 -17.4331 -18.0156 -14.195 -11.9586 -16.0682 -15.7995 -18.2291 -21.0593 -19.7307 -15.4292 -15.3779 -8.866 
-2.925 -3.074 -3.6845 -1.4985 -3.84 -1.756 -3.618 -2.0935 -4.5125 -1.756 -4.357 -3.5025 -3.47 0 
-4.9325 -5.86 -4.8155 -4.752501 -4.8045 -4.2295 -5.1595 -5.744 -6.12 -5.6465 -8.159 -5.7065 -3.47 
-7.177501 -6.6955 -8.59 -5.683001 -7.2005 -5.81 -8.759001 -6.938 -6.2235 -9.0525 -11.202 -5.7065 
-8.219501 -10.66 -9.8315 -7.960001 -8.168 -9.694 -10.586 -7.006 -9.2405 -12.5387 -11.202 
-12.382 -11.9015 -12.3209 -8.932 -12.436 -11.7918 -10.653 -9.848001 -13.0067 -12.5387 
