-4.759 
n/a 
n/a 
n/a 
n/a 
-4.759 
n/a 
n/a 
n/a 
n/a 
-4.759 
n/a 
n/a 
n/a 
n/a 
-4.759 
n/a 
n/a 
n/a 
n/a 
-3.254 -1.7565 -5.1805 -3.4635 -2.7455 -3.8735 
-4.0065 -6.823501 -8.5035 -7.518001 -6.845 
-8.817501 -10.2085 -13.252 -12.0929 
-12.4403 -15.2624 -17.8269 
-17.4942 -19.8373 
-3.254 -1.7565 -3.8735 -3.4635 -5.3055 
-4.0065 -5.112 -7.6125 -8.427 
-8.631001 -8.638 -13.082 
-9.958501 -14.4215 
-16.1794 
-3.254 -1.7565 -3.794 -3.4635 -1.7695 -3.8735 
-4.0065 -5.534 -6.029 -4.2045 -5.578001 
-6.5675 -7.118001 -6.091 -8.1075 
-8.6105 -7.124001 -9.7045 
-8.6215 -11.0045 
-3.254 -1.7565 -5.3055 -1.934 -4.1865 -4.53 
-4.0065 -7.006001 -6.719 -5.967 -9.8125 
-8.171 -8.2045 -11.5904 -12.3134 
-9.719501 -13.5009 -17.9368 
-15.3207 -19.8473 
