-4.759 
n/a 
n/a 
n/a 
n/a 
-4.759 
n/a 
n/a 
n/a 
n/a 
-4.759 
n/a 
n/a 
n/a 
n/a 
-4.759 
n/a 
n/a 
n/a 
n/a 
-3.345 -1.7565 -1.4985 -5.204 -2.4945 -4.7925 -3.222 -4.418 0 
-4.3855 -2.4195 -6.075001 -6.973001 -5.941501 -5.2095 -7.136001 -4.418 
-4.688 -6.8465 -7.807501 -9.059501 -6.151 -8.011 -7.136001 
-7.9175 -8.766001 -9.530001 -9.142001 -9.1195 -8.011 
-10.2585 -10.5597 -9.581 -10.61 -9.1195 
-3.345 -4.957 -2.4945 -4.794 -2.5045 -5.116 0 
-9.096001 -6.774 -5.9735 -7.221 -7.646501 -5.116 
-10.9756 -9.59 -8.2305 -12.7256 -7.646501 
-13.7916 -11.9104 -13.8973 -12.7256 
-16.112 -17.5772 -13.8973 
-3.6055 -3.468 -2.186 -4.7925 -3.222 -7.951 
-8.442 -5.589 -5.544001 -5.2095 -10.411 
-10.459 -8.5045 -5.673501 -10.4855 
-13.3745 -8.6195 -11.2545 
-13.4895 -14.3095 
-3.6055 -3.468 -1.756 -4.6465 -4.346 0 
-8.442 -4.7175 -5.5625 -9.790501 -4.346 
-9.814501 -7.6035 -11.6827 -9.790501 
-12.7733 -15.5545 -11.6827 
-20.7243 -15.5545 
