-4.759 
n/a 
n/a 
n/a 
n/a 
-4.759 
n/a 
n/a 
n/a 
n/a 
-4.759 
n/a 
n/a 
n/a 
n/a 
-4.759 
n/a 
n/a 
n/a 
n/a 
-3.4765 -5.1845 -5.74 -4.09 -1.934 -3.17 -1.7565 -1.4985 -3.6185 0 -2.872 -3.17 -1.7565 -1.4985 -3.1385 -2.4945 -4.657 -3.325 -1.4985 -4.4625 -3.42 0 
-9.377001 -5.7465 -10.3545 -5.2875 -4.8605 -4.179 -2.4195 -5.133 -3.6185 -2.872 -5.3695 -4.179 -2.4195 -4.2575 -4.588 -7.751 -6.9855 -3.898 -5.768001 -6.088 -3.42 
-10.02 -10.3675 -11.7108 -8.3725 -5.8795 -4.497 -6.4175 -5.133 -6.468 -5.3695 -5.822001 -4.497 -5.013 -6.0575 -10.434 -10.1425 -7.471 -7.4685 -6.291 -6.088 
-14.641 -11.7342 -14.7958 -9.156 -6.0885 -8.0955 -6.4175 -7.668 -8.879001 -5.822001 -6.26 -6.2035 -6.949501 -12.0777 -12.8255 -10.433 -9.147 -7.7335 -6.291 
-16.0077 -14.8192 -15.5793 -9.3715 -9.7335 -8.0955 -8.544001 -10.2185 -9.240001 -6.26 -7.697001 -7.661 -13.0561 -14.4692 -13.116 -12.109 -9.2565 -7.7335 
-4.398 0 -6.557 -2.186 -4.216 -1.934 -3.3715 -4.134 -3.17 -3.1385 -2.4945 -3.325 -4.4625 -3.42 
-4.398 -6.557 -8.833 -5.804 -6.4675 -4.622 -6.539001 -7.613 -4.946 -4.588 -5.3365 -8.0365 -6.088 
-12.2454 -8.833 -12.5488 -7.4835 -8.7165 -6.863 -9.428501 -9.3815 -6.131001 -7.429501 -9.918 -8.6815 
-14.5214 -12.5488 -14.2283 -9.4055 -11.0691 -9.598001 -11.5052 -10.648 -8.7295 -12.4336 -10.258 
-18.2372 -14.2283 -16.1503 -11.9239 -13.8041 -11.6535 -12.7717 -13.2465 -14.277 -12.7736 
-4.013 -6.557 -2.186 -4.216 -1.934 -3.948 -4.4445 -4.926 -3.893 -1.7565 -3.1385 -4.221 -3.6845 -1.4985 -4.4625 -3.42 
-11.36 -8.833 -5.804 -6.4675 -5.024 -5.9065 -9.892501 -6.212 -4.1785 -4.388 -7.665501 -7.537001 -4.7485 -5.768001 -6.088 
-13.636 -12.5488 -7.4835 -9.241 -7.0305 -12.2495 -11.2699 -6.2455 -6.656 -8.8465 -9.579 -7.658 -6.318 -6.291 
-17.3518 -14.2283 -10.051 -11.4509 -13.2599 -13.6269 -11.3034 -9.06 -11.4181 -10.764 -9.612 -7.7805 -6.4905 
-19.0313 -16.7958 -12.3141 -17.6803 -14.6373 -13.6604 -14.1179 -13.8825 -13.3356 -10.797 -9.6675 -7.844 
-6.8035 -5.1845 -5.74 -2.186 -4.25 -1.934 -2.5685 -4.295 0 -3.0365 -2.4945 -3.135 -3.1385 -3.0695 -2.4945 -3.5725 -3.6845 -1.4985 -4.4625 -3.42 
-12.904 -5.7465 -7.964001 -5.495501 -5.8025 -4.244 -7.852 -4.295 -3.0365 -3.688 -4.575 -4.8745 -4.286 -4.2085 -4.6825 -7.013 -4.7485 -5.768001 -6.088 
-13.466 -7.973001 -11.5163 -6.6835 -8.1665 -8.377001 -7.852 -6.9775 -3.688 -5.0805 -6.4475 -6.247 -5.128 -6.380001 -7.8125 -7.401501 -6.318 -6.291 
-15.6925 -11.5273 -12.7043 -8.772 -12.7489 -8.377001 -10.6215 -7.5955 -5.0805 -6.6885 -6.9575 -7.104001 -7.299 -9.812501 -8.226001 -9.095501 -6.4905 
-19.2468 -12.7153 -14.7928 -13.4512 -12.7489 -11.3029 -11.2395 -8.9335 -6.6885 -6.9735 -7.7355 -8.940001 -10.9399 -9.989501 -9.5065 -9.1815 
