-4.759 
n/a 
n/a 
n/a 
n/a 
-4.759 
n/a 
n/a 
n/a 
n/a 
-4.759 
n/a 
n/a 
n/a 
n/a 
-4.759 
n/a 
n/a 
n/a 
n/a 
-3.281 -3.959 -3.152 -3.499 -1.934 -2.3615 
-6.992001 -6.2895 -6.4235 -5.299 -3.539 
-9.265 -9.1125 -8.498501 -6.9245 
-12.189 -11.1413 -10.5325 
-14.2178 -13.1753 
-3.0365 -2.4945 -3.281 -3.959 -3.4185 -1.934 -2.3615 -3.307 0 
-3.688 -6.962501 -6.992001 -7.8805 -5.6705 -3.539 -6.5885 -3.307 
-7.2685 -9.7405 -11.3497 -11.0569 -7.3195 -7.906 -6.5885 
-9.800501 -14.3488 -14.5261 -12.7059 -12.2015 -7.906 
-14.4746 -17.5252 -16.1751 -17.5879 -12.2015 
-1.934 -3.1495 -3.9235 -2.925 -2.674 -3.281 -3.959 
-4.5395 -8.0895 -6.7495 -4.1785 -7.342501 -6.992001 
-9.592501 -11.1879 -7.9335 -8.7565 -10.5425 
-12.6667 -12.3719 -12.6503 -12.1615 
-13.8507 -17.0887 -16.0553 
-3.0365 -3.281 -3.959 -2.5045 -3.499 
-7.9005 -6.992001 -5.9545 -5.8935 
-11.9105 -9.3485 -8.5965 
-14.267 -12.1425 
-17.061 
