-4.759 
n/a 
n/a 
n/a 
n/a 
-4.759 
n/a 
n/a 
n/a 
n/a 
-4.759 
n/a 
n/a 
n/a 
n/a 
-4.759 
n/a 
n/a 
n/a 
n/a 
-2.3615 -4.05 -5.3225 -2.5195 -5.28 -1.7695 -4.7855 
-5.97 -7.449 -6.9355 -7.291 -7.1075 -5.967501 
-9.285 -9.071501 -10.199 -8.0485 -8.523001 
-10.7345 -12.6484 -10.2305 -8.606 
-14.3114 -12.6799 -10.2745 
-5.0185 -5.976501 -4.4715 -2.186 -5.1265 -2.5195 -5.0655 -1.7695 -3.6835 -5.164 
-7.601001 -11.5154 -6.77 -6.4055 -7.1915 -7.4705 -7.178 -5.4475 -5.399 
-13.8201 -13.8139 -10.223 -8.006001 -10.674 -8.467 -8.5895 -6.968 
-16.1186 -17.2669 -12.0283 -11.8567 -10.783 -9.474501 -10.6608 
-19.5716 -19.0722 -15.879 -11.9657 -11.7905 -11.6802 
-2.3615 -4.05 -2.186 -7.5405 -2.5195 -1.4985 -5.0655 -1.7695 -4.7855 0 
-5.97 -5.7465 -8.8575 -9.344501 -3.1695 -6.1495 -7.178 -5.967501 -4.7855 
-6.993 -13.1498 -9.541 -10.2195 -8.031 -8.113 -10.533 -5.967501 
-14.5571 -13.8333 -11.3622 -15.2246 -9.844001 -11.5198 -10.533 
-15.2406 -15.6545 -16.3673 -17.0376 -13.4976 -11.5198 
-2.3615 -4.05 -5.3225 -2.5195 -5.28 -1.7695 -4.7855 0 
-5.97 -7.449 -6.9355 -7.291 -7.1075 -5.967501 -4.7855 
-9.285 -9.071501 -10.199 -8.0485 -8.523001 -5.967501 
-10.7345 -12.6484 -10.2305 -8.606 -8.523001 
-14.3114 -12.6799 -10.2745 -8.606 
