-4.759 
n/a 
n/a 
n/a 
n/a 
-4.759 
n/a 
n/a 
n/a 
n/a 
-4.759 
n/a 
n/a 
n/a 
n/a 
-4.759 
n/a 
n/a 
n/a 
n/a 
-4.628 -4.743 -2.229 -3.5435 -4.1 -4.359 -1.7695 -1.4985 -5.4685 0 -4.859 -4.184 -4.3455 -1.4985 -3.5435 -4.384 
-4.7515 -6.5015 -5.054 -7.762501 -8.2085 -5.8635 -2.7955 -7.748 -5.4685 -4.859 -10.8215 -9.370001 -5.183 -4.2755 -8.4375 
-6.5135 -8.375 -9.8225 -12.3498 -9.772501 -6.6985 -9.083 -7.748 -10.8215 -10.8215 -16.0075 -10.5045 -8.0835 -9.5585 
-8.3765 -13.5733 -14.6332 -13.9138 -11.1985 -13.4406 -9.083 -13.55 -16.784 -16.0075 -17.142 -13.405 -14.1303 
-13.5738 -18.384 -16.1972 -15.3398 -17.9406 -13.4406 -15.04 -19.5125 -21.97 -17.142 -20.0425 -19.4518 
-6.899 -3.5435 -3.5035 -2.8645 -3.402 -2.264 -7.663001 0 -2.4265 -2.8645 -3.1125 -4.47 -2.5045 -2.3345 -3.5035 -1.7565 -1.4985 -3.5435 0 
-8.7615 -6.2355 -6.0655 -7.215 -3.793 -9.885 -7.663001 -2.4265 -4.1435 -3.5345 -6.601501 -6.3885 -5.653501 -4.959 -5.0195 -2.4195 -4.2755 -3.5435 
-11.6405 -9.633501 -10.5975 -8.1695 -12.025 -9.885 -11.0655 -4.1435 -4.755 -6.9235 -8.1455 -10.304 -7.876 -7.198 -5.601 -5.3025 -4.2755 
-15.0385 -14.2769 -11.552 -16.7749 -12.025 -13.4185 -12.7825 -4.755 -8.135 -8.4475 -12.1324 -12.5265 -10.523 -7.6 -8.816501 -5.3025 
-19.6819 -15.2314 -20.1574 -16.7749 -15.5585 -15.1355 -13.394 -8.135 -9.543501 -12.5848 -14.3549 -15.1735 -10.925 -10.7175 -8.816501 
-9.924001 -3.9655 -4.0395 -2.186 -3.402 -2.264 -5.3765 -4.2655 -1.756 -6.0655 -4.0705 -4.2715 -1.7695 -4.241 -1.4985 -4.2655 
-14.1631 -6.9125 -5.584001 -4.6135 -3.793 -7.8435 -8.8545 -5.291 -7.841001 -9.198501 -7.748001 -5.285 -4.518 -4.978 -5.9775 
-17.1101 -8.522 -7.595 -4.731 -9.2565 -11.9351 -10.1355 -10.2645 -11.2452 -13.0468 -7.909 -6.436 -5.142 -9.295001 
-18.7196 -10.06 -7.664501 -9.564 -14.0995 -13.2161 -15.4572 -13.6687 -15.0935 -13.2078 -8.669001 -7.0715 -9.458 
-20.2576 -10.1855 -12.6201 -14.861 -15.3805 -18.5378 -18.8614 -17.517 -15.2545 -13.9678 -9.632001 -11.8631 
-4.628 -5.939 -3.5435 -4.174 -4.4525 -1.7695 -5.4685 -3.855 -3.6055 -2.871 -1.7695 -3.8185 -5.4685 
-5.9615 -7.053 -7.079 -8.389 -5.610001 -7.1285 -10.0415 -7.323 -5.363 -4.734 -4.74 -9.034 
-7.0565 -10.4345 -10.4425 -8.441 -10.3165 -10.7175 -13.5095 -8.7215 -7.0695 -7.5075 -9.742001 
-10.442 -14.2734 -10.4645 -13.2737 -13.9055 -14.1855 -14.908 -9.5445 -9.5635 -12.6753 
-14.2967 -14.2954 -15.2972 -16.8627 -17.3735 -15.584 -15.731 -12.0719 -14.8845 
