-4.759 
n/a 
n/a 
n/a 
n/a 
-4.759 
n/a 
n/a 
n/a 
n/a 
-4.759 
n/a 
n/a 
n/a 
n/a 
-4.759 
n/a 
n/a 
n/a 
n/a 
-3.815 -4.1395 0 -3.915 0 -3.997 
-8.0705 -4.1395 -3.915 -3.915 -3.997 
-8.0705 -7.7505 -3.915 -7.7225 
-12.1315 -7.7505 -7.7225 
-12.1315 -12.7054 
-3.951 -4.4385 0 -1.756 -3.811 -4.4385 0 -4.357 -3.8195 -3.962 0 -3.9515 
-9.251501 -4.4385 -1.756 -5.2875 -9.8385 -4.4385 -4.357 -9.177501 -7.6975 -3.962 -3.9515 
-9.251501 -5.527 -5.2875 -12.1722 -9.8385 -9.500501 -9.177501 -13.2315 -7.6975 -7.241 
-10.486 -10.3225 -12.1722 -12.1722 -14.9803 -14.4284 -13.2315 -13.2315 -11.8573 
-15.2815 -17.2072 -12.1722 -17.314 -19.9082 -18.4824 -13.2315 -17.3913 
-2.882 -2.489 -3.881 0 -3.915 -3.519 0 -3.1935 -3.519 
-3.631 -5.4125 -3.881 -3.915 -8.222 -3.519 -3.1935 -7.3545 
-6.7485 -5.4125 -8.620501 -8.222 -8.222 -7.294 -7.3545 
-6.7485 -10.361 -13.3739 -8.222 -12.3496 -9.752001 
-12.1286 -15.4262 -13.3739 -12.3496 -14.8076 
-2.7765 -2.489 -3.881 -3.397 0 -3.811 -3.682 0 -5.761 -4.5625 0 -3.1935 -3.682 
-3.495 -5.4125 -6.801001 -3.397 -3.811 -5.825 -3.682 -5.761 -9.247 -4.5625 -3.1935 -5.734 
-6.025001 -9.6595 -6.801001 -6.902 -5.825 -5.825 -11.117 -9.247 -9.247 -6.5295 -5.734 
-10.3215 -9.6595 -9.632 -8.525001 -5.825 -14.0524 -14.603 -9.247 -11.4018 -10.1782 
-10.3215 -12.4905 -11.2536 -8.525001 -14.0524 -17.5384 -14.603 -11.4018 -15.0505 
