-4.759 
n/a 
n/a 
n/a 
n/a 
-4.759 
n/a 
n/a 
n/a 
n/a 
-4.759 
n/a 
n/a 
n/a 
n/a 
-4.759 
n/a 
n/a 
n/a 
n/a 
-5.4425 -6.5625 -2.186 -1.4985 -4.39 -4.75 
-7.282 -8.5115 -3.339 -5.735001 -10.382 
-8.9595 -9.5705 -7.594501 -12.4152 
-10.051 -13.8536 -15.2893 
-14.3341 -21.5484 
-8.881001 -6.5625 -2.5045 -3.4075 -4.75 
-10.958 -8.955001 -6.094501 -9.623501 
-13.3505 -12.797 -12.6749 
-17.1925 -19.3774 
-23.7729 
-5.4425 -6.5625 -2.229 -3.4075 -3.946 
-7.282 -8.172501 -5.1175 -7.915501 
-8.729 -11.4358 -10.375 
-12.1483 -16.6933 
-17.4058 
-8.6685 -2.186 -3.4075 -4.75 
-11.8347 -6.289001 -9.623501 
-15.9377 -13.123 
-22.7717 
n/a 
