-4.759 
n/a 
n/a 
n/a 
n/a 
-4.759 
n/a 
n/a 
n/a 
n/a 
-4.759 
n/a 
n/a 
n/a 
n/a 
-4.759 
n/a 
n/a 
n/a 
n/a 
-1.4985 -3.6395 -1.7565 -4.6285 -5.5265 -1.756 -6.147 -3.152 -5.9525 0 -1.756 -6.158 0 -4.6065 0 
-4.944 -4.6145 -6.2895 -6.649 -6.534 -7.2235 -7.7895 -9.503501 -5.5485 -1.756 -8.478001 -5.77 -4.6065 -4.6065 
-5.2065 -10.4105 -7.881 -7.5785 -7.3455 -8.939501 -13.861 -8.969501 -8.1355 -8.3465 -8.3465 -9.531501 -4.6065 
-11.2081 -12.002 -8.814 -8.457001 -9.089001 -15.0386 -13.861 -10.019 -13.0618 -8.3465 -9.594501 -9.531501 
-12.7996 -12.935 -9.6235 -10.199 -15.2017 -15.0386 -14.9105 -14.9453 -13.0618 -9.594501 -9.594501 
-4.6285 -4.519 -5.9525 -1.756 -5.5635 -6.158 0 -2.4945 -3.0365 
-5.576 -10.5275 -8.018001 -6.9815 -10.9635 -5.77 -2.4945 -4.952001 
-9.8735 -11.748 -13.6265 -10.9177 -9.194501 -9.517501 -4.952001 
-12.6839 -18.2452 -17.6835 -10.9177 -14.038 -10.9902 
-18.6223 -22.1814 -17.6835 -15.7612 -15.5107 
-4.6285 -4.519 -2.4945 -4.3435 -5.9525 0 0 -6.138 -4.3435 -6.158 0 -2.5045 -2.925 -4.008 0 
-5.576 -8.1325 -6.1145 -9.778501 -5.5485 0 -6.138 -10.5135 -10.2235 -5.77 -2.5045 -4.3205 -6.1785 -4.008 
-9.17 -11.9755 -11.861 -9.731001 -5.5485 -6.138 -10.5135 -16.9275 -10.7575 -9.361 -4.3205 -7.582 -6.1785 
-13.0382 -18.0822 -12.2212 -9.731001 -13.193 -10.5135 -16.9275 -16.9275 -14.3485 -11.7637 -7.582 -7.582 
-19.1449 -18.0822 -12.2212 -18.3573 -17.6357 -16.9275 -16.9275 -20.5185 -16.7512 -15.167 -7.582 
-4.6285 -7.3995 -5.9525 0 -9.9735 -6.158 0 
-10.6215 -13.725 -5.5485 -9.9735 -16.0405 -5.77 
-16.947 -13.725 -16.2276 -16.0405 -16.0405 
-16.947 -24.4041 -22.2946 -16.0405 
-27.6261 -30.4711 -22.2946 
