-4.759 
n/a 
n/a 
n/a 
n/a 
-4.759 
n/a 
n/a 
n/a 
n/a 
-4.759 
n/a 
n/a 
n/a 
n/a 
-4.759 
n/a 
n/a 
n/a 
n/a 
-1.4985 -4.3955 -1.7565 -1.4985 -3.8315 -2.186 -4.0165 0 -3.554 -1.756 -4.065 -1.7565 -1.4985 -3.681 -3.1495 -2.4945 -4.6505 -6.0755 -5.9885 0 
-4.95 -4.9015 -2.4195 -5.577001 -5.974 -7.875 -4.0165 -3.554 -4.9115 -5.614 -7.4305 -2.4195 -4.9615 -6.8985 -4.459 -6.1425 -11.6686 -6.37 -5.9885 
-5.049 -5.49 -6.589001 -7.323501 -12.2858 -7.875 -8.165501 -4.9115 -8.2405 -8.427501 -8.2965 -5.422501 -8.047501 -7.809 -7.762001 -13.9568 -11.9631 -6.37 
-5.6065 -9.755001 -8.805 -13.8953 -12.2858 -11.925 -9.3105 -8.2405 -11.2546 -9.6195 -11.6153 -8.435 -9.783001 -11.3608 -16.1509 -14.2513 -11.9631 
-9.867001 -12.1846 -15.5118 -13.8953 -16.3358 -13.07 -12.9685 -11.2546 -12.4466 -12.9749 -14.6278 -10.2253 -13.6772 -19.7497 -16.4454 -14.2513 
-1.4985 -3.8235 -6.0755 -5.3285 -4.0165 0 -4.9505 0 -4.6495 -1.934 -5.92 -1.756 -2.3615 -2.186 -4.6505 -1.934 -8.940001 
-4.53 -9.645 -12.2284 -10.5016 -4.0165 -4.9505 -4.9505 -4.6495 -6.562 -6.953 -7.289 -4.4615 -3.5005 -6.0075 -5.5835 -11.8804 
-9.7685 -15.6445 -17.4015 -10.5016 -8.663 -4.9505 -9.2895 -6.562 -10.6215 -7.9265 -9.910501 -5.0895 -7.0245 -6.4285 -16.3473 
-15.8124 -20.8176 -17.4015 -15.1481 -8.663 -9.2895 -11.2242 -10.6215 -11.595 -10.1945 -10.613 -8.716001 -7.38 -17.5231 
-20.9855 -20.8176 -22.048 -15.1481 -13.642 -11.2242 -15.2837 -11.595 -13.863 -10.897 -14.2395 -9.104 -18.672 
-1.4985 -3.8235 0 -6.0755 0 -1.934 -5.92 -3.757 -4.6495 0 -4.0165 0 -1.756 -5.334 0 -1.4985 -4.3955 -1.7565 -6.0755 -2.186 -5.3765 -4.138 -1.934 0 -6.0755 -5.9885 0 
-4.53 -3.8235 -6.0755 -6.0755 -1.934 -6.953 -8.295 -8.788 -4.6495 -4.0165 -4.0165 -1.756 -6.0615 -5.334 -1.4985 -4.95 -4.9015 -7.89 -8.472501 -6.295501 -9.213 -5.852 -1.934 -6.0755 -6.37 -5.9885 
-4.53 -9.645 -6.0755 -8.752001 -6.953 -8.377501 -13.4744 -8.788 -8.633 -4.0165 -6.441 -6.0615 -6.0615 -7.007 -4.95 -5.049 -10.396 -9.8505 -12.8336 -10.2485 -10.46 -5.852 -8.415001 -6.37 -6.37 
-9.7685 -9.645 -8.752001 -10.647 -8.377501 -13.5903 -13.4744 -10.6095 -8.633 -6.441 -11.5433 -6.0615 -7.828 -10.7023 -5.049 -10.9875 -12.3565 -14.3914 -16.7866 -11.4955 -10.46 -12.8546 -8.837501 -6.37 
-9.7685 -10.7045 -10.647 -12.0715 -13.5903 -13.5903 -15.2959 -10.6095 -10.061 -11.5433 -11.5433 -7.828 -11.6123 -10.8013 -10.9875 -12.948 -16.8974 -18.3444 -18.0336 -11.4955 -17.4626 -13.2771 -8.837501 
-6.0755 -2.3335 -3.8235 -3.641 -5.6305 -3.6885 -4.3955 -1.7565 -4.6495 0 -1.756 -3.115 -3.1495 -1.7565 -3.8625 -2.3335 -4.3955 0 
-9.571501 -6.001 -8.408501 -6.0325 -9.567 -7.634501 -4.9015 -6.025001 -4.6495 -1.756 -5.4945 -5.528501 -7.011001 -5.8585 -5.414001 -7.0445 -4.3955 
-13.305 -11.1014 -10.942 -10.442 -13.7698 -8.7565 -9.305 -6.025001 -6.055 -5.4945 -8.4065 -8.4075 -11.5534 -6.5055 -10.5425 -7.0445 
-18.4054 -13.6349 -15.3515 -14.6448 -14.8918 -13.416 -9.305 -7.259501 -9.5755 -8.4065 -11.4791 -13.0299 -12.2004 -13.1054 -10.5425 
-20.9389 -18.0444 -19.5543 -15.7668 -19.5513 -13.416 -10.4195 -10.7495 -12.6341 -11.4791 -16.1015 -13.6769 -18.8003 -13.1054 
