-4.759 
n/a 
n/a 
n/a 
n/a 
-4.759 
n/a 
n/a 
n/a 
n/a 
-4.759 
n/a 
n/a 
n/a 
n/a 
-4.759 
n/a 
n/a 
n/a 
n/a 
-1.4985 -3.522 -5.084 -5.171 0 -2.9705 -2.7415 -3.6915 -2.5045 -2.3335 -2.95 -4.3195 -3.6975 0 
-4.7705 -6.6155 -9.4665 -5.171 -2.9705 -4.512 -7.564501 -6.428 -4.744 -4.8245 -7.2865 -6.5695 -3.6975 
-7.5645 -11.231 -9.4665 -7.727001 -4.512 -9.054501 -9.685501 -8.474501 -5.158 -8.531501 -10.155 -6.5695 
-12.2284 -11.231 -12.3089 -8.954501 -9.054501 -11.3887 -11.8648 -8.696501 -8.816501 -11.5052 -10.155 
-12.2284 -14.0734 -13.5364 -13.6576 -11.3887 -13.568 -12.0868 -12.5702 -11.8198 -11.5052 
-2.5045 -1.4985 -2.95 -3.383 -3.6885 
-3.1915 -3.9285 -6.7095 -7.507 
-4.5155 -7.647 -11.0749 
-8.244 -12.1246 
-12.876 
-1.4985 -4.339 -1.7565 -5.004 -3.7905 -3.6975 -1.934 -2.3615 -2.95 
-4.9215 -4.919 -5.899001 -9.373001 -6.5205 -5.568 -3.539 -4.4645 
-5.0945 -8.867001 -9.7755 -12.1668 -7.366 -6.4745 -6.3285 
-9.028001 -13.0507 -12.8605 -13.0123 -9.2145 -9.623501 
-13.3009 -16.1357 -13.706 -14.8608 -12.7171 
-3.5455 -2.3615 -2.95 0 -1.4985 -3.992 -4.5435 -5.004 -4.3195 -3.383 -3.6975 
-5.013 -4.4645 -2.95 -1.4985 -5.2675 -7.2215 -9.4375 -8.870501 -6.281 -5.5455 
-5.654 -4.4645 -4.514 -5.2675 -8.9615 -12.5309 -13.5554 -10.9838 -7.2835 
-5.654 -5.6065 -7.933001 -8.9615 -14.4511 -16.6488 -15.6687 -11.9863 
-6.5425 -10.054 -12.3492 -14.4511 -18.569 -18.7621 -16.6712 
