-4.759 
n/a 
n/a 
n/a 
n/a 
-4.759 
n/a 
n/a 
n/a 
n/a 
-4.759 
n/a 
n/a 
n/a 
n/a 
-4.759 
n/a 
n/a 
n/a 
n/a 
-4.511 -2.8645 -3.4975 -3.9665 -8.2615 -2.8645 -3.0465 -3.17 -1.7565 -3.277 
-7.077001 -7.7285 -8.204 -9.9305 -11.621 -7.911 -6.5845 -4.179 -4.25 
-12.2138 -12.7978 -14.7792 -13.354 -16.6675 -11.7322 -6.7865 -5.4445 
-17.2831 -19.373 -18.2027 -18.4005 -20.4887 -11.9342 -8.2395 
-23.8583 -22.7965 -23.2492 -22.2217 -20.6907 -13.3872 
-3.5455 -4.511 -3.8275 -3.676 -2.229 -3.9665 -8.2615 -4.3155 -1.934 -3.3715 0 
-7.4945 -5.767 -7.0755 -4.593 -6.183001 -9.9305 -13.072 -5.585 -4.622 -3.3715 
-8.4425 -9.0395 -7.959 -9.164001 -12.7146 -14.805 -14.3415 -8.186501 -4.622 
-11.8564 -9.5435 -12.9112 -16.3716 -17.5891 -16.0745 -16.943 -8.186501 
-12.3604 -14.7799 -20.1188 -21.2461 -18.8586 -18.676 -16.943 
-3.5455 -4.511 -3.8275 0 -3.676 -3.074 -4.3285 -4.386 -1.7565 -3.9665 -8.2615 0 
-7.4945 -5.767 -3.8275 -3.676 -7.004 -6.7345 -9.061501 -4.539 -5.7295 -9.9305 -8.2615 
-8.4425 -5.767 -7.0755 -7.004 -10.9959 -11.9077 -9.263 -9.286 -12.7627 -9.9305 
-8.4425 -9.0395 -10.4675 -10.9959 -16.1691 -12.1092 -14.2476 -16.7008 -12.7627 
-11.8564 -12.8647 -14.4594 -16.1691 -16.3706 -17.0938 -21.6624 -16.7008 
-3.5455 -4.511 -3.8275 -3.4975 -3.7555 -3.9665 -8.2615 0 
-7.4945 -5.767 -6.8565 -8.357 -9.112 -9.9305 -8.2615 
-8.4425 -8.349 -12.4584 -13.9641 -15.3618 -9.9305 
-11.1659 -14.2879 -18.0655 -20.2139 -15.3618 
-17.1048 -19.895 -24.3153 -20.2139 
