-4.759 
n/a 
n/a 
n/a 
n/a 
-4.759 
n/a 
n/a 
n/a 
n/a 
-4.759 
n/a 
n/a 
n/a 
n/a 
-4.759 
n/a 
n/a 
n/a 
n/a 
-2.3335 -3.193 -6.231 -4.4225 -6.593 -1.756 -4.444 -7.926001 -6.593 0 -6.041 -5.4755 -5.4265 0 
-5.214 -9.2465 -9.250501 -8.773001 -7.857501 -5.9775 -13.333 -10.5035 -6.593 -6.041 -10.2755 -10.032 -5.4265 
-11.8493 -13.0728 -13.8616 -9.3935 -12.375 -14.8905 -15.9105 -10.5035 -10.884 -10.2755 -14.832 -10.032 
-15.6756 -17.6839 -14.4821 -14.1612 -21.288 -17.468 -15.9105 -14.7945 -15.1185 -14.832 -14.832 
-20.2867 -18.3044 -19.2498 -23.0742 -23.8655 -17.468 -20.2015 -19.029 -19.675 -14.832 
-2.264 -2.3335 -2.3335 -4.386 -1.7565 -3.5485 -4.4225 -6.514 0 -4.3235 -4.9185 -6.514 0 -1.756 -3.711 -4.4225 -9.073501 
-4.6785 -5.204 -6.769 -4.539 -4.837 -6.9355 -7.803 -6.514 -4.3235 -9.567 -7.488001 -6.514 -1.756 -5.469501 -7.1085 -14.617 
-7.394 -10.038 -6.8095 -7.432 -8.524 -10.0575 -7.803 -11.9607 -9.567 -12.2871 -7.488001 -7.9775 -5.469501 -8.9055 -17.8478 
-12.6214 -10.0695 -8.851501 -9.51 -11.9964 -10.0575 -14.2157 -17.2042 -12.2871 -12.2871 -9.073501 -10.7495 -8.9055 -19.7432 
-12.6529 -12.3141 -9.6955 -13.4844 -11.9964 -15.9324 -19.4592 -19.9243 -12.2871 -13.8726 -12.0173 -14.1855 -19.7432 
-2.3335 -3.193 -3.5485 -4.4225 -6.514 0 -9.9575 -4.9185 -2.871 0 -1.756 -3.711 -4.4225 -7.476501 
-5.214 -6.794 -6.9355 -7.803 -6.514 -9.9575 -14.9968 -7.859501 -2.871 -1.756 -5.469501 -7.1085 -9.672001 
-9.3155 -10.292 -10.0575 -7.803 -17.5947 -14.9968 -17.9378 -7.859501 -4.864 -5.469501 -8.9055 -10.4505 
-12.8041 -13.414 -10.0575 -19.8497 -22.634 -17.9378 -17.9378 -10.0065 -9.3345 -8.9055 -12.3459 
-15.9261 -13.414 -21.5664 -24.889 -25.575 -17.9378 -20.0848 -14.477 -12.8141 -12.3459 
-2.264 -2.3335 -3.193 0 -3.17 -1.7565 -1.4985 -4.574 -4.4225 -6.5655 0 -4.1065 -4.9185 -6.5655 0 -1.756 -6.041 -4.4225 -5.4265 0 
-4.6785 -5.214 -3.193 -3.17 -4.179 -2.4195 -5.636001 -7.068001 -8.356001 -6.5655 -4.1065 -9.095501 -7.958001 -6.5655 -1.756 -7.097 -8.903001 -8.177 -5.4265 
-6.0465 -5.214 -6.3145 -4.179 -4.497 -6.7155 -8.774 -11.5999 -8.356001 -10.674 -9.095501 -12.277 -7.958001 -8.259001 -7.097 -9.865 -12.8997 -8.177 
-6.0465 -8.3885 -7.194 -4.497 -8.262 -10.057 -13.5083 -11.5999 -12.8825 -15.663 -12.277 -12.277 -9.938001 -13.877 -9.865 -13.8617 -12.8997 
-9.1955 -8.818001 -7.5125 -8.262 -11.9457 -14.7913 -13.5083 -16.1264 -17.8715 -18.8445 -12.277 -14.257 -15.556 -16.645 -13.8617 -13.8617 
