-4.759 
n/a 
n/a 
n/a 
n/a 
-4.759 
n/a 
n/a 
n/a 
n/a 
-4.759 
n/a 
n/a 
n/a 
n/a 
-4.759 
n/a 
n/a 
n/a 
n/a 
-4.6415 0 -9.5775 -6.538 0 -5.7865 0 
-4.6415 -9.5775 -9.614 -6.538 -5.7865 -5.7865 
-14.6552 -9.614 -9.614 -9.514 -5.7865 
-14.6917 -9.614 -10.72 -9.514 
-14.6917 -10.72 -10.72 
-4.6415 0 -12.16972 -8.359 0 -10.5675 0 
-4.6415 -12.16972 -20.52872 -8.359 -10.5675 -10.5675 
-17.24742 -20.52872 -20.52872 -19.3231 -10.5675 
-25.60642 -20.52872 -31.49282 -19.3231 
-25.60642 -31.49282 -31.49282 
-4.6415 0 -12.16972 -10.8905 0 -8.1475 0 
-4.6415 -12.16972 -23.06022 -10.8905 -8.1475 -8.1475 
-17.24742 -23.06022 -23.06022 -19.038 -8.1475 
-28.13792 -23.06022 -31.20772 -19.038 
-28.13792 -31.20772 -31.20772 
-14.219 -6.538 0 -5.7865 0 
-14.6917 -6.538 -5.7865 -5.7865 
-14.6917 -9.514 -5.7865 
-15.7977 -9.514 
-15.7977 
