-4.759 
n/a 
n/a 
n/a 
n/a 
-4.759 
n/a 
n/a 
n/a 
n/a 
-4.759 
n/a 
n/a 
n/a 
n/a 
-4.759 
n/a 
n/a 
n/a 
n/a 
-4.138 -1.7565 -4.3665 -3.515 -3.875 -4.562 -1.7695 -4.2215 0 -3.918 -4.243 0 -4.01 -4.243 0 -6.056 -5.2235 0 -4.314 -5.2235 -1.756 -5.9455 -12.16972 -3.074 -3.197 -1.7565 -4.3665 0 
-5.1845 -5.4475 -7.906001 -8.1575 -8.353001 -7.497001 -7.545001 -4.2215 -3.918 -6.953 -4.243 -4.01 -8.797001 -4.243 -6.056 -11.08 -5.2235 -4.314 -7.1225 -6.645 -7.8015 -18.97682 -15.24372 -5.4255 -6.6495 -5.4475 -4.3665 
-10.1869 -10.7175 -13.7371 -13.1321 -12.3714 -13.7557 -7.545001 -9.7535 -6.953 -6.953 -9.112 -8.797001 -8.797001 -10.404 -11.08 -11.08 -7.867001 -7.1225 -8.384501 -13.4599 -21.11162 -22.05082 -17.59522 -8.8405 -11.0205 -5.4475 
-15.4569 -16.5486 -18.7117 -17.1505 -18.6301 -13.7557 -13.5354 -12.8177 -6.953 -12.3978 -14.3858 -8.797001 -15.2222 -15.428 -11.08 -13.7235 -8.965 -8.384501 -15.61 -26.77002 -24.18562 -24.40232 -21.01022 -13.9999 -11.0205 
-21.288 -21.5232 -22.7301 -23.4092 -18.6301 -19.7461 -16.5996 -12.8177 -12.3978 -17.6716 -14.3858 -15.2222 -20.2462 -15.428 -13.7235 -14.8215 -10.143 -15.61 -28.92012 -29.84402 -26.53712 -27.81732 -26.16962 -13.9999 
-1.4985 -3.515 -2.3335 -2.8645 -4.8595 -2.645 -4.2665 -2.5045 -1.4985 -3.498 -1.7565 -1.4985 -3.5065 -2.186 -1.4985 -4.497 0 -2.7835 -3.5155 -4.1965 -2.674 -4.8595 -2.664 -4.221 -3.264 -1.7565 -4.2665 -3.321 -1.4985 -3.5065 -2.186 -1.8085 -4.503 -3.345 -3.515 -2.186 -4.172 -2.3345 -1.8085 -4.6535 0 
-4.5415 -5.4555 -4.3785 -6.516 -7.104501 -6.946501 -6.659 -3.1915 -4.0295 -4.005 -2.4195 -4.3135 -5.196 -3.339 -5.259 -4.497 -2.7835 -5.602 -6.047 -6.0915 -6.652 -6.889 -5.305 -6.334001 -3.6125 -6.1965 -7.309 -4.481 -4.3135 -5.196 -3.164 -6.181001 -7.465 -5.934501 -5.2785 -6.123 -5.0445 -3.8605 -6.364 -4.6535 
-6.151 -6.6815 -8.458 -7.988 -8.1735 -8.757501 -7.138 -4.454 -4.188 -4.3765 -5.082 -5.603 -6.628 -6.481 -5.259 -6.7165 -5.602 -7.8135 -7.275 -8.740001 -8.462 -9.475 -6.3965 -6.3785 -7.2665 -9.212 -8.433001 -7.2305 -5.603 -6.344501 -7.592 -9.115001 -9.504001 -7.146501 -7.5275 -6.212 -6.2345 -7.949 -6.364 
-7.6095 -8.877501 -9.530001 -8.8365 -9.818501 -8.969001 -8.067 -4.526 -4.4925 -6.5345 -6.3675 -7.1215 -8.699 -6.481 -7.591001 -8.728001 -7.8135 -8.755501 -9.373 -9.953501 -9.8525 -9.634501 -6.4335 -9.196501 -9.865001 -9.809 -9.897 -8.0675 -6.940001 -8.601501 -10.126 -9.726001 -10.25 -9.066501 -7.5435 -7.147 -8.939501 -7.949 
-9.165001 -9.705001 -9.8645 -9.986501 -9.9785 -9.8745 -8.0905 -4.823 -6.574 -8.266 -7.527501 -8.781501 -8.699 -8.376 -8.762 -9.369 -8.755501 -9.834001 -10.042 -9.993501 -9.891001 -9.696001 -9.211 -10.075 -9.981001 -10.0995 -10.0895 -9.1185 -8.672001 -10.4105 -10.4405 -10.4875 -10.4955 -9.083 -8.543 -9.910501 -8.939501 
-3.845 -1.7565 -3.4975 -3.4765 -3.152 -2.985 -4.2705 -2.5045 -3.982 -7.966 0 -5.881 0 -12.16972 0 -5.372 -3.152 -4.6275 -2.3345 -4.3665 0 
-4.13 -4.91 -6.698501 -6.335001 -6.5165 -6.6185 -6.9305 -6.456 -10.516 -8.8675 -5.881 -5.881 -12.16972 -12.16972 -5.372 -9.453501 -6.291 -5.9515 -6.674001 -4.3665 
-7.614501 -9.5505 -9.2305 -9.824 -10.0855 -9.1815 -11.4068 -13.4415 -9.6625 -13.3316 -5.881 -19.22812 -12.16972 -17.54172 -9.453501 -12.6513 -7.265 -9.434 -6.674001 
-10.75 -12.1387 -13.1059 -13.393 -12.6485 -13.754 -18.4273 -13.4765 -14.7118 -13.3316 -19.22812 -19.22812 -17.54172 -21.62322 -12.6513 -13.6253 -9.913001 -9.434 
-13.3382 -16.0141 -16.6749 -15.956 -17.221 -20.7745 -18.4273 -18.5258 -14.7118 -27.46252 -19.22812 -24.60012 -21.62322 -24.82102 -13.6253 -16.2733 -9.913001 
-3.17 -1.7565 -1.4985 -3.4975 -3.515 -2.674 -5.377 -2.5195 -3.982 -3.959 -4.211 0 -5.881 -5.146 -5.2235 0 -4.314 -5.2235 -2.4945 -3.135 -1.7565 -3.277 
-4.179 -2.4195 -4.3125 -6.617001 -7.074 -6.6085 -6.181 -6.431 -5.6075 -9.603001 -4.211 -5.881 -10.66 -7.290501 -5.2235 -4.314 -7.1225 -8.349501 -4.575 -3.9195 -4.25 
-4.497 -4.9065 -8.007501 -9.506001 -11.3579 -7.221 -9.646501 -7.6445 -11.5305 -9.603001 -7.829 -10.66 -12.8045 -7.290501 -7.867001 -7.1225 -9.7825 -10.75 -5.097 -5.3165 
-7.6415 -8.795501 -11.4283 -13.7881 -11.9704 -10.8661 -10.47 -13.7807 -11.5305 -13.5888 -13.6008 -12.8045 -12.8045 -9.723001 -8.965 -9.7825 -12.183 -11.272 -7.294 
-10.403 -12.2845 -15.7104 -14.4006 -15.6155 -11.6896 -16.6062 -13.7807 -15.5163 -19.3606 -15.7453 -12.8045 -15.237 -9.842501 -11.9932 -12.183 -12.705 -13.469 
