-4.759 
n/a 
n/a 
n/a 
n/a 
-4.759 
n/a 
n/a 
n/a 
n/a 
-4.759 
n/a 
n/a 
n/a 
n/a 
-4.759 
n/a 
n/a 
n/a 
n/a 
-3.6705 -3.1435 -5.1265 -2.186 -7.228 -2.264 -1.4985 -4.0435 -1.7565 -3.8735 0 
-6.400001 -7.964001 -7.665 -8.8935 -9.995501 -2.9195 -5.16 -4.7605 -5.112 -3.8735 
-11.6095 -10.0005 -14.5775 -12.1428 -10.5185 -5.695 -5.842 -7.8985 -5.112 
-13.646 -16.913 -17.8268 -12.6658 -13.8952 -6.174 -9.9874 -7.8985 
-20.5585 -20.1623 -18.3498 -16.0425 -14.3742 -10.4836 -9.9874 
-3.6705 -1.4985 -4.4755 -1.7565 -2.3615 -2.9905 -1.7565 -3.8735 -2.186 -4.465 0 
-4.5585 -5.4715 -5.392 -3.523 -5.445 -3.6185 -5.112 -5.949 -5.7155 -4.465 
-8.415501 -5.597001 -6.974 -7.456501 -6.5705 -7.343 -7.035501 -9.874001 -5.7155 
-8.67 -7.460501 -11.9101 -8.029501 -10.513 -9.241 -11.0545 -9.874001 
-10.316 -12.1454 -12.4831 -12.1972 -12.411 -13.3032 -11.0545 
-2.8965 -4.707 -1.7695 -3.8735 -2.3615 -2.664 -3.383 -4.4715 -4.4115 0 
-6.427 -6.426001 -5.578001 -6.609 -5.882 -7.261 -8.7775 -8.47 -4.4115 
-8.087501 -10.9865 -7.8465 -10.5121 -9.972 -12.8817 -13.381 -8.47 
-12.8752 -13.255 -11.9922 -14.6021 -15.5927 -17.4852 -13.381 
-15.1437 -17.4007 -16.0822 -20.2228 -20.1962 -17.4852 
-2.872 -4.7885 -1.7565 -3.8735 -4.4755 -4.2065 0 
-8.699501 -8.026001 -5.112 -8.739 -9.435 -4.2065 
-12.1272 -11.7611 -9.668501 -14.1341 -9.435 
-15.8623 -16.3176 -15.1216 -14.1341 
-20.4188 -21.7707 -15.1216 
