-4.759 
n/a 
n/a 
n/a 
n/a 
-4.759 
n/a 
n/a 
n/a 
n/a 
-4.759 
n/a 
n/a 
n/a 
n/a 
-4.759 
n/a 
n/a 
n/a 
n/a 
-2.872 -1.7695 -2.9645 -2.3615 -3.1335 -3.9775 -3.862 -3.818 -3.331 -2.186 -3.989 
-4.9315 -3.812 -4.419 -4.7915 -7.284 -4.954 -4.5235 -6.765 -5.1105 -4.923 
-6.9935 -4.966 -6.242001 -10.5975 -9.397501 -5.15 -7.719 -8.1375 -7.5495 
-8.445001 -6.3615 -12.7066 -12.711 -9.9905 -7.8295 -8.446 -10.4675 
-10.1945 -13.1327 -14.8201 -13.304 -12.74 -8.486 -11.7806 
-3.4765 -2.3615 -3.1335 -4.079 -6.032 -3.862 -3.331 -3.36 -2.674 -1.7695 0 
-6.150001 -4.7915 -7.429 -11.3704 -10.932 -6.9545 -6.4565 -6.3505 -3.787 -1.7695 
-9.594501 -8.4685 -15.5282 -16.2704 -14.0245 -10.7175 -10.7594 -8.054501 -3.787 
-13.2947 -16.9651 -20.4282 -19.3629 -17.7875 -15.8584 -12.4634 -8.054501 
-21.7913 -21.8651 -23.5207 -23.1259 -22.9284 -17.5624 -12.4634 
-2.3615 -8.2135 -3.2955 -9.979 -3.862 
-10.411 -11.8852 -14.4143 -13.9494 
-14.0827 -23.004 -18.3847 
-25.2015 -26.9744 
-29.1719 
-2.872 -2.0935 -3.3425 -2.3615 -3.1335 -3.9775 -3.862 -3.818 -3.331 -2.186 -3.3875 -2.0935 -1.4985 -3.8925 
-4.8935 -5.21 -4.77 -4.7915 -7.284 -4.954 -4.5235 -6.765 -5.1105 -6.837 -5.95 -2.9725 -5.0365 
-8.788501 -6.764 -6.393 -10.5975 -9.397501 -5.15 -7.719 -8.1375 -9.6855 -8.0705 -7.055501 -6.9615 
-10.5425 -7.8 -12.846 -12.711 -9.9905 -7.8295 -8.446 -13.4257 -10.588 -9.2955 -11.3861 
-11.5785 -14.2348 -14.9595 -13.304 -12.74 -8.486 -14.7388 -14.3282 -11.813 -13.6639 
