-4.759 
n/a 
n/a 
n/a 
n/a 
-4.759 
n/a 
n/a 
n/a 
n/a 
-4.759 
n/a 
n/a 
n/a 
n/a 
-4.759 
n/a 
n/a 
n/a 
n/a 
-3.5445 -4.0005 -2.95 -4.204 -2.925 -3.687 -2.985 -3.6175 -1.756 -3.9355 -1.7695 -6.515501 0 
-6.6555 -6.293 -5.4655 -7.357 -5.9565 -6.323 -5.6975 -5.2705 -5.319 -5.7355 -8.7935 -6.515501 
-7.944 -7.55 -7.883 -10.733 -7.278501 -8.634501 -6.7905 -8.2745 -7.215 -13.7459 -8.7935 
-9.642 -9.658 -11.465 -12.055 -9.3505 -9.894001 -9.456 -10.586 -15.759 -13.7459 
-11.856 -13.2546 -12.787 -14.127 -10.6225 -12.5595 -11.9299 -19.13 -15.759 
-3.815 -2.95 -2.9805 -5.8145 -2.3335 -3.6175 -1.756 -3.3165 -1.7695 -7.9575 0 
-5.462501 -5.2005 -7.637001 -8.2825 -6.1115 -5.2705 -4.952 -3.881 -10.6095 -7.9575 
-7.282001 -10.209 -9.503 -13.1171 -7.341001 -7.83 -5.6175 -13.1144 -10.6095 
-12.6137 -12.2316 -14.1844 -14.3466 -9.961 -8.439501 -15.2693 -13.1144 
-14.6363 -16.913 -15.4139 -16.9666 -10.764 -18.6375 -15.2693 
-2.3335 -3.815 -3.5215 -3.9355 -2.4265 -2.3335 -3.213 -1.756 -3.3165 -1.7695 -6.515501 0 
-6.445001 -7.5725 -7.7295 -5.362 -4.9555 -5.2935 -4.5875 -4.952 -3.881 -8.7935 -6.515501 
-10.575 -12.2013 -9.264501 -7.6835 -8.7025 -6.877501 -7.484 -5.6175 -10.218 -8.7935 
-15.2038 -13.7363 -11.9268 -12.0525 -10.3605 -9.836 -7.832 -12.3729 -10.218 
-16.7388 -16.3986 -16.2958 -13.7105 -13.319 -10.3445 -15.3518 -12.3729 
-3.135 -3.5215 -1.7565 -2.3335 -3.9355 -2.4265 -1.7695 -3.3165 -6.515501 0 
-6.2085 -5.1615 -4.314 -6.3415 -5.362 -4.11 -4.0585 -10.341 -6.515501 
-8.092501 -8.035501 -8.1645 -8.283001 -6.0185 -6.410501 -11.8182 -10.341 
-11.5823 -12.4368 -10.085 -8.906501 -9.0895 -14.5738 -11.8182 
-15.9836 -14.3573 -10.36 -12.2199 -17.4956 -14.5738 
