-4.759 
n/a 
n/a 
n/a 
n/a 
-4.759 
n/a 
n/a 
n/a 
n/a 
-4.759 
n/a 
n/a 
n/a 
n/a 
-4.759 
n/a 
n/a 
n/a 
n/a 
-5.392 -3.0435 -2.8645 -4.911 -2.5045 -4.2815 -1.7695 -4.253 -3.277 -3.851 -1.7695 -3.869 -4.1225 0 
-8.734 -5.8105 -5.7465 -6.8585 -5.3865 -4.4915 -5.056 -6.5275 -6.528501 -4.0015 -6.014 -8.529 -4.1225 
-11.8318 -9.187 -8.017 -8.3135 -5.506001 -7.4725 -8.0375 -9.067 -6.573 -6.8185 -9.5775 -8.529 
-15.2083 -10.451 -9.591001 -8.4715 -8.4575 -8.620501 -9.8395 -9.082001 -9.55 -9.7535 -9.5775 
-16.4723 -12.3532 -9.684501 -11.8354 -9.533001 -10.733 -9.870001 -12.3804 -12.4468 -9.7535 
-3.736 -5.6375 
-10.214 
n/a 
n/a 
n/a 
-4.064 -1.7565 -4.2045 -3.3755 -1.7565 -4.293 -3.135 -1.7565 -1.4985 -4.293 -3.4425 -2.186 -4.9125 0 
-4.3045 -5.733 -8.287001 -4.5295 -6.023 -7.904 -3.9195 -2.4195 -5.97 -7.125 -5.194 -6.2565 -4.9125 
-8.7115 -10.3925 -8.59 -8.4425 -9.2945 -8.448 -4.168 -6.856 -8.295 -8.762501 -8.9445 -6.2565 
-13.4296 -10.6955 -12.8692 -12.0038 -9.7215 -8.585501 -8.745501 -8.964001 -9.498001 -12.6532 -8.9445 
-13.7326 -14.9747 -16.4305 -12.4308 -9.8615 -13.4552 -10.9231 -10.758 -13.4395 -12.6532 
-3.4765 0 -4.293 -4.3195 -4.5345 -3.851 -1.7695 -1.4985 -5.379 -3.991 -4.3755 -4.972 0 
-3.4765 -4.293 -8.639 -8.3235 -8.0155 -4.0015 -2.7955 -6.6485 -8.363001 -7.816 -7.7695 -4.972 
-8.325001 -8.639 -12.9186 -10.389 -8.0325 -4.5775 -7.873001 -10.044 -12.6972 -11.9982 -7.7695 
-13.0216 -12.9186 -14.9841 -10.401 -8.4175 -8.362 -11.3501 -14.392 -16.8794 -11.9982 
-17.3012 -14.9841 -14.9961 -10.786 -12.3604 -11.9607 -15.6981 -18.5742 -16.8794 
