-4.759 
n/a 
n/a 
n/a 
n/a 
-4.759 
n/a 
n/a 
n/a 
n/a 
-4.759 
n/a 
n/a 
n/a 
n/a 
-4.759 
n/a 
n/a 
n/a 
n/a 
-3.6055 -4.752 -2.674 -4.191 -4.346 0 
-9.021 -8.366 -6.774 -8.634501 -4.346 
-12.8756 -12.863 -9.975 -8.634501 
-17.3726 -16.064 -9.975 
-20.5736 -16.064 
-3.345 -12.16972 -2.8645 -2.6615 -4.1455 
-16.64852 -15.03422 -6.325 -6.263 
-19.51302 -18.49472 -9.108001 
-22.97352 -21.27772 
-25.75652 
-3.345 -3.355 -3.7875 -2.6615 -5.3255 0 
-6.1425 -7.415001 -7.3315 -8.6575 -5.3255 
-8.899501 -11.2218 -13.6893 -8.6575 
-12.8571 -17.5796 -13.6893 
-19.2149 -17.5796 
-3.6055 -3.4715 -2.674 -3.5005 -4.191 -4.1455 
-7.021 -7.132 -7.271 -7.545001 -7.0705 
-10.468 -12.1824 -11.6249 -10.6605 
-15.5184 -16.5363 -14.7404 
-19.8723 -19.6518 
