-4.759 
n/a 
n/a 
n/a 
n/a 
-4.759 
n/a 
n/a 
n/a 
n/a 
-4.759 
n/a 
n/a 
n/a 
n/a 
-4.759 
n/a 
n/a 
n/a 
n/a 
-3.1435 -3.4905 -1.756 -3.6045 -2.186 -3.4915 -3.644 -3.1575 -3.6075 -2.95 
-6.017 -4.954 -5.0065 -5.5625 -4.979 -4.9885 -4.568501 -6.344501 -6.961 
-6.722 -7.056 -7.196 -7.669 -6.079 -5.6795 -7.586501 -9.805 
-9.184501 -9.099 -9.431001 -7.916 -6.527 -8.2725 -11.1628 
-10.6605 -11.384 -9.954 -8.2605 -9.103001 -11.986 
-2.3615 -3.383 -4.377 -1.756 -4.9705 0 
-5.438 -5.902 -5.533501 -5.9575 -4.9705 
-7.9595 -6.8005 -10.9984 -5.9575 
-9.179501 -12.5282 -10.9984 
-14.9708 -12.5282 
-2.3615 -3.8275 -2.186 -3.17 -4.452 -1.7565 -1.4985 -3.188 
-5.965 -5.669 -5.1385 -8.517 -7.3685 -2.4195 -3.619 
-6.9275 -8.7865 -11.2569 -11.7737 -8.4855 -4.4095 
-10.476 -15.0931 -14.5136 -12.8907 -10.6103 
-16.7826 -18.3498 -15.6306 -15.0155 
-1.4985 -4.856 -1.756 -1.4985 -3.931 -3.152 -4.318 -1.756 -2.645 -3.034 -4.2815 -1.7695 -2.8965 -4.5165 0 
-5.6305 -6.087501 -3.0405 -5.055 -7.427 -7.158 -5.998 -3.898 -5.941501 -5.568 -4.4915 -4.497 -7.3835 -4.5165 
-7.251 -7.209001 -6.4055 -8.8225 -11.7544 -7.956 -8.549001 -6.8745 -8.375 -5.7335 -5.791 -8.927501 -7.3835 
-8.337501 -9.109501 -10.513 -13.2505 -12.5524 -10.7025 -11.8189 -9.867001 -8.570001 -6.8195 -9.5425 -8.927501 
-10.1935 -13.8634 -14.941 -14.0485 -15.2989 -13.9724 -14.8114 -10.257 -9.834001 -10.7575 -9.5425 
