-4.759 
n/a 
n/a 
n/a 
n/a 
-4.759 
n/a 
n/a 
n/a 
n/a 
-4.759 
n/a 
n/a 
n/a 
n/a 
-4.759 
n/a 
n/a 
n/a 
n/a 
-1.934 -3.333 -1.7695 -4.797 -2.3615 0 -5.7865 -3.0785 -1.934 -4.4435 -1.4985 -4.6835 -2.356 -4.5145 -2.5045 -1.8085 -3.93 -3.518 0 
-3.9835 -4.022 -5.014 -6.483001 -2.3615 -5.7865 -8.515 -5.132 -6.4155 -5.475 -6.0905 -6.960001 -6.827001 -6.6625 -3.913 -4.836 -5.231501 -3.518 
-4.0425 -6.194 -6.615 -6.483001 -9.693001 -8.515 -11.7775 -8.976501 -7.36 -9.915501 -8.1505 -8.699 -9.107 -8.3795 -5.9845 -5.4075 -5.231501 
-6.1975 -7.6285 -6.615 -14.3493 -12.4215 -11.7775 -15.622 -9.571501 -11.9785 -12.0053 -10.096 -11.2806 -10.7035 -10.426 -6.5375 -5.4075 
-7.630001 -7.6285 -14.5153 -17.0778 -15.684 -15.622 -16.217 -14.19 -14.0683 -13.9508 -12.9546 -12.8771 -12.75 -10.979 -6.5375 
-2.3615 -3.0785 -1.7695 -4.055 0 -4.6955 0 -4.6905 -2.4945 -2.674 -3.0785 -1.7695 -4.6835 0 
-5.954 -4.903 -5.724 -4.055 -4.6955 -4.6955 -4.6905 -7.4615 -6.7615 -6.861 -4.903 -6.967501 -4.6835 
-7.81 -8.837501 -5.724 -7.657001 -4.6955 -8.8465 -7.4615 -11.9593 -11.1469 -8.397 -11.1814 -6.967501 
-12.0107 -8.837501 -9.9505 -7.657001 -8.8465 -11.9209 -11.9593 -16.3447 -12.6829 -14.8722 -11.1814 
-12.0107 -13.3484 -9.9505 -12.2016 -11.9209 -16.4187 -16.3447 -17.8807 -19.1581 -14.8722 
-2.3615 -2.186 -3.0785 -2.791 0 -5.2575 0 -4.5145 0 -3.7875 -4.6835 -4.3855 -1.7695 -2.925 0 
-3.5005 -6.6615 -4.7485 -2.791 -5.2575 -5.2575 -4.5145 -4.5145 -3.7875 -8.42 -9.384001 -5.225 -5.921501 -2.925 
-8.3405 -8.1145 -4.7485 -9.371 -5.2575 -10.523 -4.5145 -8.191501 -8.42 -13.6127 -10.3755 -8.93 -5.921501 
-9.6485 -8.1145 -12.7163 -9.371 -10.523 -10.523 -8.191501 -12.978 -13.6127 -14.6042 -14.3989 -8.93 
-9.6485 -16.5109 -12.7163 -14.8829 -10.523 -14.2 -12.978 -18.1707 -14.6042 -18.6276 -14.3989 
-2.0935 -2.3615 -2.4265 -2.8645 -1.7695 -3.93 -3.1435 -4.752 0 -4.5145 -2.9705 -2.186 -4.523 -2.3345 -4.6835 0 
-3.854 -5.3335 -4.1435 -4.4755 -5.515501 -7.578001 -7.615001 -4.752 -4.5145 -6.946 -3.89 -7.046 -6.055 -7.630501 -4.6835 
-6.625 -6.948 -5.439 -9.951 -10.5035 -12.4961 -7.615001 -7.703501 -6.946 -8.3645 -8.6525 -7.397 -12.0036 -7.630501 
-8.2605 -7.923 -11.2391 -15.1456 -15.4216 -12.4961 -10.0405 -10.1725 -8.3645 -13.2556 -8.802501 -13.5598 -12.0036 
-9.191 -14.0175 -16.4337 -20.0637 -15.4216 -14.9216 -12.6089 -11.7656 -13.2556 -13.4056 -15.1877 -13.5598 
