-4.759 
n/a 
n/a 
n/a 
n/a 
-4.759 
n/a 
n/a 
n/a 
n/a 
-4.759 
n/a 
n/a 
n/a 
n/a 
-4.759 
n/a 
n/a 
n/a 
n/a 
-4.02 -4.7195 -3.9555 -3.851 -1.7695 -3.644 -5.523 -3.6395 -1.756 -3.299 -4.2705 -3.6395 
-8.8 -8.251 -7.856 -4.0015 -5.0855 -10.061 -10.0855 -5.162 -4.873 -7.3875 -6.004 
-12.6019 -12.7667 -7.877 -6.4665 -12.0065 -14.6235 -11.7122 -7.8155 -8.5815 -7.9835 
-17.1176 -12.7877 -10.0505 -14.1361 -16.569 -16.2502 -14.3657 -10.6875 -9.604 
-17.1386 -14.9612 -17.9881 -18.6986 -18.1957 -18.9037 -17.2377 -11.71 
-4.157 -4.2705 -3.6395 0 -4.3905 -3.956 -3.6395 0 -1.756 -4.416 -4.493 -2.5195 -2.8965 -3.959 -3.43 -3.1495 -6.403 -3.959 -4.02 -4.7195 -3.9555 
-8.338501 -6.004 -3.6395 -4.3905 -8.288 -5.7595 -3.6395 -1.756 -5.6355 -9.7775 -6.9115 -4.786 -4.940001 -7.543 -6.265 -10.2865 -11.9058 -7.824 -8.8 -8.251 
-9.132501 -6.004 -7.483 -8.288 -9.314501 -5.7595 -5.162 -5.6355 -11.9168 -12.196 -8.541 -6.2015 -8.606001 -10.27 -13.6838 -15.5769 -15.7708 -12.9014 -12.6019 
-9.132501 -10.0185 -11.7821 -9.314501 -9.314501 -7.862 -9.1665 -11.9168 -14.3353 -13.8255 -9.083 -9.7865 -11.4882 -17.6888 -18.9742 -19.4419 -20.8482 -16.7033 
-13.3774 -14.3578 -12.8086 -9.314501 -10.635 -12.2357 -15.678 -14.3353 -15.9648 -14.3675 -12.7412 -12.6937 -18.907 -22.9792 -22.8392 -24.5193 -24.6501 
-1.4985 -4.02 -1.7565 -1.4985 -3.4225 -4.1265 -2.8645 -4.926 -4.157 -3.851 -1.7695 -1.4985 -3.999 -3.956 -3.6395 -1.756 -3.93 -4.2705 -3.6395 -4.894 0 
-4.914001 -5.1665 -2.4195 -3.9655 -6.775001 -6.3285 -6.712501 -9.133 -6.865 -4.0015 -2.7955 -4.7585 -7.7765 -5.7595 -5.162 -5.34 -7.783501 -6.004 -7.8935 -4.894 
-5.776 -6.016 -4.6245 -7.0385 -9.327001 -10.1425 -10.4345 -11.8986 -6.8865 -4.5775 -6.013 -9.011001 -8.2685 -7.862 -8.1175 -8.907001 -8.3795 -11.3544 -7.8935 
-6.3345 -7.063 -7.726 -9.5045 -13.18 -13.9845 -13.2001 -11.9201 -7.357 -7.170001 -10.3285 -9.3785 -9.67 -9.9835 -11.8023 -10.3225 -14.2705 -11.3544 
-7.441 -10.9679 -10.426 -13.3701 -17.022 -16.7501 -13.2216 -12.3906 -9.81 -11.9119 -10.7664 -10.9684 -10.4785 -14.2557 -13.2178 -16.2135 -14.2705 
-3.851 -1.7695 -3.299 -4.2705 -3.6395 0 -3.644 -3.956 -3.6395 -1.756 -4.448 -5.25 0 -1.4985 -4.02 -1.7565 -3.1495 -4.39 -4.101 -2.925 -3.383 -5.4945 
-4.0015 -4.948 -7.3875 -6.004 -3.6395 -3.644 -8.078 -5.7595 -5.162 -5.634 -9.910501 -5.25 -1.4985 -4.914001 -5.1665 -3.914 -6.8485 -8.574 -5.7175 -6.304501 -7.6235 
-6.3225 -8.953 -7.9835 -6.004 -6.987 -8.078 -8.573501 -7.862 -9.446501 -11.4433 -9.910501 -6.883 -4.914001 -5.776 -7.5385 -7.4225 -10.586 -10.3225 -8.7685 -9.199501 
-9.403501 -10.163 -7.9835 -9.248 -9.72 -8.573501 -9.420501 -12.5157 -15.3622 -11.4433 -11.5435 -9.601001 -5.776 -7.851 -10.0605 -11.2596 -12.3345 -13.3735 -10.2985 
-10.4195 -10.163 -9.9665 -9.744 -9.738 -9.420501 -14.5248 -18.4314 -15.3622 -13.0763 -14.2615 -10.02 -7.851 -10.3815 -13.9824 -13.0081 -15.3855 -14.9035 
