-4.759 
n/a 
n/a 
n/a 
n/a 
-4.759 
n/a 
n/a 
n/a 
n/a 
-4.759 
n/a 
n/a 
n/a 
n/a 
-4.759 
n/a 
n/a 
n/a 
n/a 
-2.5195 -5.4295 -3.0365 -2.186 -2.847 -3.4625 -1.934 -4.0085 -3.9665 0 -1.934 -3.5905 -3.333 -2.4265 -4.066 -3.325 -3.1205 -4.184 -3.5435 -3.4075 -4.0085 -3.9665 
-7.808001 -8.632 -3.66 -4.1045 -5.5105 -4.565 -6.209 -5.933 -3.9665 -1.934 -5.055 -7.4685 -5.874001 -4.728 -6.5505 -6.175 -6.052 -8.509501 -6.6165 -6.3745 -5.933 
-11.6157 -9.5135 -4.256001 -6.765 -6.037 -8.566501 -8.6995 -5.933 -5.47 -5.055 -9.83 -9.8085 -8.849501 -7.7955 -10.0499 -10.5535 -10.9801 -11.6947 -9.972 -7.538501 
-12.4972 -10.21 -6.787001 -7.042 -10.3605 -11.522 -8.6995 -7.212 -8.239 -9.83 -12.17 -12.9048 -11.7274 -11.3559 -14.4284 -15.4816 -14.1653 -15.0502 -11.136 
-13.1937 -12.741 -7.048501 -11.8241 -13.316 -11.522 -10.598 -9.9945 -13.0796 -12.17 -15.2663 -15.7827 -15.2878 -15.7344 -19.3565 -18.6668 -17.5208 -16.2142 
-3.4945 -2.9995 -3.4625 -1.934 -1.4985 -6.899 -4.0085 -3.6215 -1.934 -5.4295 0 -4.0555 -3.325 -1.4985 -4.0085 -3.6215 -2.3345 -1.4985 -3.1205 -4.184 -4.4485 -3.43 -1.934 -3.5905 
-4.9185 -5.654 -4.565 -2.6125 -8.336 -10.622 -5.2395 -5.679501 -6.678 -5.4295 -4.0555 -6.2735 -3.898 -4.866 -5.2395 -6.330501 -3.233 -5.779 -6.052 -7.3055 -6.6585 -4.639 -5.055 
-7.166 -6.0485 -5.1315 -9.951 -12.152 -11.853 -6.9665 -10.159 -6.678 -9.2395 -6.2735 -6.9505 -7.608 -6.1735 -7.891 -7.2755 -7.6895 -6.860001 -8.817 -10.1035 -8.466001 -7.769 
-7.48 -6.4 -12.9824 -13.767 -13.383 -13.58 -11.7068 -10.159 -9.403001 -11.9337 -6.9505 -10.361 -9.280001 -8.5345 -8.908001 -12.1936 -8.6695 -8.924001 -11.7426 -12.0176 -10.459 
-7.867001 -14.7257 -16.7984 -14.998 -15.11 -18.3203 -11.7068 -12.9642 -12.221 -12.6107 -10.361 -12.033 -11.7664 -9.402 -13.9237 -13.1736 -10.031 -11.9026 -13.6567 -14.0106 
-1.934 -5.4295 -3.0365 -2.7415 -2.847 -3.6615 -1.934 -1.4985 -4.0085 -3.6215 -2.9705 -2.7415 -3.918 -2.3345 -1.4985 -3.4075 -3.333 -3.515 -1.934 -1.4985 -3.1205 -1.4985 -4.579 -3.519 -3.5905 0 
-6.678 -8.632 -4.2225 -4.8165 -5.849 -4.437 -2.6125 -4.866 -5.2395 -6.446 -4.512 -6.377501 -5.646501 -3.233 -4.118 -7.465001 -7.728 -5.256 -2.6125 -5.779 -5.3525 -4.988 -8.908501 -8.0665 -3.5905 
-9.0045 -9.1895 -4.944 -8.9975 -6.657 -5.0245 -6.4975 -6.1735 -7.768 -7.7045 -8.2235 -6.553 -6.640501 -5.232 -7.915 -12.656 -10.2485 -5.782 -6.949 -8.299001 -8.977 -9.3225 -13.8436 -8.0665 
-9.443001 -10.323 -9.061001 -9.534 -7.154 -8.969001 -7.4635 -8.347 -9.053 -11.7246 -8.3745 -7.627501 -8.877001 -9.409 -13.5256 -15.1765 -10.643 -9.9005 -9.719501 -12.1245 -13.5645 -14.5774 -13.8436 
-10.6895 -14.44 -9.558001 -9.811001 -11.3371 -9.574501 -9.6155 -9.724 -13.0047 -11.8756 -9.2805 -9.708501 -13.1806 -15.284 -16.0461 -15.571 -14.7615 -13.1176 -13.545 -16.712 -18.8194 -14.5774 
-1.4985 -4.0085 -2.9705 -6.3235 -3.4945 -3.8175 -3.6615 -3.5065 -5.4295 0 -1.934 -3.5905 -2.356 -1.4985 -4.7815 -4.868 -4.4485 -4.0085 -2.7415 -4.3155 -3.325 -3.4075 -4.0085 -3.9955 0 
-4.866 -7.238 -7.904 -8.255 -6.817 -5.9145 -4.64 -7.869 -5.4295 -1.934 -5.055 -6.336 -3.1615 -5.759001 -9.328501 -6.1485 -8.317 -6.967 -5.688 -6.3995 -6.714 -6.3745 -7.0245 -3.9955 
-7.707 -12.4321 -9.992001 -10.382 -7.915501 -7.8475 -11.1249 -7.869 -7.194 -5.055 -6.8175 -6.983 -7.880501 -9.533501 -9.456501 -10.7472 -12.0743 -9.767 -7.535501 -9.774 -10.1305 -8.3 -7.0245 
-13.0169 -14.5201 -12.3302 -11.4805 -10.3345 -13.6326 -11.1249 -9.493501 -10.4674 -6.8175 -7.3785 -12.1264 -11.9082 -9.6 -14.281 -14.5045 -14.8743 -11.7943 -10.674 -13.3615 -12.2094 -8.3 
-15.1049 -16.8583 -13.4287 -13.8995 -16.1196 -13.6326 -12.7494 -13.0863 -12.2299 -7.3785 -12.6541 -16.1541 -11.9747 -14.3911 -18.0383 -17.3045 -16.9016 -14.9328 -14.2615 -15.4404 -12.2094 
