-4.759 
n/a 
n/a 
n/a 
n/a 
-4.759 
n/a 
n/a 
n/a 
n/a 
-4.759 
n/a 
n/a 
n/a 
n/a 
-4.759 
n/a 
n/a 
n/a 
n/a 
-2.5045 -1.4985 -4.495 -1.7565 -4.8565 -2.264 -4.489 -5.923 -1.934 -4.87 0 -3.3825 -4.0555 -1.7695 -4.2675 
-3.583 -5.4805 -5.435 -6.2885 -7.009501 -7.5325 -10.718 -6.673 -6.35 -4.87 -3.3825 -7.686501 -4.7475 -4.8665 
-7.824 -5.939 -9.2845 -8.485001 -12.9946 -14.3575 -11.468 -10.2865 -6.35 -9.3855 -7.686501 -8.577001 -7.8375 
-8.1225 -10.107 -11.6766 -14.7581 -19.8196 -15.1075 -15.0815 -10.2865 -9.894001 -14.0879 -8.577001 -11.978 
-12.4137 -12.4375 -17.9497 -21.5831 -20.5696 -18.721 -15.0815 -14.0611 -14.9634 -14.9784 -11.978 
-2.3345 -1.4985 -3.898 -1.7565 -3.4075 -4.2655 -1.934 -4.87 -4.896 -3.7015 -4.489 0 
-3.233 -5.0465 -4.9795 -5.009 -7.573 -5.8575 -6.35 -9.951 -8.774 -7.742001 -4.489 
-6.93 -5.3325 -8.016001 -9.466001 -9.0345 -9.764 -11.6986 -13.9462 -13.0407 -7.742001 
-7.175 -8.290001 -12.937 -10.544 -13.0172 -15.2538 -15.6938 -18.2129 -13.0407 
-10.0435 -13.268 -14.015 -14.5267 -18.507 -19.249 -19.9605 -18.2129 
-4.489 -4.0645 -3.7015 -10.283 -3.4075 -4.0555 
-10.151 -7.650001 -14.9745 -13.8323 -8.899 
-13.7955 -19.3826 -18.5238 -19.3238 
-25.5281 -22.9319 -24.0153 
-29.0774 -28.4234 
-7.4475 -5.715 -5.0355 -3.3235 -1.4985 -3.898 -1.7565 -4.87 -3.3155 -3.0365 -2.7415 -1.8085 -4.0205 -8.577001 -4.495 
-12.353 -10.8415 -8.0425 -5.0395 -5.0465 -4.9795 -6.297501 -8.059501 -5.0985 -4.2225 -3.891 -4.688 -13.087 -16.081 
-14.7216 -13.8485 -9.3395 -8.696 -5.3325 -10.172 -8.6715 -9.747001 -6.239501 -4.725 -6.4555 -14.0137 -19.3232 
-18.1446 -15.1455 -12.996 -9.0375 -10.702 -12.546 -10.8436 -10.705 -6.7465 -6.866 -15.5018 -19.8803 
-19.4416 -18.802 -13.3375 -14.5248 -13.076 -14.7181 -11.8016 -11.212 -8.757501 -15.9469 -21.5184 
