-4.759 
n/a 
n/a 
n/a 
n/a 
-4.759 
n/a 
n/a 
n/a 
n/a 
-4.759 
n/a 
n/a 
n/a 
n/a 
-4.759 
n/a 
n/a 
n/a 
n/a 
-4.2635 -2.4945 -4.996 -1.7565 -3.571 -4.449 -4.161 
-5.8635 -8.542 -7.238501 -5.085001 -7.431 -8.243501 
-12.7554 -9.552 -11.0558 -9.0535 -11.4433 
-13.7654 -13.4839 -15.0243 -13.1962 
-17.6973 -17.4524 -19.167 
-4.101 -4.161 -2.4945 -4.465 -3.2295 -1.4985 -2.8965 -4.161 
-8.0935 -6.052 -6.062 -7.66 -3.844 -3.928 -6.304 
-9.715501 -9.426001 -9.204 -8.166 -6.344 -7.4575 
-13.2575 -12.6568 -9.751 -11.1236 -10.7025 
-16.4883 -13.2038 -12.824 -15.4821 
-3.1495 -2.4945 -4.079 -2.0935 -1.4985 -3.4985 -1.7565 -3.571 -4.028 0 
-4.459 -5.7875 -5.1445 -2.9725 -4.798 -4.622 -5.085001 -6.5935 -4.028 
-7.482 -6.3595 -6.342 -6.096 -5.425 -7.604 -8.448501 -6.5935 
-8.082001 -7.569 -8.927501 -6.374001 -8.0465 -10.374 -8.448501 
-9.532001 -9.8435 -9.0115 -10.4425 -11.0027 -10.374 
-6.0175 -4.161 -2.4945 -3.535 -4.7945 -3.2955 -1.7695 -3.4985 -2.8965 -5.7775 0 
-9.038501 -6.052 -5.6815 -6.7045 -9.1355 -3.9425 -4.8425 -6.731 -7.764 -5.7775 
-11.298 -9.0495 -8.6385 -11.2391 -10.3295 -6.0965 -7.4835 -10.586 -7.764 
-13.2762 -12.5189 -13.3941 -12.4331 -12.6755 -8.4995 -11.7725 -10.586 
-17.0806 -17.2745 -14.5881 -14.7791 -15.0785 -12.8697 -11.7725 
