-4.759 
n/a 
n/a 
n/a 
n/a 
-4.759 
n/a 
n/a 
n/a 
n/a 
-4.759 
n/a 
n/a 
n/a 
n/a 
-4.759 
n/a 
n/a 
n/a 
n/a 
-1.934 -3.8735 -2.3615 -2.186 -3.8535 -1.934 -3.3715 -4.088 -1.756 -3.3715 -4.9225 -1.7565 -4.8625 -3.152 -4.784 -1.756 -7.1555 -3.277 -3.222 -4.8785 0 
-4.885 -6.609 -3.5005 -4.972 -5.002 -4.622 -5.932 -5.522501 -4.6545 -7.0565 -6.042 -6.377501 -6.7635 -6.021501 -5.998001 -8.392 -9.397501 -5.219501 -7.1965 -4.8785 
-7.092 -7.349 -5.665 -5.9665 -7.4125 -6.3075 -7.241 -8.208 -8.5135 -8.4875 -11.9924 -8.406 -9.554001 -6.8935 -13.9068 -9.928 -10.369 -8.884001 -7.1965 
-7.7815 -9.9455 -6.72 -8.264 -8.943001 -7.528501 -8.814501 -12.0498 -10.354 -14.6455 -14.0209 -11.3147 -10.4055 -15.0711 -15.4428 -10.7615 -14.0335 -8.884001 
-10.2425 -11.1725 -8.948 -9.935 -9.9585 -9.017501 -12.9039 -13.8903 -16.7868 -16.674 -16.9296 -12.1662 -18.5831 -16.6071 -16.2763 -14.426 -14.0335 
-2.3615 -4.4825 -1.934 -3.948 -3.9035 -1.7565 -3.8735 0 -3.0415 -6.7125 -3.9485 -2.356 -4.335 -1.7565 -4.8625 -3.152 -3.8055 -1.934 -4.595 
-5.9495 -5.5625 -5.024 -6.1125 -4.616 -5.112 -3.8735 -3.0415 -9.616 -11.136 -4.311 -5.7415 -4.436 -6.377501 -6.7635 -6.018001 -4.951 -5.336 
-7.013 -8.9235 -6.572001 -6.1715 -7.109 -5.112 -7.1985 -9.616 -14.4181 -11.4985 -7.348001 -5.76 -8.2285 -8.406 -9.528501 -6.634501 -7.423 
-10.5035 -10.0375 -6.581501 -8.232 -7.109 -8.196 -14.134 -14.4181 -14.7806 -14.5355 -7.390501 -10.2035 -9.491 -11.2892 -10.588 -8.715 
-11.6175 -10.0495 -8.5185 -8.232 -9.690001 -15.1901 -18.9361 -14.7806 -17.8176 -14.578 -12.3792 -11.466 -12.5148 -12.3487 -12.6685 
-2.4265 -4.4825 -1.934 -3.3715 -4.088 -1.934 -3.8735 -3.3715 -3.1385 -3.5005 -5.5785 -3.152 -4.784 0 
-5.5995 -5.5625 -4.622 -5.932 -5.429501 -4.885 -7.601 -4.712501 -5.9425 -8.9865 -8.5625 -6.021501 -4.784 
-6.736 -8.073501 -6.3075 -6.872001 -7.6435 -7.965001 -8.897 -6.986501 -10.3285 -10.6745 -10.5135 -6.021501 
-9.4635 -9.296 -7.336 -9.1085 -10.6465 -9.148001 -11.269 -11.7063 -12.0165 -12.6255 -10.5135 
-10.576 -10.071 -9.571501 -12.2751 -11.8295 -11.5532 -15.9888 -13.3943 -13.9675 -12.6255 
-2.3615 -4.688 -3.251 -4.4825 -1.934 -3.3715 -4.088 -1.7565 -3.8735 -1.756 -3.3715 -4.269 -3.152 -4.024 -1.7695 -4.8785 -3.5005 -5.5785 
-6.132 -7.344501 -5.9655 -5.5625 -4.622 -5.932 -5.4975 -5.112 -5.3865 -4.6545 -6.6505 -6.461 -5.7885 -4.5525 -5.8125 -8.389001 -8.9865 
-8.2565 -8.697001 -7.0765 -8.073501 -6.3075 -7.502501 -8.538 -6.409 -7.965 -8.193001 -8.168 -9.005 -6.1485 -6.9455 -9.404 -14.02 
-9.43 -9.528001 -9.696001 -9.296 -8.104501 -10.334 -9.836 -8.981501 -11.8293 -9.370001 -10.8924 -9.262501 -8.449 -10.476 -15.0568 
-10.3295 -12.1171 -11.0241 -11.1874 -10.597 -11.632 -12.4085 -12.7456 -13.0063 -12.1784 -11.1499 -10.5875 -12.0533 -16.1288 
