-4.759 
n/a 
n/a 
n/a 
n/a 
-4.759 
n/a 
n/a 
n/a 
n/a 
-4.759 
n/a 
n/a 
n/a 
n/a 
-4.759 
n/a 
n/a 
n/a 
n/a 
-5.7305 0 -5.327 -7.3955 -5.7305 0 -4.2215 -2.264 -4.642 -1.7565 -8.256001 0 0 -1.8085 -4.4695 -4.1865 -3.3195 -3.819 0 
-5.7305 -5.327 -8.406 -9.16 -5.7305 -4.2215 -5.4545 -6.584001 -6.63 -9.1975 -7.294001 0 -1.8085 -5.8105 -7.6645 -6.689 -6.1505 -3.819 
-9.569 -8.406 -9.191501 -9.16 -9.1525 -5.4545 -8.881001 -8.2095 -11.5755 -9.0305 -7.294001 -1.8085 -5.8105 -8.581501 -10.389 -9.4415 -6.1505 
-10.1325 -9.191501 -9.191501 -10.249 -9.4245 -8.881001 -9.928 -13.5668 -11.9223 -9.0305 -9.281 -5.8105 -8.581501 -11.499 -13.1415 -9.4415 
-10.295 -9.191501 -10.2495 -10.398 -13.7648 -9.928 -15.3623 -13.5994 -11.9223 -11.1779 -12.817 -8.581501 -11.499 -14.2515 -13.1415 
-8.467 0 -2.4285 -8.9595 -12.16972 0 -4.2705 0 -3.488 -2.7035 0 -4.768 0 0 -4.4695 -4.1865 -3.8195 -3.3195 -8.044001 0 
-8.467 -2.4285 -12.3462 -21.42142 -12.16972 -4.2705 -4.2705 -3.488 -5.5185 -2.7035 -4.768 -4.768 0 -4.4695 -7.6645 -6.8305 -5.852 -9.998501 -8.044001 
-11.5099 -12.3462 -24.80812 -21.42142 -16.44022 -4.2705 -6.752 -5.5185 -5.5185 -7.285501 -4.768 -4.768 -4.4695 -7.6645 -9.547501 -8.3545 -13.464 -9.998501 
-21.4276 -24.80812 -24.80812 -25.69192 -16.44022 -6.752 -8.774 -5.5185 -8.7825 -7.285501 -4.768 -9.5495 -7.6645 -9.547501 -11.4631 -16.4059 -13.464 
-33.88952 -24.80812 -29.07862 -25.69192 -18.92172 -8.774 -8.774 -8.7825 -8.7825 -7.285501 -9.5495 -12.9361 -9.547501 -11.4631 -19.5145 -16.4059 
-8.467 0 -4.2705 0 -3.488 -2.7035 0 -4.768 0 0 -2.9805 -4.425 -3.383 -3.6975 -4.1865 -3.8195 -3.3195 -3.819 
-8.467 -4.2705 -4.2705 -3.488 -5.5185 -2.7035 -4.768 -4.768 0 -2.9805 -6.2475 -6.462501 -5.5455 -7.5185 -6.8305 -5.852 -6.1505 
-13.3519 -4.2705 -6.752 -5.5185 -5.5185 -7.285501 -4.768 -4.768 -2.9805 -6.2475 -8.278501 -8.241501 -8.821 -9.345501 -8.3545 -8.554001 
-13.3519 -6.752 -8.774 -5.5185 -8.7825 -7.285501 -4.768 -7.058001 -6.2475 -8.278501 -10.2865 -12.1338 -11.2158 -10.7345 -10.426 
-15.8334 -8.774 -8.774 -8.7825 -8.7825 -7.285501 -7.058001 -10.7175 -8.278501 -10.2865 -14.1788 -14.5286 -12.6048 -12.806 
-5.7305 0 -5.5625 -7.3955 -5.7305 0 -4.2705 0 -3.488 -7.4715 0 -4.4695 -4.1865 -3.8195 -3.3195 -3.819 
-5.7305 -5.5625 -8.083 -9.16 -5.7305 -4.2705 -4.2705 -3.488 -10.1005 -7.285501 -4.4695 -7.6645 -6.8305 -5.852 -6.1505 
-11.993 -8.083 -10.3545 -9.16 -10.6605 -4.2705 -6.752 -8.7825 -8.7825 -12.367 -7.6645 -9.547501 -8.3545 -8.554001 
-14.5135 -10.3545 -10.3545 -14.34 -10.6605 -6.752 -12.314 -8.7825 -14.216 -15.7536 -9.547501 -11.4631 -10.426 
-16.785 -10.3545 -15.5345 -14.34 -13.142 -12.314 -12.314 -14.216 -17.6026 -17.6366 -11.4631 -13.5346 
