-4.759 
n/a 
n/a 
n/a 
n/a 
-4.759 
n/a 
n/a 
n/a 
n/a 
-4.759 
n/a 
n/a 
n/a 
n/a 
-4.759 
n/a 
n/a 
n/a 
n/a 
-8.8575 -9.633 -2.7415 -5.438 -1.7695 -3.74 -1.7695 -3.0465 -1.4985 -4.0965 
-19.1365 -12.8453 -8.269501 -5.8445 -4.605 -4.2995 -3.683 -4.046 -5.3165 
-22.3488 -18.3733 -9.109 -8.4985 -5.104001 -5.5765 -4.634 -8.996 
-27.8768 -19.2128 -11.8794 -9.634001 -6.2285 -6.532001 -9.2745 
-28.7163 -21.9832 -13.0149 -10.7585 -7.176001 -11.2543 
-8.208501 -8.164001 -3.251 -5.314 -1.7695 -4.3195 -3.9725 
-16.7487 -11.117 -8.162001 -6.474 -7.421 -7.114 
-19.7017 -16.028 -8.698 -12.7863 -10.418 
-24.6127 -16.564 -15.1983 -15.7833 
-25.1487 -23.0643 -18.1953 
-4.413 -1.4985 -4.913 -1.7695 -2.489 -4.2215 -2.5045 -1.4985 -6.864 -12.16972 -3.736 -4.021 -9.9495 -5.468 -1.4985 -3.736 
-5.519 -6.1005 -7.295 -3.1405 -6.04 -6.628 -3.583 -7.8675 -19.82152 -15.90572 -8.029501 -14.7209 -15.5239 -6.7705 -4.6755 
-10.233 -7.864 -8.891001 -6.346 -7.858 -7.725501 -10.038 -21.42262 -23.55752 -20.19922 -18.9444 -20.2953 -16.8264 -9.024501 
-10.476 -9.601001 -12.3391 -8.132 -9.004001 -14.5173 -23.59312 -25.15862 -27.85102 -31.11412 -24.5188 -21.5978 -19.0804 
-12.213 -13.0983 -14.1251 -9.385 -15.9006 -28.07242 -27.32912 -29.45212 -38.76592 -36.68852 -25.8213 -23.8518 
-8.8575 -9.633 -2.674 -1.8085 -6.1965 -1.7695 -4.6825 
-19.1365 -12.7778 -3.63 -8.9005 -7.868001 -6.935 
-22.2813 -13.7338 -11.7284 -9.8505 -13.1229 
-23.2373 -21.8322 -12.6784 -15.1054 
-31.3357 -22.7822 -17.9333 
