-4.759 
n/a 
n/a 
n/a 
n/a 
-4.759 
n/a 
n/a 
n/a 
n/a 
-4.759 
n/a 
n/a 
n/a 
n/a 
-4.759 
n/a 
n/a 
n/a 
n/a 
-1.934 -3.3985 -3.281 -6.6115 -1.7565 -4.891 -4.299 -1.4985 -8.5445 -7.796 -4.0415 
-4.924 -5.273 -10.341 -8.5565 -7.001501 -8.580501 -5.682 -10.4675 -10.411 -12.3901 
-7.862501 -13.3966 -12.286 -14.2289 -11.3308 -10.2485 -14.998 -12.334 -15.5027 
-16.3369 -15.3416 -17.9584 -18.5582 -12.9988 -19.5645 -16.8645 -17.4257 
-18.2819 -21.014 -22.2877 -20.2262 -22.3148 -21.431 -21.9562 
-3.3985 -3.281 0 -1.934 -5.7465 0 -1.4985 -7.8145 -3.599 -3.918 -2.7415 -5.198 -2.3345 -1.4985 -3.599 -3.9665 -1.7565 -1.4985 -5.3745 -4.891 -1.7565 -5.1845 -6.844 
-5.273 -3.281 -1.934 -6.777 -5.7465 -1.4985 -8.8135 -9.3155 -6.101501 -6.6195 -6.292 -5.898001 -3.233 -4.6155 -4.743 -5.4115 -2.4195 -6.2355 -7.061501 -6.8725 -6.580501 -6.9655 
-5.273 -5.919 -6.777 -6.777 -7.575001 -8.8135 -9.565001 -9.67 -8.316 -9.025001 -6.675 -6.751501 -6.658 -5.5785 -7.5625 -6.0165 -7.083001 -7.2945 -7.1715 -7.181 -7.1625 
-7.856501 -10.66 -6.777 -8.087501 -15.1738 -9.565001 -9.9055 -11.9699 -10.564 -9.370001 -7.5455 -9.5865 -7.092 -8.1175 -8.13 -10.096 -8.000001 -7.3705 -7.185 -7.202001 
-12.8885 -10.66 -8.087501 -15.7565 -15.9253 -9.9055 -12.2268 -14.2179 -10.909 -10.3975 -10.733 -10.428 -9.2065 -8.5375 -10.4675 -10.3605 -8.0895 -7.3795 -7.2055 
-3.3985 -3.281 -1.934 -4.658 -6.6585 -4.891 -2.4945 -5.198 -1.7695 -3.599 -3.9665 -3.515 0 
-5.273 -5.919 -5.877501 -12.5357 -12.3081 -6.905001 -6.884 -7.678501 -5.452 -4.743 -7.432 -3.515 
-7.856501 -9.377501 -14.365 -18.1853 -14.3221 -11.8217 -9.170501 -11.7442 -7.165 -7.9475 -7.432 
-10.134 -18.0862 -20.0146 -20.1993 -19.2388 -14.1082 -13.4208 -13.4572 -10.8233 -7.9475 
-19.0225 -23.7358 -22.0286 -25.116 -21.5253 -18.3585 -15.1338 -17.1155 -10.8233 
-3.3985 -3.281 0 -4.248 -4.5845 -2.229 -3.599 -4.683 -5.198 -1.4985 -3.599 -4.4685 -1.934 -8.722 -6.3565 -4.4685 
-5.273 -3.281 -4.248 -9.545 -5.886001 -5.534 -8.2875 -11.08 -6.178501 -4.6155 -6.8645 -6.364 -9.755501 -15.6369 -11.5836 
-5.273 -8.2235 -9.545 -11.1853 -10.5035 -11.2895 -14.9681 -12.0605 -9.585001 -8.031 -8.5105 -14.7441 -16.9922 -20.864 
-10.733 -13.8591 -11.1853 -15.8028 -16.259 -17.9701 -15.9486 -15.467 -13.2323 -9.777 -17.2096 -21.9808 -22.2193 
-16.3686 -15.4994 -15.8028 -21.5583 -22.9396 -18.9506 -19.3551 -19.1143 -14.9783 -18.4293 -24.4463 -27.2079 
