-4.759 
n/a 
n/a 
n/a 
n/a 
-4.759 
n/a 
n/a 
n/a 
n/a 
-4.759 
n/a 
n/a 
n/a 
n/a 
-4.759 
n/a 
n/a 
n/a 
n/a 
-1.4985 -4.2675 -2.186 -5.1035 -3.9345 -1.7695 -1.4985 -4.196 -3.914 -1.756 -3.764 -1.7565 -1.4985 -3.432 -3.8925 0 
-5.2145 -5.788001 -6.552501 -8.0765 -3.94 -2.7955 -5.89 -7.0465 -4.8495 -5.462 -4.6855 -2.4195 -4.829 -7.667 -3.8925 
-6.332 -9.655001 -9.06 -8.080001 -4.4455 -7.225 -8.9495 -8.1805 -8.5045 -6.325 -5.238 -5.822001 -9.033 -7.667 
-9.8605 -12.3003 -9.070001 -8.642 -8.9235 -10.5385 -10.1185 -12.1207 -9.229501 -6.83 -9.525001 -9.403001 -9.033 
-12.589 -12.3103 -9.6575 -13.2472 -12.4068 -11.7075 -14.0997 -12.8457 -9.826501 -11.2986 -13.5746 -9.403001 
-4.4985 -2.264 -1.4985 -4.5005 -2.229 -4.196 -4.602 -1.756 -3.331 -1.4985 -3.308 -3.645 -2.7765 -2.489 
-4.548 -2.9195 -6.22 -6.484 -6.222 -7.2115 -5.732 -5.384501 -5.0575 -4.846 -7.5935 -6.009 -3.495 
-4.8395 -7.489501 -7.279 -11.378 -10.249 -9.3255 -9.112 -7.038 -9.3125 -10.185 -10.9437 -6.460001 
-9.896501 -8.748 -12.512 -15.405 -12.363 -12.7669 -10.419 -11.4616 -14.7337 -13.7082 -11.3947 
-10.59 -14.2246 -16.539 -17.519 -15.8044 -14.0739 -14.8426 -16.8828 -18.2569 -14.1592 
-3.0365 -2.4945 -3.3715 -4.545 -4.2115 -2.4945 -3.333 -1.7695 -3.4465 -2.356 -3.6455 0 
-3.688 -4.846 -6.801001 -9.535501 -5.9955 -4.3655 -4.3805 -4.299 -5.007 -4.746 -3.6455 
-4.8765 -10.4855 -13.8819 -11.4609 -8.1245 -5.3545 -7.7425 -5.449 -5.8515 -4.746 
-10.513 -17.5664 -15.8073 -13.5899 -8.8485 -8.5555 -8.566 -6.0305 -5.8515 
-17.5939 -19.4918 -17.9363 -14.3139 -12.3437 -9.71 -10.189 -6.0305 
-9.286 
n/a 
n/a 
n/a 
n/a 
