-4.759 
n/a 
n/a 
n/a 
n/a 
-4.759 
n/a 
n/a 
n/a 
n/a 
-4.759 
n/a 
n/a 
n/a 
n/a 
-4.759 
n/a 
n/a 
n/a 
n/a 
-5.42 -1.934 -5.1845 -3.17 -1.7565 -3.3425 -3.3785 -3.264 -4.761 -2.4945 -4.3435 -2.4265 -2.872 -3.7375 -4.191 -3.277 -3.393 -4.2775 -3.264 -4.761 -3.3425 -2.4265 0 
-7.215 -6.564 -9.3085 -4.179 -5.0385 -7.175 -7.422001 -8.141001 -6.0535 -8.1625 -6.835 -4.7755 -6.047501 -8.395 -5.1085 -4.243 -8.8325 -7.9755 -8.141001 -7.601501 -5.265 -2.4265 
-12.234 -10.361 -9.853001 -8.9595 -8.725 -10.419 -12.5618 -9.818001 -12.6179 -11.1186 -10.1088 -8.130501 -11.1582 -9.928 -6.051 -9.606501 -12.8187 -13.2075 -10.5975 -9.954201 -5.265 
-16.031 -10.6455 -15.0089 -12.907 -12.1286 -15.9102 -14.2388 -16.4374 -15.574 -14.3924 -13.4638 -13.6026 -12.6912 -10.379 -11.8577 -13.5927 -18.0507 -15.664 -13.3808 -9.954201 
-16.3155 -15.683 -18.9564 -16.3106 -17.6198 -17.5872 -20.8582 -19.3935 -18.8478 -17.7474 -18.9359 -15.1356 -13.1422 -16.1857 -15.8439 -18.8247 -20.5072 -18.4473 -13.3808 
-1.934 -3.1495 -3.4795 -3.1385 -2.9645 -3.264 -4.321 -1.934 -2.8965 -4.2915 -2.872 -3.4795 -1.7565 -4.6625 -4.153 -2.925 -3.152 -3.3425 -3.776 -8.2665 -1.934 -5.1845 
-4.5395 -5.004 -6.9685 -5.328 -7.0705 -7.514501 -6.1265 -4.391 -5.294 -6.7905 -7.7565 -4.599 -7.0055 -6.721001 -6.734 -4.203 -6.0065 -6.7485 -13.3297 -9.336 -6.564 
-6.5655 -7.423 -9.216001 -10.2485 -10.4945 -9.281 -8.403501 -5.798 -7.6805 -11.9402 -9.023001 -10.6215 -8.653501 -9.078001 -7.536 -6.739 -9.8485 -16.7398 -14.3992 -14.538 
-9.303 -9.4615 -14.4151 -13.5181 -12.261 -11.7362 -9.626 -8.352 -13.0824 -13.2067 -15.0095 -12.2695 -11.1043 -9.920501 -10.396 -10.688 -19.9358 -17.8093 -19.6012 
-11.3249 -14.7478 -17.6847 -15.2846 -14.7162 -12.9587 -12.18 -13.9965 -14.3489 -19.1932 -16.6575 -14.7203 -11.9468 -12.7805 -14.345 -20.7753 -21.0053 -23.0113 
-1.4985 -4.454 -1.7565 -3.5905 -5.1845 -3.222 -3.9785 -5.1845 0 -2.9705 -2.186 -4.251 -3.9595 -1.7695 -2.674 -3.1125 -4.2225 -2.3345 -1.4985 -5.1235 -4.153 -3.9055 
-5.245501 -5.044 -5.224 -8.0375 -9.5485 -7.1375 -9.515 -5.1845 -2.9705 -3.89 -5.193 -7.205001 -4.9785 -3.8225 -3.6315 -5.563 -5.5185 -3.233 -5.604 -7.061501 -6.561501 
-5.3135 -8.567 -9.572001 -12.8381 -13.6044 -13.3006 -9.515 -8.8625 -3.89 -6.6105 -7.622001 -7.656001 -6.325 -5.0585 -6.1235 -7.018 -6.061 -7.4175 -7.233 -8.52 
-9.330501 -13.6142 -14.3818 -16.894 -19.7675 -13.3006 -13.5162 -9.4305 -6.6105 -8.939501 -7.905001 -9.391001 -6.5805 -7.704 -7.5255 -7.44 -9.958 -8.684 -8.991 
-14.0337 -18.424 -18.4377 -23.0571 -19.7675 -17.3018 -14.0842 -12.1976 -8.939501 -9.234 -9.986501 -10.293 -9.7805 -8.4505 -7.979 -11.3718 -11.3645 -10.4105 
-1.934 -5.1845 -1.4985 -4.761 -1.7565 -7.7475 -5.169 -2.4945 -3.2955 -1.934 -3.895 -3.7375 -4.6915 -3.251 -5.707 -4.761 -3.152 -3.2955 0 
-6.564 -7.95 -6.061501 -6.1095 -9.55 -13.6297 -6.756001 -4.6305 -4.2285 -5.1555 -8.0725 -8.961 -7.876 -9.8465 -10.051 -7.370501 -5.165 -3.2955 
-8.599501 -12.761 -6.907001 -14.571 -15.5012 -15.2167 -8.2795 -5.474 -7.079 -8.228001 -13.5248 -12.2849 -14.7819 -14.5837 -12.6605 -8.515 -5.165 
-13.5005 -13.6065 -15.6361 -20.5222 -17.0882 -16.7402 -9.356501 -8.0865 -10.4715 -13.7123 -16.8487 -19.1908 -19.5191 -17.1932 -13.805 -8.515 
-14.346 -22.3356 -21.5873 -22.1092 -18.6117 -17.8172 -12.2036 -11.5852 -15.9558 -17.0362 -23.7546 -23.928 -22.1286 -18.3377 -13.805 
