-4.759 
n/a 
n/a 
n/a 
n/a 
-4.759 
n/a 
n/a 
n/a 
n/a 
-4.759 
n/a 
n/a 
n/a 
n/a 
-4.759 
n/a 
n/a 
n/a 
n/a 
-3.402 -2.264 -2.3615 0 -1.8085 -3.3785 -5.3695 -2.742 -2.489 -3.8755 0 
-3.793 -3.8255 -2.3615 -1.8085 -4.831 -9.6815 -8.337501 -3.301 -5.2845 -3.8755 
-5.686501 -3.8255 -5.0165 -4.831 -11.9214 -12.7813 -8.9175 -5.9385 -5.2845 
-5.686501 -7.04 -7.927 -11.9214 -15.0212 -13.3613 -11.6394 -5.9385 
-8.2115 -9.741501 -15.326 -15.0212 -15.6012 -16.0832 -11.6394 
-2.356 -2.3615 -3.943 -3.402 -2.264 -2.871 -1.8085 -3.237 -4.0175 -2.8645 -3.1125 -3.43 
-4.2185 -6.7445 -7.2865 -3.793 -4.6305 -5.5065 -4.709 -7.318001 -6.283 -3.5345 -4.9425 
-8.113501 -9.959001 -7.751 -6.389 -7.867001 -8.7095 -8.446 -10.2865 -6.5325 -5.341 
-11.6192 -10.3525 -10.5392 -9.994501 -11.25 -12.6277 -11.5435 -10.6565 -6.785 
-12.0127 -13.2711 -14.1447 -13.3775 -15.1682 -15.7252 -11.9135 -10.909 
-3.402 -2.264 -2.3615 -4.1935 -2.688 -4.4485 -2.742 -2.489 -3.8755 0 
-3.793 -3.8255 -6.0865 -7.1235 -7.532001 -6.7285 -3.301 -5.2845 -3.8755 
-5.686501 -7.615001 -9.7885 -12.7681 -9.187501 -7.2965 -5.9385 -5.2845 
-8.238501 -11.4868 -15.4331 -14.4236 -9.973001 -10.6108 -5.9385 
-12.1809 -17.1314 -17.0886 -15.2091 -13.2873 -10.6108 
-3.9345 -1.7695 -1.4985 -4.5735 -1.7565 -2.871 -3.89 -4.703 -2.8645 -3.1125 -4.09 -2.7455 -2.3335 
-3.94 -2.7955 -5.2005 -5.421 -4.521 -4.8735 -8.5605 -6.977 -3.5345 -5.3325 -7.580501 -4.9975 
-4.4455 -6.5055 -5.5915 -8.8725 -6.9125 -9.750501 -10.8467 -7.3555 -5.656 -8.8885 -10.064 
-9.816 -6.9865 -8.906 -11.545 -11.8465 -12.3285 -11.2252 -9.196 -9.278 -11.4576 
-9.956 -10.015 -11.5853 -16.479 -14.4245 -12.707 -13.0657 -13.0136 -11.8913 
