-4.759 
n/a 
n/a 
n/a 
n/a 
-4.759 
n/a 
n/a 
n/a 
n/a 
-4.759 
n/a 
n/a 
n/a 
n/a 
-4.759 
n/a 
n/a 
n/a 
n/a 
-4.628 -5.939 -3.5435 0 -6.4195 0 -6.144 -3.7535 0 -4.07 -3.54 
-5.9615 -7.053 -3.5435 -6.4195 -6.4195 -6.144 -10.8415 -3.7535 -4.07 -6.8095 
-7.0565 -7.053 -9.984 -6.4195 -9.790501 -10.8415 -10.8415 -7.8465 -6.8095 
-7.0565 -14.1361 -9.984 -9.790501 -14.7232 -10.8415 -14.9345 -11.3078 
-14.1418 -14.1361 -13.4976 -14.7232 -14.7232 -14.9345 -18.3958 
-10.14 -3.5435 0 -7.816 0 -2.356 -4.431 -5.3745 -4.891 -1.7565 -5.1845 -6.844 0 -3.859 -4.07 
-10.9575 -3.5435 -7.693501 -7.693501 -2.356 -7.4735 -10.368 -7.061501 -6.8725 -6.580501 -6.9655 -6.844 -3.859 -5.948 
-10.9575 -11.54 -6.808001 -10.005 -7.4735 -13.9775 -12.408 -7.1715 -7.181 -7.1625 -6.9655 -11.08 -5.948 
-18.9808 -11.5668 -10.1035 -15.8612 -13.9775 -16.0175 -12.518 -7.185 -7.202001 -7.1625 -11.3709 -13.169 
-18.9808 -14.8623 -16.0054 -22.5094 -16.0175 -16.1275 -12.5315 -7.2055 -7.202001 -11.7757 -13.4599 
-11.0235 -6.0655 -2.461 -4.255 -4.558 -2.356 -8.3915 -9.145 
-17.089 -9.31 -5.478001 -10.3225 -5.43 -11.6583 -9.421 
-20.3335 -12.431 -10.688 -10.7675 -15.3979 -12.6878 
-23.4545 -17.641 -11.133 -20.7354 -16.4274 
-28.6645 -18.086 -21.1009 -21.7649 
-3.859 -4.07 -5.0745 -3.458 -6.6585 -1.756 -8.3915 -6.7685 
-5.948 -8.8545 -6.9115 -10.1075 -8.549 -10.181 -10.784 
-11.5625 -10.504 -14.1382 -10.3165 -17.2172 -12.7331 
-13.212 -17.7307 -14.3472 -18.9847 -19.7693 
-20.4387 -17.9397 -23.0154 -21.5368 
