-4.759 
n/a 
n/a 
n/a 
n/a 
-4.759 
n/a 
n/a 
n/a 
n/a 
-4.759 
n/a 
n/a 
n/a 
n/a 
-4.759 
n/a 
n/a 
n/a 
n/a 
-5.923 -9.2735 -3.3155 -7.1715 -7.7445 -2.4945 -4.3725 
-11.142 -12.8676 -10.9315 -15.4832 -9.5915 -5.572001 
-14.7361 -20.4836 -19.2432 -17.3302 -12.7658 
-22.3521 -28.7953 -21.0902 -20.5045 
-30.6638 -30.6423 -24.2645 
-7.759 -7.1795 -6.648 -5.585 0 
-10.647 -14.3803 -10.1425 -5.585 
-17.8478 -17.8748 -10.1425 
-21.3423 -17.8748 
-21.3423 
-6.648 -5.585 -3.7875 -7.759 -8.3015 
-10.1425 -9.333 -12.8881 -16.5203 
-14.0177 -18.4358 -21.6494 
-23.1205 -27.1971 
-31.8818 
-6.341 -5.585 -3.7875 -7.759 -7.7445 
-9.0455 -9.333 -12.8881 -15.9633 
-12.8277 -18.4358 -21.0924 
-21.9305 -26.6401 
-30.1348 
