-4.759 
n/a 
n/a 
n/a 
n/a 
-4.759 
n/a 
n/a 
n/a 
n/a 
-4.759 
n/a 
n/a 
n/a 
n/a 
-4.759 
n/a 
n/a 
n/a 
n/a 
-2.3615 -8.460501 -4.77 -4.4715 -4.91 -1.4985 -4.02 -3.9675 
-12.1102 -13.5549 -9.0755 -8.440001 -5.331 -4.969501 -6.4735 
-17.2046 -17.8604 -13.1552 -8.8155 -9.504001 -7.7735 
-21.5101 -21.9401 -13.5307 -13.0309 -12.308 
-25.5898 -22.3156 -17.7461 -15.8349 
-2.3615 -3.188 -3.9675 -5.42 -3.6085 0 -9.679501 -4.667 0 
-5.2525 -6.476501 -8.793 -9.388 -3.6085 -7.282 -11.466 -4.667 
-9.793501 -12.138 -12.7842 -9.388 -10.1725 -12.022 -12.022 
-15.522 -16.1292 -12.7842 -16.2408 -14.9125 -12.022 
-19.5132 -16.1292 -19.637 -20.9808 -14.9125 
-2.3615 -3.188 -3.9675 -3.1425 -4.4715 -5.552 -4.02 -1.756 -7.746 -3.9675 
-5.2525 -6.476501 -7.285501 -7.462501 -9.8225 -9.723 -6.049 -9.4375 -12.2885 
-9.793501 -10.131 -11.7831 -13.6475 -14.1327 -11.8314 -14.8349 -13.9826 
-13.515 -14.629 -17.9681 -17.9577 -16.2411 -20.6173 -19.38 
-18.013 -20.814 -22.2783 -20.0661 -25.027 -25.1624 
-2.3615 -3.6605 -3.9675 -2.3345 -1.756 -3.6885 -4.91 -3.4775 -2.229 -3.6085 -1.756 -4.02 -4.4525 0 
-6.321 -7.032001 -6.2895 -5.084 -5.2825 -9.5235 -8.1265 -4.1725 -5.8755 -5.232 -5.5495 -7.486 -4.4525 
-9.3605 -9.2845 -8.956 -6.1965 -9.832001 -12.803 -8.165 -7.6235 -7.7055 -7.644001 -8.635 -7.486 
-11.7904 -12.0832 -9.5635 -9.838 -13.2141 -12.8415 -12.0258 -9.762001 -10.2085 -11.4785 -8.635 
-14.5891 -12.6907 -13.2598 -13.2183 -13.2526 -16.7023 -14.1643 -12.318 -14.3148 -11.4785 
