-4.759 
n/a 
n/a 
n/a 
n/a 
-4.759 
n/a 
n/a 
n/a 
n/a 
-4.759 
n/a 
n/a 
n/a 
n/a 
-4.759 
n/a 
n/a 
n/a 
n/a 
-4.426 -1.7565 -1.4985 -3.6115 -4.7285 -4.1555 -3.147 0 
-5.47 -2.4195 -4.081 -6.5495 -8.4455 -5.77 -3.147 
-5.9535 -5.180501 -6.670501 -9.978001 -9.541501 -5.77 
-8.462501 -7.797 -10.054 -11.0524 -9.541501 
-10.2375 -11.2985 -11.1648 -11.0524 
-4.4715 -2.8645 -1.4985 -4.413 -3.115 -8.262501 0 -9.6765 0 -8.8575 
-7.297001 -4.3545 -5.516001 -7.688 -10.9315 -8.262501 -9.6765 -9.6765 -8.8575 
-9.238001 -8.523001 -9.214001 -15.7221 -10.9315 -18.4954 -9.6765 -10.9315 
-13.7909 -12.288 -17.4473 -15.7221 -21.1644 -18.4954 -10.9315 
-17.5559 -20.5213 -17.4473 -25.955 -21.1644 -19.7504 
-6.4795 0 -5.849 0 -4.2875 -2.4945 -4.4715 -4.4935 
-6.4795 -5.849 -5.849 -4.2875 -7.536 -7.593 -7.567501 
-13.0887 -5.849 -10.0315 -7.536 -12.9819 -11.5194 
-13.0887 -10.0315 -13.9018 -12.9819 -16.9083 
-17.2712 -13.9018 -19.3477 -16.9083 
-2.5685 -3.54 -5.915 -3.115 -5.023 -4.7 0 -6.145 -1.756 -6.684 -2.4945 -4.0005 -4.6475 -1.7565 -4.4715 0 
-5.0685 -9.51 -7.801001 -8.429501 -7.8465 -4.7 -6.145 -7.285001 -7.710001 -9.288 -5.802 -7.8785 -5.681 -5.9655 -4.4715 
-10.598 -11.5224 -13.6095 -11.1306 -7.8465 -10.019 -7.285001 -13.9258 -9.752001 -12.7283 -9.2735 -8.702001 -9.940001 -5.9655 
-12.6104 -17.3309 -16.3106 -11.1306 -13.5459 -11.3274 -13.9258 -15.9678 -13.2435 -16.1998 -10.023 -13.054 -9.940001 
-18.4189 -20.032 -16.3106 -16.83 -14.8543 -17.9682 -15.9678 -19.4593 -16.715 -16.9493 -14.375 -13.054 
