-4.759 
n/a 
n/a 
n/a 
n/a 
-4.759 
n/a 
n/a 
n/a 
n/a 
-4.759 
n/a 
n/a 
n/a 
n/a 
-4.759 
n/a 
n/a 
n/a 
n/a 
-4.0435 -5.2125 0 -3.594 0 0 -6.398 -3.594 0 
-9.273001 -5.2125 -3.594 -3.594 0 -6.120501 -10.0865 -3.594 
-9.273001 -9.2445 -3.594 -3.594 -6.120501 -10.7031 -10.7031 
-13.6798 -9.2445 -3.594 -10.7842 -10.7031 -10.7031 
-13.6798 -9.2445 -10.7842 -15.3668 -10.7031 
-4.225 -4.79 0 
-9.253 -4.79 
-9.253 
n/a 
n/a 
-4.7885 -3.991 
-8.7095 
n/a 
n/a 
n/a 
-4.7885 -8.2995 
-14.418 
n/a 
n/a 
n/a 
