-4.759 
n/a 
n/a 
n/a 
n/a 
-4.759 
n/a 
n/a 
n/a 
n/a 
-4.759 
n/a 
n/a 
n/a 
n/a 
-4.759 
n/a 
n/a 
n/a 
n/a 
-5.005 -3.4625 -1.7565 -12.16972 -5.593 0 
-9.2675 -4.9855 -14.87542 -17.76272 -5.593 
-10.165 -19.10302 -20.46842 -17.76272 
-24.45852 -24.69602 -20.46842 
-30.05152 -24.69602 
-12.16972 -8.827001 -12.16972 -10.738 -12.16972 
-20.99672 -21.37692 -22.90772 -22.90772 
-33.54664 -32.11492 -35.07744 
-44.28464 -44.28464 
-56.45436 
-3.4625 -4.902 -1.756 -4.1645 -2.7765 -3.4625 
-8.1175 -6.775001 -6.04 -6.5705 -5.1675 
-9.173 -11.8924 -8.238501 -9.954 
-15.2452 -14.0909 -11.9924 
-17.4437 -17.8448 
-4.015 -3.4625 -3.333 -2.3615 -3.849 -3.333 -8.1155 0 
-7.513 -6.3285 -5.6165 -7.2445 -8.029 -12.4893 -8.1155 
-10.181 -8.6115 -11.2461 -11.6165 -17.3629 -12.4893 
-12.464 -14.7915 -15.6181 -20.9504 -17.3629 
-18.644 -19.1635 -24.952 -20.9504 
