-4.759 
n/a 
n/a 
n/a 
n/a 
-4.759 
n/a 
n/a 
n/a 
n/a 
-4.759 
n/a 
n/a 
n/a 
n/a 
-4.759 
n/a 
n/a 
n/a 
n/a 
-3.091 -4.235 -7.098001 -4.254 -1.934 -5.943501 -3.8195 -3.655 
-5.1065 -12.3336 -12.01 -5.313 -7.5 -7.305 -5.969501 
-13.6727 -17.2456 -13.069 -11.5072 -8.967001 -8.532001 
-18.5847 -18.3046 -19.2632 -12.9742 -9.487 
-19.6437 -24.4988 -20.7302 -13.4942 
-3.091 -4.235 -2.7415 -4.254 -1.934 -5.943501 -3.8195 
-5.1065 -5.7375 -7.027 -5.313 -7.5 -7.305 
-6.3065 -10.634 -8.4055 -11.5072 -8.967001 
-11.3036 -12.0125 -14.6033 -12.9742 
-12.6821 -18.2103 -16.0703 
-2.9805 -2.186 -4.235 -4.254 -1.934 -5.943501 -3.8195 -3.6215 
-4.1635 -7.1285 -7.1285 -5.313 -7.5 -7.305 -7.4455 
-8.329 -10.3218 -7.9155 -11.5072 -8.967001 -11.8624 
-11.8305 -11.1088 -14.5557 -12.9742 -13.9636 
-12.6175 -17.749 -16.0227 -17.9708 
-3.091 -4.235 -7.098001 -2.7415 -4.254 -1.934 -5.943501 -3.8195 -3.655 
-5.1065 -12.3336 -9.962001 -7.027 -5.313 -7.5 -7.305 -5.969501 
-13.6727 -15.1976 -14.3533 -8.4055 -11.5072 -8.967001 -8.532001 
-16.5367 -19.5889 -15.7318 -14.6033 -12.9742 -9.487 
-20.928 -20.9674 -21.9296 -16.0703 -13.4942 
