-4.759 
n/a 
n/a 
n/a 
n/a 
-4.759 
n/a 
n/a 
n/a 
n/a 
-4.759 
n/a 
n/a 
n/a 
n/a 
-4.759 
n/a 
n/a 
n/a 
n/a 
-5.59 -4.0225 0 -3.6845 -2.688 -4.05 -1.7565 -3.5455 -4.3665 -3.1385 0 
-8.482 -4.0225 -3.6845 -6.6855 -7.076 -6.006001 -4.8635 -6.6875 -7.613001 -3.1385 
-8.482 -8.612 -6.6855 -11.7335 -8.639 -9.814501 -7.4355 -9.9505 -7.613001 
-14.0899 -11.985 -11.7335 -13.2965 -12.4151 -13.1093 -11.3073 -9.9505 
-17.4629 -17.033 -13.2965 -17.0726 -15.7099 -16.9811 -11.3073 
-1.4985 -4.929 -1.7565 -5.59 -1.7695 -3.5455 -3.676 -3.9515 -2.645 -4.4715 
-5.7165 -8.219001 -6.759501 -6.968 -5.643 -4.521501 -8.602501 -6.882 -7.620001 
-8.441001 -13.4092 -8.2755 -9.543 -6.373 -9.212501 -12.4614 -12.4792 
-13.74 -14.9252 -9.752001 -9.591001 -11.6158 -13.8778 -18.0586 
-15.256 -16.4017 -9.778501 -14.9578 -16.2811 -19.475 
-3.034 -1.4985 -5.59 -5.1275 0 -2.4265 -4.174 -2.688 -4.4715 -1.7695 -3.5455 -3.676 
-3.947 -6.333 -11.7223 -5.1275 -2.4265 -5.370501 -6.8005 -7.3075 -6.728001 -5.643 -4.521501 
-8.107 -12.7479 -11.7223 -7.512 -5.370501 -8.082001 -12.2658 -8.8555 -10.5225 -6.373 
-14.9583 -12.7479 -14.1068 -10.7696 -8.082001 -13.7703 -13.8138 -12.848 -10.6255 
-14.9583 -15.1324 -17.3644 -13.4811 -13.7703 -15.3183 -17.8063 -12.951 
-4.2925 -2.688 -4.4715 -2.7415 -3.557 0 -3.433 -1.7565 -3.9025 -2.3345 -3.5455 -3.676 
-6.9055 -7.3075 -7.559 -5.094501 -3.557 -3.433 -4.1845 -5.5375 -5.942 -6.271 -4.521501 
-12.159 -10.543 -9.376501 -5.094501 -7.2465 -4.1845 -9.081 -7.688 -10.411 -7.9485 
-15.3945 -12.3605 -9.376501 -8.451 -8.003 -9.081 -11.4995 -12.6166 -12.0885 
-17.212 -12.3605 -12.9606 -9.076 -13.0955 -11.4995 -16.4281 -14.2941 
