-4.759 
n/a 
n/a 
n/a 
n/a 
-4.759 
n/a 
n/a 
n/a 
n/a 
-4.759 
n/a 
n/a 
n/a 
n/a 
-4.759 
n/a 
n/a 
n/a 
n/a 
-2.4265 -2.7415 -4.099 0 -2.5045 -1.8085 -4.936 -2.3335 -1.4985 -3.634 -5.1255 -1.7565 -3.043 -3.7875 -1.8085 -4.278 -3.522 -7.1965 -2.871 -2.229 -6.668 0 
-3.681 -5.601 -4.099 -2.5045 -3.3625 -8.478001 -7.14 -3.3515 -4.943501 -7.195 -6.068 -4.6315 -7.229001 -4.5035 -6.8275 -5.942 -9.785001 -9.7475 -4.8515 -8.679001 -6.668 
-6.2655 -5.601 -5.684 -3.3625 -10.01 -10.434 -7.923501 -6.703001 -8.458 -8.315001 -8.7325 -8.63 -7.7275 -9.4645 -7.309 -10.078 -10.0815 -10.0575 -10.0645 -8.679001 
-6.2655 -6.8415 -6.614 -10.01 -11.992 -11.2175 -11.4288 -10.172 -8.531501 -10.057 -10.068 -9.034 -10.078 -9.870501 -10.0775 -10.084 -10.0875 -10.087 -10.0645 
-8.153501 -7.743001 -13.8637 -11.992 -12.7755 -14.7228 -14.8978 -10.2205 -10.0705 -10.0795 -10.0805 -10.0785 -10.084 -10.0825 -10.0835 -10.09 -10.0935 -10.087 
-2.3615 -2.186 -3.383 -3.699 -3.9825 -1.934 -3.16 0 
-3.5005 -4.438 -5.014 -5.406 -4.624 -5.4145 -3.16 
-5.7175 -5.451 -6.7945 -5.6055 -8.4045 -5.4145 
-6.6255 -10.028 -6.993 -9.330001 -8.4045 
-11.1551 -10.5085 -10.354 -9.330001 
-2.4265 -2.7415 -5.5885 0 -3.0415 -4.278 -2.7765 -3.2345 -2.871 -4.4695 -3.3255 -3.1435 -3.522 -1.756 -2.4265 -2.186 -5.1135 0 
-3.681 -6.9805 -5.5885 -3.0415 -8.526001 -7.777501 -4.7005 -5.5505 -7.2705 -7.973001 -5.235001 -7.176001 -5.571 -3.949 -3.292 -8.075001 -5.1135 
-8.1475 -6.9805 -8.3255 -8.526001 -10.1425 -9.943001 -7.021 -10.159 -11.166 -9.201 -9.462001 -9.299001 -7.3355 -4.7355 -9.1745 -8.075001 
-8.1475 -9.747001 -14.2592 -10.1425 -12.473 -12.2761 -12.0039 -14.0545 -12.394 -13.8352 -11.6528 -11.2585 -8.18 -10.864 -9.1745 
-10.717 -15.8507 -15.8757 -12.473 -14.8061 -17.259 -15.8994 -15.2825 -17.0282 -16.026 -13.6123 -12.103 -14.5325 -10.864 
-1.756 -3.074 -4.98 -2.3335 -2.3345 -3.3755 -1.7565 -2.871 -4.278 -3.522 -2.871 -2.7765 -3.0465 -3.4155 -4.7155 -1.756 -2.3615 -3.383 -4.5345 0 
-4.566 -7.099 -6.4265 -5.18 -5.372 -4.5295 -4.521 -8.3865 -5.942 -6.761 -4.952 -4.5705 -6.033 -7.769001 -5.973001 -4.4615 -5.438 -5.8805 -4.5345 
-9.0305 -8.1265 -8.8915 -8.078501 -5.3775 -7.9115 -10.085 -9.3455 -9.393001 -8.688 -6.678 -7.4775 -11.3799 -8.48 -8.807501 -7.601 -7.863501 -5.8805 
-10.2335 -10.8169 -11.837 -8.085501 -8.182 -13.8545 -11.154 -13.2253 -11.352 -10.4115 -9.633 -12.9252 -12.0909 -11.4791 -12.0916 -9.9195 -7.863501 
-12.9239 -13.7624 -11.844 -11.0076 -14.4388 -14.9235 -15.0338 -15.1843 -13.0755 -13.3665 -15.1067 -13.6362 -15.09 -14.7632 -14.4101 -9.9195 
