-4.759 
n/a 
n/a 
n/a 
n/a 
-4.759 
n/a 
n/a 
n/a 
n/a 
-4.759 
n/a 
n/a 
n/a 
n/a 
-4.759 
n/a 
n/a 
n/a 
n/a 
-3.0365 -2.4945 -4.442 -4.0085 -4.437 -3.5445 -1.4985 -3.2875 -4.4785 -1.7565 -5.3885 0 
-3.688 -7.9855 -9.241501 -6.3825 -7.125501 -4.002 -4.127 -5.869 -5.3945 -7.235001 -5.3885 
-8.260501 -13.0782 -10.4955 -9.1455 -7.5365 -6.0875 -6.51 -6.973001 -10.485 -7.235001 
-13.5396 -14.3322 -13.2585 -9.495001 -8.954 -6.9045 -7.0755 -12.5185 -10.485 
-14.7936 -17.0952 -13.608 -10.5765 -9.803 -7.3615 -12.7086 -12.5185 
-5.3885 -3.8145 -2.8645 -4.442 -4.0085 -4.437 0 
-8.8485 -6.1185 -7.785 -9.241501 -6.3825 -4.437 
-11.3279 -11.5042 -13.3763 -10.4955 -6.3825 
-16.7136 -17.0955 -14.6303 -10.4955 
-22.3049 -18.3495 -14.6303 
-4.442 -4.0085 -4.0465 -2.264 -5.3885 -3.2875 
-9.241501 -5.8195 -6.0205 -7.9355 -7.8685 
-11.1297 -7.4745 -12.2816 -10.4675 
-12.7847 -14.0462 -14.8136 
-19.3564 -16.5782 
-3.0365 -2.4945 -4.442 -4.0085 -4.437 -1.934 -5.3885 -7.445 -3.2875 0 
-3.688 -7.9855 -9.241501 -6.3825 -5.5905 -6.4035 -11.136 -9.5625 -3.2875 
-8.260501 -13.0782 -10.4955 -7.5885 -9.323 -12.4778 -13.2535 -9.5625 
-13.5396 -14.3322 -11.7015 -11.4448 -15.8929 -14.5953 -13.2535 
-14.7936 -15.5382 -15.5578 -18.0147 -18.0104 -14.5953 
