-4.759 
n/a 
n/a 
n/a 
n/a 
-4.759 
n/a 
n/a 
n/a 
n/a 
-4.759 
n/a 
n/a 
n/a 
n/a 
-4.759 
n/a 
n/a 
n/a 
n/a 
-3.4765 -4.4885 -3.824 -3.0365 -2.4945 -3.2495 -4.029 
-7.2005 -9.2155 -6.679 -3.688 -4.891 -5.538 
-12.7415 -12.4091 -7.1415 -5.0435 -6.142 
-15.9351 -12.8716 -8.449 -6.160501 
-16.3976 -14.1791 -9.562 
-3.0365 -2.4945 -3.2495 -3.991 -1.7565 -4.2935 -4.946 
-3.688 -4.891 -6.0805 -5.0075 -6.587501 -10.013 
-5.0435 -7.0135 -6.8545 -10.7307 -12.947 
-7.045001 -7.553501 -12.7883 -17.0902 
-7.579501 -13.7715 -19.1478 
-3.0365 -2.4945 -3.2495 -3.991 -1.7695 -4.503 -1.4985 -5.1605 0 
-3.688 -4.891 -6.0805 -5.359 -5.1235 -5.6905 -6.014501 -5.1605 
-5.0435 -7.0135 -7.196 -8.4795 -6.1295 -9.448501 -6.014501 
-7.045001 -7.798501 -10.3815 -9.398001 -9.737 -9.448501 
-7.815001 -11.1986 -11.3 -13.1773 -9.737 
-4.2935 -4.1685 -2.8645 -2.341 -3.991 
-9.636001 -7.592501 -5.8695 -6.6595 
-13.1314 -10.9967 -9.1805 
-16.5356 -14.3077 
-19.8466 
