-4.759 
n/a 
n/a 
n/a 
n/a 
-4.759 
n/a 
n/a 
n/a 
n/a 
-4.759 
n/a 
n/a 
n/a 
n/a 
-4.759 
n/a 
n/a 
n/a 
n/a 
-3.912 -5.8325 -3.9355 -8.9995 -6.4915 -2.489 -4.54 
-7.965 -8.6785 -13.7208 -16.3592 -7.751 -5.511 
-12.6845 -19.8525 -21.0805 -17.6187 -10.9544 
-23.353 -27.3492 -22.34 -20.8221 
-30.7127 -28.6087 -25.5434 
-1.7695 -3.0465 -3.4865 -3.308 0 -3.5185 -3.593 -1.7565 -7.203001 
-3.683 -6.151501 -7.7025 -3.308 -3.5185 -8.380501 -4.507 -9.184 
-6.822001 -11.5469 -7.7025 -6.845 -8.380501 -8.981501 -12.5783 
-12.9738 -11.5469 -11.8629 -12.7688 -8.981501 -17.1478 
-12.9738 -15.7073 -17.7867 -13.3698 -17.1478 
-3.535 -4.3565 -3.699 -2.9645 -2.264 -3.16 -4.548 -4.0585 -3.8235 
-8.091001 -9.2815 -6.9045 -5.2985 -5.5785 -7.3925 -8.355 -7.362 
-13.815 -12.7014 -10.028 -7.8665 -10.2085 -12.0305 -11.9775 
-17.2349 -15.8249 -12.596 -13.6603 -15.0301 -15.653 
-20.3584 -18.3929 -18.3898 -18.4819 -18.6526 
-4.196 -3.778 0 -6.797 -4.229 -3.2955 -1.7695 -4.149 -1.934 -3.16 -3.64 -2.0935 -3.4865 -4.0535 0 
-8.637 -3.778 -5.217 -9.598001 -7.5625 -3.9425 -4.925 -6.18 -5.4145 -4.892 -5.559 -5.1975 -5.83 -4.0535 
-8.637 -10.7025 -10.2188 -13.7443 -8.132501 -7.357 -7.206501 -8.797501 -6.877 -6.51 -8.821501 -7.6035 -5.83 
-15.8801 -15.7043 -13.7443 -14.3143 -12.0336 -10.2865 -10.4338 -11.5428 -8.2215 -9.9505 -11.4091 -7.6035 
-20.8819 -19.2298 -14.3143 -18.2154 -14.9631 -13.5138 -13.1791 -12.8873 -12.5402 -12.6687 -11.4091 
