-4.759 
n/a 
n/a 
n/a 
n/a 
-4.759 
n/a 
n/a 
n/a 
n/a 
-4.759 
n/a 
n/a 
n/a 
n/a 
-4.759 
n/a 
n/a 
n/a 
n/a 
-1.4985 -4.809 -3.8315 -4.269 -4.6255 -3.4985 -1.4985 -4.477 
-5.13 -6.122 -7.656501 -9.307 -7.7895 -4.9685 -6.1505 
-6.2815 -9.484 -13.7929 -12.7874 -9.788 -10.168 
-9.738001 -15.1948 -17.2733 -14.7859 -15.0631 
-15.988 -18.6752 -19.2718 -20.061 
-12.16972 -2.5045 -3.962 
-14.67422 -5.2005 
-17.37022 
n/a 
n/a 
-3.1385 -3.0695 -3.013 -5.651501 -3.465 -1.7695 -3.0465 -5.468 -3.3165 -2.0935 -4.806 -3.8315 0 
-4.286 -5.0395 -8.529501 -6.666501 -3.665 -3.683 -9.529501 -10.0925 -5.1105 -6.943 -5.5635 -3.8315 
-6.0635 -10.402 -11.3185 -8.602501 -5.255 -9.958501 -14.1546 -11.8519 -9.627 -7.517 -5.5635 
-10.679 -11.5435 -9.657001 -10.202 -12.0923 -14.5836 -15.914 -16.3684 -10.1325 -7.517 
-12.4558 -11.8163 -11.2885 -17.5424 -16.7174 -16.343 -20.4305 -16.8739 -10.1325 
-1.7695 -4.2765 -4.7505 -4.9225 -4.3535 -2.3335 -7.514501 -3.8315 
-4.5005 -9.4505 -10.7025 -10.238 -5.8255 -10.8125 -11.805 
-9.854501 -15.6157 -16.018 -11.819 -13.9942 -14.2603 
-16.1117 -20.9312 -17.599 -19.9877 -18.2787 
-21.4272 -22.5122 -25.7677 -24.2722 
