-4.759 
n/a 
n/a 
n/a 
n/a 
-4.759 
n/a 
n/a 
n/a 
n/a 
-4.759 
n/a 
n/a 
n/a 
n/a 
-4.759 
n/a 
n/a 
n/a 
n/a 
-3.8385 -1.7565 -3.3975 -2.742 -4.39 -3.2615 -3.098 -4.3025 -1.7695 -1.4985 -4.868 0 
-4.716001 -5.1925 -6.0105 -6.198 -7.177501 -6.1295 -6.508 -5.715 -2.7955 -6.151 -4.868 
-7.038 -8.489 -8.2615 -9.416 -10.181 -10.9071 -6.8005 -7.781 -7.3065 -6.151 
-9.3935 -11.2518 -11.8039 -12.4775 -15.141 -11.1996 -9.83 -12.6354 -7.3065 
-13.1197 -14.7942 -14.8654 -17.4375 -15.4335 -14.2291 -14.6844 -12.6354 
-2.3335 -3.0835 -5.7135 -2.0935 -3.7075 -1.7695 -1.4985 -3.3975 -1.756 -4.0925 0 -3.2615 -2.9805 -4.509 -3.098 0 
-5.6115 -9.5045 -8.446501 -6.0295 -6.202001 -2.7955 -4.584001 -4.713 -6.3625 -4.0925 -3.2615 -5.2875 -8.383501 -7.378 -3.098 
-12.3627 -12.3117 -12.6627 -7.933001 -7.395 -5.806 -5.878 -8.5725 -6.3625 -7.410501 -5.2875 -11.3895 -11.4467 -7.378 
-15.1699 -16.5279 -14.5662 -10.6215 -10.8849 -6.841001 -9.793501 -8.5725 -9.742001 -9.856501 -11.3895 -14.4527 -11.4467 
-19.3861 -18.4314 -17.2547 -14.1114 -11.9199 -10.6735 -9.793501 -12.0188 -12.1198 -15.9777 -14.4527 -14.4527 
-2.9805 -2.742 -2.489 -6.4215 -3.091 -3.0835 -3.5505 -1.7695 -3.7075 0 -3.321 -1.7695 -3.091 -5.525 -1.756 -4.1885 -2.9805 -5.921 -2.4265 
-4.7635 -3.301 -8.000501 -7.834 -4.956 -7.163501 -5.7115 -6.146501 -3.7075 -3.321 -5.389 -4.458 -7.063 -6.6205 -5.199 -6.375 -7.8395 -7.889501 
-5.492001 -8.226501 -9.5485 -9.415 -9.222 -9.071501 -10.757 -6.146501 -7.35 -5.389 -7.721 -8.2705 -8.0655 -9.5825 -7.328 -11.5624 -9.515501 
-10.1855 -9.765501 -11.2355 -14.1068 -11.3302 -14.464 -10.757 -9.534 -9.5765 -7.721 -11.8031 -9.029501 -11.2811 -12.0437 -12.6836 -13.2384 
-10.6545 -11.6585 -15.9273 -16.215 -16.7227 -14.464 -14.1445 -11.9035 -12.0263 -11.8031 -12.5621 -12.3335 -13.7423 -17.3993 -14.3596 
-3.0835 -4.536 -2.742 -2.489 -4.3305 -1.7695 -1.4985 -3.7075 -1.756 -1.756 -3.2615 -2.3335 -2.5685 -1.934 -1.4985 -3.3975 -4.5965 -3.894 -1.756 -4.39 -7.190001 
-8.3715 -7.2305 -3.301 -6.3645 -4.7 -2.7955 -4.6235 -5.318 -5.389 -4.788 -5.0495 -4.5535 -4.606 -2.6125 -4.584001 -8.156501 -7.047501 -5.115 -5.752501 -10.784 
-11.3244 -7.851501 -6.83 -6.523 -5.389 -5.974 -5.845 -9.2925 -8.363001 -6.2605 -7.330501 -7.311501 -5.557 -5.559 -8.9715 -9.578001 -7.763501 -8.2775 -12.5985 
-11.9454 -11.6377 -6.933001 -7.1285 -8.592501 -7.033501 -9.691001 -12.3927 -9.540001 -8.39 -9.4405 -8.142 -6.6105 -10.341 -10.389 -10.4875 -9.4195 -15.3763 
-15.7316 -11.7407 -7.54 -10.7325 -9.569501 -10.749 -12.7998 -13.5697 -11.8599 -10.7348 -10.477 -9.3625 -11.7803 -11.7765 -11.2985 -12.1435 -16.6477 
