-4.759 
n/a 
n/a 
n/a 
n/a 
-4.759 
n/a 
n/a 
n/a 
n/a 
-4.759 
n/a 
n/a 
n/a 
n/a 
-4.759 
n/a 
n/a 
n/a 
n/a 
-2.4265 -2.882 -3.074 -4.397 -3.851 -1.7695 -3.135 -4.3 -3.6615 -1.934 -1.4985 -4.1115 0 
-4.4545 -4.559 -6.7065 -7.374001 -4.0015 -4.779 -7.281001 -7.0195 -4.437 -2.6125 -4.843 -4.1115 
-5.8715 -7.864501 -9.2005 -7.397501 -6.268 -8.8035 -9.384501 -7.634 -5.0245 -6.0655 -4.843 
-8.258 -9.9505 -9.203501 -9.128501 -9.6445 -11.0264 -9.952001 -7.946 -8.2875 -6.0655 
-10.6085 -9.955001 -10.9177 -12.7626 -11.9496 -11.5939 -10.298 -11.7028 -8.2875 
-3.0365 -2.742 -2.489 -4.461 -1.934 -1.4985 -4.1115 -2.229 -4.7275 
-4.668 -3.301 -7.080501 -5.015501 -2.6125 -4.843 -6.808001 -6.392 
-4.759501 -7.8885 -7.4275 -5.630001 -6.0655 -7.2235 -11.3632 
-7.9135 -8.305 -7.830501 -9.833501 -8.6925 -12.0083 
-8.326 -8.719501 -12.2068 -12.5921 -13.5985 
-2.9995 -4.033 -3.6615 -1.934 -1.4985 -4.3355 -2.882 -3.9875 -1.7695 -2.3615 
-6.3425 -6.716 -4.437 -2.6125 -5.199 -7.729 -5.571 -4.6185 -3.736 
-8.279 -7.5695 -5.0245 -6.115 -8.261001 -10.131 -5.628 -7.13 
-9.415 -7.8695 -8.205001 -8.997001 -10.467 -10.158 -8.571501 
-9.594501 -10.374 -10.553 -11.2514 -10.49 -13.1015 
-4.066 -2.5045 -5.2115 -1.7695 -1.4985 -4.16 -1.934 -4.1115 
-6.053 -9.3295 -5.282 -2.7955 -5.226 -5.404 -6.27 
-14.219 -9.511001 -5.753 -6.584 -6.3555 -9.2425 
-14.4005 -10.133 -10.19 -7.9165 -10.532 
-15.0225 -14.57 -11.5495 -12.09 
