-4.759 
n/a 
n/a 
n/a 
n/a 
-4.759 
n/a 
n/a 
n/a 
n/a 
-4.759 
n/a 
n/a 
n/a 
n/a 
-4.759 
n/a 
n/a 
n/a 
n/a 
-5.2135 -3.115 -9.457001 0 -6.831501 0 -10.245 0 -10.939 0 -10.678 0 -9.8905 0 -12.16972 -2.4945 -4.657 -1.934 -1.4985 -3.8195 -1.7565 -7.384 0 -8.565001 0 -9.522 
-8.040501 -13.3476 -9.457001 -6.831501 -6.831501 -10.245 -10.245 -10.939 -10.939 -10.678 -10.678 -9.8905 -9.8905 -12.16972 -14.66422 -7.751 -5.156 -2.6125 -5.146501 -4.542 -8.58 -7.384 -8.565001 -8.565001 -9.522 
-18.5875 -13.3476 -16.6079 -6.831501 -17.4373 -10.245 -21.2464 -10.939 -21.617 -10.678 -20.8113 -9.8905 -22.16202 -14.66422 -19.92072 -8.294001 -5.8715 -5.451 -5.399 -12.1927 -8.58 -16.6016 -8.565001 -18.9224 
-18.5875 -20.4985 -16.6079 -17.4373 -17.4373 -21.2464 -21.2464 -21.617 -21.617 -20.8113 -20.8113 -22.16202 -24.65652 -19.92072 -20.46372 -9.191 -8.884501 -5.5295 -13.2315 -12.1927 -18.038 -16.6016 -18.9224 
-25.7384 -20.4985 -27.2137 -17.4373 -28.4387 -21.2464 -31.9244 -21.617 -31.7503 -20.8113 -33.08282 -24.65652 -29.91302 -20.46372 -21.36072 -12.2576 -9.597 -13.5448 -13.2315 -21.6507 -18.038 -26.959 
-8.992001 0 -8.565001 0 -9.522 0 -3.1495 -3.8195 -2.4945 -4.4155 -2.0935 -4.7955 -1.7565 -9.457001 0 -6.831501 0 -9.261001 0 -12.16972 0 -10.678 0 -9.8905 0 -12.16972 -3.319 -4.8445 0 
-8.992001 -8.565001 -8.565001 -9.522 -9.522 -3.1495 -5.4425 -5.551 -6.2625 -6.048 -7.146 -5.8 -12.1627 -9.457001 -6.831501 -6.831501 -9.261001 -9.261001 -12.16972 -12.16972 -10.678 -10.678 -9.8905 -9.8905 -12.16972 -15.48872 -8.673 -4.8445 
-17.9102 -8.565001 -18.9224 -9.522 -12.8757 -5.4425 -6.515 -8.788 -7.180501 -11.7079 -7.926001 -16.8406 -12.1627 -16.6079 -6.831501 -16.4533 -9.261001 -21.89752 -12.16972 -22.84772 -10.678 -20.8113 -9.8905 -22.16202 -15.48872 -20.84272 -8.673 
-17.9102 -18.9224 -18.9224 -12.8757 -15.1687 -6.515 -9.502001 -9.778001 -13.0676 -12.4879 -19.1156 -16.8406 -19.3136 -16.6079 -16.4533 -16.4533 -21.89752 -21.89752 -22.84772 -22.84772 -20.8113 -20.8113 -22.16202 -25.48102 -20.84272 -20.84272 
-28.2676 -18.9224 -22.2761 -15.1687 -16.2412 -9.502001 -10.648 -15.5119 -13.8476 -23.6775 -19.1156 -23.9915 -19.3136 -26.2297 -16.4533 -29.08982 -21.89752 -32.57552 -22.84772 -32.98102 -20.8113 -33.08282 -25.48102 -30.83502 -20.84272 
-8.992001 0 -8.565001 -1.756 -9.522 -4.088 -3.152 -3.17 -4.076 -3.893 -1.7565 -3.1385 -3.115 -9.457001 0 -6.831501 0 -9.261001 0 -12.16972 0 -10.678 0 -9.8905 -1.756 -9.8155 -4.938 -5.891 -3.152 -3.8245 0 
-8.992001 -8.565001 -10.287 -11.1415 -13.8142 -6.9045 -6.089 -5.5045 -5.9395 -4.1785 -4.388 -5.0605 -13.3476 -9.457001 -6.831501 -6.831501 -9.261001 -9.261001 -12.16972 -12.16972 -10.678 -10.678 -9.8905 -10.9575 -12.5801 -11.0145 -9.636001 -8.665001 -6.242001 -3.8245 
-17.9102 -10.287 -19.6725 -15.4337 -16.6307 -9.883 -8.401 -8.958 -5.979001 -6.656 -6.431 -15.9269 -13.3476 -16.6079 -6.831501 -16.4533 -9.261001 -21.89752 -12.16972 -22.84772 -10.678 -20.8113 -10.9575 -21.7816 -13.7791 -15.7125 -12.487 -11.9002 -6.242001 
-19.6322 -19.6725 -23.9647 -18.2502 -19.6092 -12.1708 -12.5565 -9.040501 -8.559501 -9.498501 -17.2016 -15.9269 -20.4985 -16.6079 -16.4533 -16.4533 -21.89752 -21.89752 -22.84772 -22.84772 -20.8113 -21.8783 -21.7816 -22.9806 -18.4771 -18.5635 -15.7222 -11.9002 
-29.0177 -23.9647 -26.7812 -21.2287 -21.897 -16.3263 -12.639 -11.6272 -11.4678 -20.3889 -17.2016 -23.0778 -20.4985 -26.2297 -16.4533 -29.08982 -21.89752 -32.57552 -22.84772 -32.98102 -21.8783 -32.7024 -22.9806 -27.6786 -21.3281 -21.7987 -15.7222 
-3.0365 -2.4945 -5.2875 -3.264 -1.7565 -9.594501 0 -6.831501 0 -9.261001 0 -12.16972 0 -10.678 0 -9.8905 -1.756 -9.8155 -4.938 -3.1385 -4.221 -1.934 -9.252501 0 -8.532001 -1.756 -7.705 -4.417 
-3.688 -6.666 -9.755501 -3.6125 -12.3002 -9.594501 -6.831501 -6.831501 -9.261001 -9.261001 -12.16972 -12.16972 -10.678 -10.678 -9.8905 -10.9575 -12.5801 -11.0145 -7.191 -7.665501 -5.1325 -12.1929 -9.252501 -8.532001 -9.706501 -9.6885 -8.4855 
-10.1035 -11.9304 -10.1375 -14.9758 -12.3002 -16.5338 -6.831501 -16.4533 -9.261001 -21.89752 -12.16972 -22.84772 -10.678 -20.8113 -10.9575 -21.7816 -13.7791 -13.2675 -11.975 -8.482 -15.997 -12.1929 -17.9617 -9.706501 -18.042 -10.1055 
-15.3679 -12.3124 -21.5008 -14.9758 -19.2395 -16.5338 -16.4533 -16.4533 -21.89752 -21.89752 -22.84772 -22.84772 -20.8113 -21.8783 -21.7816 -22.9806 -16.0321 -18.0515 -12.7915 -19.5935 -15.997 -20.9021 -19.1362 -18.042 -18.459 
-15.7499 -23.6757 -21.5008 -21.9151 -19.2395 -26.1556 -16.4533 -29.08982 -21.89752 -32.57552 -22.84772 -32.98102 -21.8783 -32.7024 -22.9806 -25.2336 -20.8161 -18.868 -23.903 -19.5935 -24.7062 -22.0766 -27.4717 -18.459 
