-4.759 
n/a 
n/a 
n/a 
n/a 
-4.759 
n/a 
n/a 
n/a 
n/a 
-4.759 
n/a 
n/a 
n/a 
n/a 
-4.759 
n/a 
n/a 
n/a 
n/a 
-1.934 -1.4985 -3.319 -1.7565 -5.194 -3.9205 -2.5045 -2.8705 -3.6075 -4.9225 -2.985 -4.865 -3.9915 -3.8055 -2.985 -2.5685 -5.585 0 
-2.6125 -4.6965 -4.165 -7.0425 -9.577001 -4.449 -5.182 -5.971 -9.368 -7.8355 -8.444 -9.657001 -7.9515 -5.706501 -6.5555 -8.298 -5.585 
-6.384501 -4.877 -10.7335 -10.5975 -10.018 -7.792 -8.007 -11.9649 -12.3208 -13.7609 -13.4464 -13.8348 -9.938001 -8.580001 -12.9522 -8.298 
-6.7465 -11.6915 -14.2885 -10.7075 -13.4564 -10.8286 -14.0537 -14.9177 -18.2462 -18.7633 -17.6242 -15.8213 -13.0141 -16.1981 -12.9522 
-13.6752 -15.2465 -14.3985 -14.1459 -16.493 -16.8753 -17.0065 -20.8431 -23.2486 -22.9411 -19.6107 -18.8974 -20.6322 -16.1981 
-3.9205 -2.7455 -3.1495 -4.394 -1.756 -6.854 -2.8705 -5.3595 -4.174 -1.8085 -3.534 -3.098 -1.7695 -3.6055 -4.485 -4.088 
-5.811501 -5.259501 -7.752001 -5.9235 -8.0735 -10.4675 -6.317 -9.734501 -5.27 -5.094501 -5.882 -5.051 -5.259501 -8.301001 -6.8725 
-7.587501 -10.3745 -9.323501 -10.0925 -11.823 -13.914 -10.553 -10.8621 -9.278501 -8.6425 -8.4345 -8.503 -9.8105 -11.0603 
-12.9471 -11.946 -13.6121 -13.842 -15.2695 -18.15 -11.6806 -14.8706 -12.7447 -9.842001 -12.3097 -13.2098 -12.6886 
-14.5186 -16.2346 -17.3616 -17.2885 -19.5055 -19.2776 -15.6891 -18.3368 -13.9442 -14.1174 -17.0165 -16.0879 
-3.1495 -2.7455 -4.4895 -2.8705 -4.2085 -4.231 -4.394 -1.756 -5.0645 -3.644 -1.756 -3.737 -3.766 -3.098 -1.7565 -3.8445 -4.16 0 
-7.3175 -8.799 -7.236 -6.479 -7.752501 -8.261001 -5.9235 -6.559 -9.282501 -5.9005 -5.2025 -7.617001 -6.3815 -4.3615 -5.1395 -6.766 -4.16 
-13.847 -11.7539 -11.3263 -10.6874 -12.1335 -10.1385 -10.4185 -10.4505 -11.5848 -9.363001 -9.2825 -10.7175 -9.3225 -8.858 -7.9345 -6.766 
-16.8019 -15.8442 -15.5347 -15.0684 -14.011 -14.6335 -14.31 -12.7528 -15.0473 -13.6406 -12.4428 -13.6585 -13.8024 -11.9012 -7.9345 
-20.8922 -20.0526 -19.9157 -16.9459 -18.506 -18.525 -16.6123 -16.2153 -19.3249 -16.8009 -15.3838 -18.1384 -16.8456 -11.9012 
-3.45 -3.0695 -2.4945 -3.9205 -3.3235 -2.7455 -2.3335 -4.269 -2.4945 -4.6225 -1.756 -4.954 -2.0935 -2.871 -1.756 -2.871 -7.663001 0 
-4.273 -4.2085 -5.3595 -7.4045 -6.719501 -4.9975 -6.4255 -6.0385 -5.942 -5.7415 -6.766 -6.098001 -4.604 -4.864 -4.514 -11.732 -7.663001 
-5.167 -7.095 -8.666 -10.0745 -8.559501 -9.335 -7.933 -10.1635 -7.114501 -9.992001 -8.3955 -8.652 -6.572001 -6.398 -13.6342 -11.732 
-8.327001 -10.2865 -11.797 -11.9857 -13.0714 -10.9827 -12.3454 -11.4156 -10.5425 -11.7151 -11.0771 -10.9108 -7.472001 -16.418 -13.6342 
-11.5601 -13.6367 -13.7082 -16.4976 -14.7191 -15.3951 -13.5975 -14.8436 -12.2656 -14.3967 -13.3359 -11.8108 -18.5778 -16.418 
