-4.759 
n/a 
n/a 
n/a 
n/a 
-4.759 
n/a 
n/a 
n/a 
n/a 
-4.759 
n/a 
n/a 
n/a 
n/a 
-4.759 
n/a 
n/a 
n/a 
n/a 
-3.5715 -3.281 -3.687 -3.1385 -4.424 -1.934 -1.4985 -4.7225 -1.7565 -7.0245 -3.9075 -1.934 -6.093 -3.1715 
-5.5495 -6.282001 -7.0375 -6.278501 -5.195 -2.6125 -5.713 -6.004001 -8.540501 -8.1055 -5.7005 -6.9215 -7.782001 
-10.6215 -10.2535 -9.323 -6.8605 -6.055501 -6.831 -6.6085 -13.3896 -9.5205 -9.2145 -9.500001 -8.543501 
-14.593 -12.9614 -9.8835 -7.352 -8.8815 -7.837501 -14.1469 -14.3696 -10.6485 -9.946001 -11.353 
-17.3009 -13.5219 -10.3455 -9.915501 -10.2645 -15.5819 -15.1269 -15.4976 -11.38 -11.8598 
-3.5715 -3.281 0 -3.687 -3.1385 -3.152 -4.493 -1.934 -1.8085 -4.7225 -2.5045 -7.072001 -3.9075 -1.934 -6.093 -3.8145 0 
-5.5495 -3.281 -3.687 -7.0375 -5.219 -5.593 -5.1865 -3.2685 -5.9775 -7.421 -9.195001 -8.251501 -5.7005 -6.9215 -9.083 -3.8145 
-5.5495 -6.282001 -7.0375 -8.744 -6.315001 -6.176001 -6.1955 -6.994 -8.570001 -14.3593 -10.7621 -9.599501 -9.500001 -10.218 -9.083 
-10.6215 -10.2535 -8.744 -9.085501 -6.896501 -6.913001 -9.7755 -9.537001 -15.9149 -15.9264 -12.1101 -13.7336 -13.0275 -10.218 
-14.593 -12.3824 -9.085501 -9.842001 -7.767001 -10.2035 -10.6 -16.8361 -17.482 -17.2744 -16.2442 -17.2611 -13.0275 
-3.5715 -5.215 -6.093 -3.1715 -7.0245 -3.9075 -5.622 0 -4.493 -3.687 -4.9225 
-8.1875 -10.9065 -7.782001 -11.1355 -8.1055 -7.915501 -5.622 -4.493 -8.27 -9.5185 
-13.7447 -12.8987 -16.21 -12.2165 -12.5589 -7.915501 -10.4265 -8.27 -14.6961 
-15.6163 -21.6233 -17.291 -16.6699 -12.5589 -13.079 -14.2035 -14.6961 
-24.3409 -22.7043 -21.7444 -16.6699 -17.7224 -16.856 -20.6296 
-10.376 -6.093 -3.1715 0 -4.7225 -1.7565 -1.4985 -6.515501 -3.9075 -3.43 -3.687 -3.1385 -1.7695 -4.424 
-15.8047 -7.782001 -3.1715 -4.7225 -6.004001 -2.4195 -8.906501 -10.9506 -7.873 -7.907001 -7.0375 -4.6115 -8.311 
-17.4267 -7.782001 -8.0525 -6.004001 -7.689001 -9.938001 -13.5048 -14.9161 -12.6928 -10.089 -9.2075 -12.1078 
-17.4267 -13.127 -9.9804 -7.689001 -15.6131 -14.5363 -17.4703 -19.7359 -14.8748 -13.3252 -17.0696 
-23.0683 -15.0549 -11.6654 -15.6131 -20.2114 -18.5018 -22.2901 -21.9179 -18.111 -21.1873 
