-4.759 
n/a 
n/a 
n/a 
n/a 
-4.759 
n/a 
n/a 
n/a 
n/a 
-4.759 
n/a 
n/a 
n/a 
n/a 
-4.759 
n/a 
n/a 
n/a 
n/a 
-1.934 -4.9175 -3.2615 -4.1865 -4.712 0 -4.203 -3.6825 -5.1605 -3.2295 -5.1845 -5.74 -4.732 -6.657 -4.723 -7.539001 -7.751501 -7.716001 -4.0555 -3.222 -3.519 0 
-6.1035 -7.824 -7.904 -7.3815 -4.712 -4.203 -6.8015 -8.366 -7.0955 -8.4615 -5.7465 -9.889501 -10.9515 -10.6535 -12.7768 -7.818501 -7.826001 -10.688 -5.5095 -6.541 -3.519 
-8.057001 -10.0815 -8.714001 -7.3815 -8.8405 -6.8015 -9.681 -10.703 -12.8705 -8.705501 -9.896501 -15.7981 -12.544 -17.3295 -13.0563 -7.852001 -10.9716 -12.7574 -7.472 -6.541 
-10.3963 -10.0945 -8.714001 -12.0478 -10.533 -9.681 -12.3996 -16.478 -13.1145 -13.1057 -15.8099 -17.8991 -21.2888 -17.8158 -13.0898 -11.0708 -13.041 -14.7199 -7.472 
-10.4093 -10.0945 -13.7837 -13.7403 -13.4125 -12.3996 -18.1746 -16.722 -17.5147 -19.0191 -17.9109 -26.6439 -21.5683 -17.8493 -16.3086 -13.1402 -15.0035 -14.7199 
-4.9175 -3.2615 -4.1865 -4.712 -4.203 -5.1605 -5.1845 -5.74 -4.732 -6.657 -4.723 -9.316501 -3.6825 -3.9535 -4.1 0 
-7.824 -7.904 -7.3815 -8.8405 -8.4455 -10.0545 -5.7465 -9.889501 -10.9515 -10.6535 -14.5543 -13.238 -6.75 -9.429001 -4.1 
-10.0815 -8.714001 -12.0478 -13.3174 -13.7633 -10.2005 -9.896501 -15.7981 -12.544 -19.107 -18.4758 -16.3055 -12.5269 -9.429001 
-10.0945 -13.7837 -16.5247 -18.6352 -13.9093 -14.3505 -15.8099 -17.8991 -23.0663 -23.2353 -21.5433 -22.0824 -12.5269 
-15.8404 -18.2606 -21.8425 -18.7812 -18.0593 -20.2639 -17.9109 -28.4214 -26.9878 -26.3028 -27.3202 -22.0824 
-1.934 -4.9175 -1.7695 -4.723 -4.0605 -5.172 -5.1605 -7.524 -3.2615 -4.723 -10.5895 -9.778501 -2.8645 -1.4985 -9.026 
-6.1035 -6.9285 -7.098501 -9.4715 -11.136 -10.1265 -12.241 -10.1185 -7.8585 -15.8273 -20.5208 -12.7282 -4.3545 -10.31 
-7.604501 -9.093 -12.2522 -16.626 -16.0905 -17.6236 -14.9453 -14.5955 -19.4092 -25.7586 -23.4705 -14.2182 -13.8944 
-10.1702 -14.3027 -19.4067 -21.5805 -23.5876 -20.0481 -19.6372 -26.1676 -29.3405 -28.7083 -24.9605 -23.7581 
-15.3799 -21.4572 -24.3612 -29.0776 -26.0121 -24.74 -31.1879 -36.0989 -32.2902 -30.1983 -34.5004 
-4.203 -5.1605 -5.1845 -5.74 -3.5065 -3.8735 -4.3195 -4.015 -1.756 -4.732 -4.723 -3.034 -7.539001 -7.751501 -7.716001 -4.0555 -1.7695 -3.519 
-8.4455 -10.0545 -5.7465 -9.197001 -7.8145 -7.817 -7.0655 -5.684 -6.935 -8.984001 -7.1525 -10.622 -7.818501 -7.826001 -10.688 -4.7475 -5.3875 
-13.7633 -10.2005 -9.200001 -13.6106 -9.489 -8.617001 -8.3525 -11.8794 -11.598 -10.0415 -15.0131 -10.9015 -7.852001 -10.9716 -10.781 -6.5975 
-13.9093 -13.654 -13.6114 -15.2851 -9.782001 -9.788 -14.8011 -16.5424 -12.6555 -17.9021 -15.2926 -10.935 -11.0708 -11.0646 -12.631 
-17.3628 -18.0654 -15.2859 -15.5781 -11.0184 -16.29 -19.4641 -17.5999 -20.5161 -18.1816 -15.3261 -14.1538 -11.1638 -12.9146 
