-4.759 
n/a 
n/a 
n/a 
n/a 
-4.759 
n/a 
n/a 
n/a 
n/a 
-4.759 
n/a 
n/a 
n/a 
n/a 
-4.759 
n/a 
n/a 
n/a 
n/a 
-4.891 -3.75 -8.735001 -6.7945 -6.95 
-8.846001 -13.6724 -15.8227 -14.4365 
-19.2806 -20.7601 -23.4647 
-26.3683 -28.4021 
-34.0103 
-5.9715 -6.7945 -2.5195 -4.891 -1.7565 -3.75 -5.4045 -3.3785 
-13.785 -9.6715 -8.022 -6.8725 -5.55 -8.616 -8.389501 
-16.662 -15.2832 -10.1815 -9.365001 -10.476 -12.3632 
-22.2737 -17.4427 -12.8392 -15.5076 -14.2232 
-24.4332 -20.1004 -18.9818 -19.2548 
-4.891 -3.502 -4.639 -6.7945 -2.7415 -4.794 
-7.472 -9.128 -12.5569 -9.0105 -6.637 
-14.7808 -17.2017 -14.7729 -12.9738 
-22.8545 -19.4177 -18.7362 
-25.0705 -23.381 
-4.891 -3.75 -3.8385 -6.7945 -6.56 
-8.846001 -7.918501 -11.0145 -14.0465 
-13.5267 -15.5701 -18.2665 
-21.1783 -22.8221 
-28.4303 
