-4.759 
n/a 
n/a 
n/a 
n/a 
-4.759 
n/a 
n/a 
n/a 
n/a 
-4.759 
n/a 
n/a 
n/a 
n/a 
-4.759 
n/a 
n/a 
n/a 
n/a 
-2.7295 -2.7765 -3.1715 -2.3615 -2.7415 -1.4985 -3.759 -3.914 -1.756 -3.7865 -3.6215 -2.9705 -2.4945 -2.5685 -3.4635 -1.7695 -1.4985 -3.9745 
-4.065 -6.8205 -5.875501 -4.455 -4.063 -4.902 -8.266001 -4.8495 -5.7705 -6.541 -6.446 -4.302 -4.6335 -5.425 -4.2045 -2.7955 -4.7475 
-7.368001 -8.3745 -7.740001 -5.3025 -8.0445 -10.0185 -9.932501 -9.106501 -8.5255 -9.282001 -8.217501 -6.4975 -7.26 -6.775 -4.7965 -5.8925 
-8.9455 -10.7202 -8.553 -9.706 -13.8084 -11.7866 -14.1895 -12.0853 -10.7495 -11.0891 -10.411 -8.799001 -7.503 -7.3865 -7.652 
-11.4602 -11.5332 -13.0087 -15.4487 -15.5765 -16.0436 -17.1683 -14.3093 -12.5566 -13.2826 -12.7125 -8.927501 -7.926001 -10.304 
-2.7295 -2.7765 -3.6785 -2.3615 -2.186 -1.8085 -4.196 -3.452 -2.674 -2.5685 -3.7865 -1.756 -3.914 -3.4635 -1.7695 -1.4985 -3.9745 
-4.065 -5.237 -5.4075 -3.5005 -3.164 -5.245501 -9.0415 -6.838 -5.011 -6.5035 -4.7705 -5.222 -7.1125 -4.2045 -2.7955 -4.7475 
-6.2145 -6.884501 -6.0275 -4.179 -6.0845 -11.0194 -12.5589 -9.0315 -10.2585 -7.553 -9.0325 -7.993 -7.244501 -4.7965 -5.8925 
-7.936501 -7.6365 -6.7295 -7.3345 -12.3392 -14.5368 -14.7524 -14.3932 -11.5758 -12.4092 -12.0165 -8.06 -7.796 -7.652 
-8.489 -8.348001 -10.6875 -13.8316 -15.8566 -16.7303 -20.1141 -15.7105 -16.432 -15.3932 -12.0835 -8.617001 -10.341 
-2.3615 -2.186 -1.8085 -3.716 -4.584 -1.7565 -7.7415 -1.756 -4.9255 -2.871 -3.4635 -1.7695 -1.4985 -3.9745 0 
-3.5005 -3.164 -4.6155 -8.381001 -5.328 -8.6455 -8.6035 -5.9925 -8.167001 -6.995 -4.2045 -2.7955 -4.7475 -3.9745 
-4.179 -5.8275 -8.958501 -9.073501 -12.8706 -9.399 -12.9638 -9.538501 -12.5496 -7.451 -4.7965 -5.8925 -4.7475 
-6.857 -9.865001 -9.838501 -16.8975 -13.6241 -13.7753 -16.5098 -14.0025 -13.0056 -7.9795 -7.652 -5.8925 
-11.2513 -10.2315 -17.6475 -17.651 -18.0004 -17.3213 -20.9738 -14.4585 -13.5341 -10.513 -7.652 
-3.1495 -2.4945 -2.5685 -3.4635 -1.7695 -3.9745 -1.756 -3.7905 
-4.459 -4.6335 -5.425 -4.2045 -5.841001 -5.1055 -5.3495 
-5.958 -7.26 -6.775 -8.078501 -6.989 -8.543 
-8.774 -7.503 -9.611 -8.783501 -10.1225 
-9.0845 -10.5512 -11.155 -12.1486 
