-4.759 
n/a 
n/a 
n/a 
n/a 
-4.759 
n/a 
n/a 
n/a 
n/a 
-4.759 
n/a 
n/a 
n/a 
n/a 
-4.759 
n/a 
n/a 
n/a 
n/a 
-2.3345 -1.4985 -5.1955 -1.7565 -4.3685 -1.7565 -3.8275 -1.934 -5.076 -2.925 -4.2765 -1.4985 -3.8675 -1.7565 -10.0425 0 -1.4985 -3.8745 -1.7565 -4.1755 0 -4.248 -3.59 -1.7565 -4.5495 -1.756 -3.5455 -4.1755 -3.0465 -4.7925 -1.756 -3.321 -3.4905 -3.325 -1.4985 -3.4225 -1.7565 -4.5495 -3.9555 0 
-3.233 -5.9565 -5.5305 -6.035 -5.0855 -4.8265 -5.2615 -6.3845 -8.331 -6.124001 -5.4585 -4.976 -5.702 -8.1025 -6.8575 -1.4985 -5.655001 -5.8715 -5.3105 -4.1755 -4.248 -8.696501 -5.228 -5.9845 -6.372 -5.308001 -7.245 -7.5915 -8.359501 -6.6355 -4.0055 -6.279 -7.052 -3.898 -3.9655 -7.2515 -5.9845 -9.052999 -3.9555 
-8.037001 -6.067 -10.688 -7.351 -9.1695 -6.421 -9.133 -8.633 -11.7762 -7.1765 -9.028501 -6.3335 -12.9016 -8.0385 -8.527 -5.655001 -6.4245 -8.7965 -5.3105 -8.710501 -8.696501 -10.5963 -10.718 -7.478001 -9.0135 -8.937 -11.3364 -13.7013 -9.7215 -8.908 -7 -9.277 -7.6245 -6.646 -8.6 -12.1935 -10.1945 -9.052999 
-8.1665 -11.5109 -12.004 -11.889 -10.75 -10.5225 -11.4429 -12.084 -12.8287 -10.9097 -10.6885 -14.0297 -12.9016 -10.4105 -14.0431 -6.4245 -9.326 -8.7965 -10.3285 -13.8892 -10.5963 -16.0863 -12.2115 -10.7595 -13.7019 -13.2014 -17.4462 -15.0633 -11.994 -11.9993 -10.354 -9.911 -10.5255 -11.5123 -13.5948 -16.4035 -10.1945 
-13.678 -12.8269 -16.542 -13.4695 -14.8515 -12.8324 -14.8939 -13.1365 -16.5619 -12.5697 -18.3847 -14.0297 -15.2736 -15.9266 -14.8126 -9.326 -9.326 -14.1963 -15.4382 -15.789 -16.0863 -17.5798 -15.493 -15.4479 -17.9663 -19.3112 -18.8082 -17.3358 -15.0853 -15.3533 -11.251 -13.2602 -15.3918 -16.5071 -17.8048 -16.4035 
-1.934 -5.076 -3.2615 -6.721 -3.8275 -3.0365 -8.158 -3.8675 0 -4.1755 -4.5495 -4.712 -1.756 -6.758 -4.1755 -2.5045 -6.95 
-6.3845 -8.1805 -9.572001 -10.1765 -6.581 -11.305 -10.297 -3.8675 -4.1755 -6.772 -8.026501 -5.772 -8.1985 -10.6095 -6.711 -9.863501 
-8.4545 -14.765 -13.1635 -12.93 -15.7901 -16.0635 -11.2478 -9.1565 -6.772 -9.650001 -9.0885 -13.1167 -12.6158 -13.145 -14.625 
-15.1054 -18.3565 -15.917 -22.1391 -20.0994 -16.0635 -16.9236 -11.9676 -9.650001 -11.6842 -16.5504 -17.534 -15.1513 -21.059 
-18.6969 -21.11 -25.1261 -26.4484 -20.0994 -21.7393 -19.7347 -14.8456 -11.6842 -19.1461 -20.9677 -20.0695 -23.0653 
-1.934 -5.076 -3.2615 -1.4985 -4.537 -3.8275 -1.4985 -10.0425 -3.8675 -2.7415 -3.8755 0 -1.756 -4.1755 -2.7415 -4.7925 -3.222 -4.1755 -3.8375 0 -4.5495 -4.015 -3.59 -1.756 -3.5455 -4.1755 0 -1.756 -1.4985 -4.7515 -2.7415 -3.4225 -2.356 -3.4155 -4.559 0 
-6.3845 -8.1805 -4.032 -6.164001 -8.673 -5.4605 -7.5765 -10.216 -6.0175 -5.065001 -3.8755 -1.756 -5.79 -6.868001 -6.2365 -5.2095 -7.5515 -7.267501 -3.8375 -4.5495 -6.8555 -7.071501 -5.017 -5.308001 -7.245 -4.1755 -1.756 -3.0405 -4.8385 -6.5005 -6.953 -6.5325 -5.218 -5.0845 -4.559 
-8.4545 -8.888 -8.151501 -9.622001 -10.8226 -10.53 -8.8015 -9.847 -8.758 -5.065001 -5.367 -5.79 -8.2925 -9.191501 -6.4745 -10.353 -11.2087 -7.267501 -8.361 -6.8555 -10.7446 -8.34 -8.719 -8.937 -7.245 -5.751501 -3.0405 -6.274 -6.5155 -10.688 -7.9715 -9.221001 -7.2145 -5.0845 
-9.123 -13.0971 -11.8787 -12.1188 -15.8756 -11.1825 -9.9275 -12.5908 -8.758 -6.532001 -10.6634 -8.2925 -10.7646 -9.415001 -11.8004 -14.0102 -11.2087 -13.1554 -11.1632 -10.7446 -12.0131 -12.2588 -12.733 -8.937 -8.9125 -6.473001 -6.274 -7.89 -10.7025 -11.7065 -10.2535 -9.914001 -7.2145 
-13.3545 -16.8243 -14.3755 -17.1718 -16.5446 -12.684 -12.6253 -12.5828 -10.041 -12.0352 -13.1659 -10.7646 -10.9881 -14.7511 -15.4576 -14.0102 -17.0966 -15.9576 -15.0523 -12.0131 -15.9319 -16.2728 -12.733 -9.998001 -10.0645 -9.606501 -7.89 -12.1614 -11.721 -13.9885 -10.503 -9.914001 
-5.076 -3.277 -3.383 -4.375 -2.7415 -1.934 -4.065 -4.5495 -4.0375 -2.186 -4.248 -1.7565 -1.4985 -4.712 -3.59 -1.756 -3.5455 -4.1755 -6.815001 -4.375 0 
-9.896501 -7.2465 -7.985001 -7.6205 -4.5155 -5.723001 -6.631001 -8.752001 -5.994501 -6.698 -4.8235 -2.4195 -5.918 -9.108001 -5.017 -5.308001 -7.245 -12.0519 -12.102 -4.375 
-13.9764 -12.1397 -11.8731 -9.183001 -8.6405 -9.0655 -10.382 -10.718 -10.634 -7.4315 -5.922 -6.819001 -10.0215 -10.8576 -8.719 -8.937 -15.7968 -17.3389 -12.102 
-18.8696 -16.0278 -13.4356 -13.9174 -12.16 -13.1477 -12.7786 -15.3575 -11.3675 -8.48 -10.76 -11.0899 -12.8827 -14.5596 -12.733 -17.6618 -21.0838 -17.3389 
-22.7577 -17.5903 -18.17 -17.4369 -16.2422 -15.5443 -17.4181 -16.091 -12.416 -13.7764 -15.0309 -13.9511 -16.5847 -18.5736 -21.4578 -22.9488 -21.0838 
