-4.759 
n/a 
n/a 
n/a 
n/a 
-4.759 
n/a 
n/a 
n/a 
n/a 
-4.759 
n/a 
n/a 
n/a 
n/a 
-4.759 
n/a 
n/a 
n/a 
n/a 
-2.8965 -3.1575 -3.5005 -8.255501 0 -5.6395 0 -9.7395 -2.4945 -2.1715 0 -4.3865 
-4.4055 -7.624001 -12.6062 -8.255501 -5.6395 -5.6395 -9.7395 -12.443 -5.443 -2.1715 -4.3865 
-8.778001 -17.2369 -12.6062 -14.3276 -5.6395 -16.4694 -12.443 -15.3915 -5.443 -7.6245 
-18.6361 -17.2369 -18.6783 -14.3276 -16.4694 -19.1729 -15.3915 -15.3915 -10.238 
-18.6361 -23.309 -18.6783 -25.1575 -19.1729 -22.1214 -15.3915 -20.1865 
-4.5335 -5.5105 0 -5.448 0 -6.3015 -4.2105 -2.1715 -3.868 0 
-9.179001 -5.5105 -5.448 -5.448 -6.3015 -11.5966 -6.6175 -5.4465 -3.868 
-9.179001 -8.5445 -5.448 -9.313001 -11.5966 -14.0036 -10.4425 -5.4465 
-12.3562 -8.5445 -9.313001 -15.0385 -14.0036 -17.8286 -10.4425 
-12.3562 -13.0417 -15.0385 -17.4455 -17.8286 -17.8286 
-2.8965 -5.5105 0 -7.132 0 -12.16972 -2.3615 -2.871 -3.8825 -6.4755 
-8.476501 -5.5105 -7.132 -7.132 -12.16972 -14.53122 -4.583 -7.240001 -11.2156 
-8.476501 -13.8711 -7.132 -19.96872 -14.53122 -16.75272 -9.353001 -15.0681 
-17.3347 -13.8711 -19.96872 -22.33022 -16.75272 -21.52272 -17.3223 
-17.3347 -26.70782 -22.33022 -24.55172 -21.52272 -29.49202 
-2.8965 -5.5105 0 -5.448 0 -10.651 -2.4945 -2.356 -1.934 -2.1715 0 0 
-8.476501 -5.5105 -5.448 -5.448 -10.651 -13.1455 -5.6245 -5.342 -4.7035 -2.1715 0 
-8.476501 -8.5445 -5.448 -17.3368 -13.1455 -16.2755 -8.2445 -8.125501 -4.7035 -2.1715 
-12.0081 -8.5445 -17.3368 -19.8313 -16.2755 -18.8955 -9.967001 -8.125501 -4.7035 
-12.0081 -21.0655 -19.8313 -22.9613 -18.8955 -20.618 -9.967001 -8.125501 
