-4.759 
n/a 
n/a 
n/a 
n/a 
-4.759 
n/a 
n/a 
n/a 
n/a 
-4.759 
n/a 
n/a 
n/a 
n/a 
-4.759 
n/a 
n/a 
n/a 
n/a 
-4.142 -3.9035 -1.7565 -3.691 -1.4985 -4.152 -2.186 -2.645 -1.756 -2.4265 -4.416 -2.0935 -2.855 -3.5785 -3.4765 0 
-7.063001 -4.616 -4.930501 -5.5505 -5.139501 -6.3015 -4.528 -4.776 -3.949 -5.9575 -6.177501 -5.6855 -5.1295 -6.9595 -3.4765 
-7.1225 -7.101 -6.5135 -9.313001 -7.1955 -8.769001 -6.8525 -6.9515 -6.8975 -7.9135 -7.073 -7.35 -9.742001 -6.9595 
-9.217001 -8.401 -10.6735 -11.5294 -9.39 -11.1971 -9.053 -10.022 -9.092501 -9.660601 -11.3725 -10.66 -9.742001 
-10.486 -12.6814 -12.8899 -13.7239 -11.8195 -13.3976 -12.2601 -12.1584 -10.8494 -13.9601 -14.6825 -10.66 
-1.934 -1.4985 -4.142 -3.7575 0 -3.0365 -2.742 -4.318 -4.2875 -1.756 -4.152 -3.852 -3.1425 -3.228 -5.7865 -2.855 -3.5785 
-2.6125 -5.0295 -6.985001 -3.7575 -3.0365 -4.668 -8.8405 -8.111 -5.575 -5.8515 -6.307501 -6.9905 -6.515 -8.862501 -8.359501 -5.1295 
-5.665 -7.054501 -6.985001 -6.4085 -4.668 -10.733 -12.6901 -8.98 -8.8465 -8.072001 -9.245501 -9.626 -13.1245 -11.7857 -10.564 
-8.7095 -7.054501 -9.0325 -8.0315 -10.733 -14.5826 -13.5591 -12.3549 -10.733 -11.1158 -12.0424 -16.2935 -16.0477 -13.9902 
-8.7095 -9.151501 -11.0335 -14.3071 -14.5826 -15.4516 -16.934 -14.2414 -13.7768 -13.9127 -18.7099 -19.2167 -18.2522 
-3.5455 -3.9035 -4.2875 -3.383 -3.299 -2.4265 -3.2645 -4.103 -2.356 -2.855 -3.5785 
-8.039501 -8.352501 -7.817 -5.179 -6.3905 -4.563 -8.903501 -6.4525 -6.035 -5.1295 
-13.3255 -12.339 -10.354 -7.6645 -8.249001 -10.243 -11.3878 -10.75 -8.713501 
-17.312 -14.876 -12.8395 -9.5135 -14.3144 -12.8819 -15.6853 -13.4285 
-19.849 -17.3615 -14.6885 -15.6473 -16.9533 -17.1794 -18.3638 
-1.934 -3.5455 -3.9035 -4.318 -4.7 -1.756 -2.925 -3.695 -4.152 -1.934 -2.855 -3.6905 0 
-4.8495 -8.039501 -7.8795 -9.346001 -6.089 -4.2585 -6.4895 -8.130501 -6.101001 -5.7095 -6.6405 -3.6905 
-10.5745 -12.8525 -13.7415 -10.801 -9.179501 -8.141001 -10.647 -9.1855 -10.553 -9.212501 -6.6405 
-15.6315 -18.7145 -15.1965 -13.8915 -13.1642 -12.5403 -11.702 -13.8437 -14.056 -9.212501 
-21.4935 -20.1695 -18.287 -17.8762 -17.5635 -13.5953 -16.3602 -17.3467 -14.056 
