-4.759 
n/a 
n/a 
n/a 
n/a 
-4.759 
n/a 
n/a 
n/a 
n/a 
-4.759 
n/a 
n/a 
n/a 
n/a 
-4.759 
n/a 
n/a 
n/a 
n/a 
-4.1865 -8.946 -4.8015 -2.186 -7.7815 -5.513 0 -7.7235 -3.9165 0 -3.469 
-14.4641 -13.9941 -6.585001 -10.3955 -11.915 -5.513 -7.131001 -10.5305 -3.9165 -3.469 
-19.5122 -15.7776 -14.691 -12.756 -9.803 -9.903501 -10.199 -10.199 -6.4305 
-21.2957 -23.8836 -17.4038 -12.9458 -9.915 -14.5653 -10.199 -13.1762 
-29.4017 -26.5964 -17.4038 -13.0578 -14.8098 -14.5653 -13.1762 
-3.8735 -2.229 -4.1115 -2.229 -3.949 -2.186 -7.7815 -5.513 0 -7.7235 -3.9165 0 0 
-5.3655 -6.6365 -6.808001 -6.065001 -5.811 -10.3955 -11.915 -5.513 -7.131001 -10.5305 -3.9165 0 
-9.128 -9.191 -11.0362 -7.6595 -12.5515 -12.756 -9.803 -9.903501 -10.199 -10.199 -3.9165 
-12.3885 -13.719 -12.6307 -15.4091 -15.7009 -12.9458 -9.915 -14.5653 -10.199 -10.199 
-16.9165 -15.3135 -20.3803 -18.1219 -15.7009 -13.0578 -14.8098 -14.5653 -10.199 
-3.8735 -2.229 -4.1115 -4.675 -4.1555 -5.7865 -7.7815 -5.513 0 -7.7235 -3.9165 0 -3.469 
-5.3655 -6.6365 -6.957001 -8.7615 -8.657501 -12.292 -11.915 -5.513 -7.131001 -10.5305 -3.9165 -3.469 
-9.128 -9.474501 -11.4519 -13.5813 -15.7266 -15.4616 -9.803 -9.903501 -10.199 -10.199 -6.4305 
-12.672 -14.099 -16.2717 -21.0296 -18.6288 -15.4616 -9.915 -14.5653 -10.199 -13.1762 
-17.2965 -18.9188 -23.72 -23.5526 -18.6288 -15.5736 -14.8098 -14.5653 -13.1762 
-4.1865 -4.693 -3.949 -2.186 -7.7815 -5.7335 0 -6.3835 -3.9165 0 
-8.5465 -9.022 -5.811 -10.3955 -12.54 -5.7335 -6.3835 -10.598 -3.9165 
-13.4157 -10.329 -12.5515 -15.8036 -12.8506 -12.9132 -10.598 -10.598 
-14.7227 -17.5061 -18.7485 -15.9934 -20.0303 -17.1277 -10.598 
-21.8998 -23.2665 -18.7485 -23.1731 -24.2448 -17.1277 
