-4.759 
n/a 
n/a 
n/a 
n/a 
-4.759 
n/a 
n/a 
n/a 
n/a 
-4.759 
n/a 
n/a 
n/a 
n/a 
-4.759 
n/a 
n/a 
n/a 
n/a 
-8.5955 -2.229 -7.669 -4.426 -2.356 -3.9615 -5.279 
-10.784 -10.419 -9.79 -6.9545 -5.319 -7.106 
-18.974 -12.54 -12.5011 -9.998 -7.8225 
-21.095 -15.2511 -15.5446 -12.8413 
-23.8061 -18.2946 -18.3879 
-8.8655 -3.6085 -4.426 -2.356 -3.9615 -3.8235 -6.391 0 
-10.6345 -5.896501 -6.9545 -5.319 -7.3695 -9.9135 -6.391 
-10.6685 -8.001 -9.998 -9.0895 -14.3789 -9.9135 
-13.719 -11.4545 -14.1083 -16.2821 -14.3789 
-17.1725 -15.5648 -21.3009 -16.2821 
-3.948 -4.0695 -4.2265 -1.7565 -4.245 -1.756 -5.463 -4.426 -1.7565 -3.6085 
-8.0185 -8.368999 -5.201 -5.743001 -5.425 -6.5295 -8.117001 -5.47 -5.2885 
-12.651 -10.115 -9.219 -6.640501 -9.4385 -9.896501 -8.690001 -8.1815 
-14.397 -14.0796 -10.3165 -10.8848 -13.1385 -10.5479 -11.6401 
-18.3616 -15.1771 -14.5608 -14.5848 -13.7899 -13.498 
-8.5955 -3.6085 -4.426 -1.756 -4.676 -2.356 -3.948 -5.279 -1.7695 -3.9355 0 
-12.6262 -5.896501 -5.891 -6.3955 -7.341001 -5.4665 -7.5385 -7.041 -6.629001 -3.9355 
-14.9142 -7.485001 -8.7965 -8.865 -10.8743 -8.708 -9.132 -8.7015 -6.629001 
-16.5027 -9.908501 -11.3034 -12.5927 -14.1158 -10.3639 -10.9353 -8.7015 
-18.9262 -12.3462 -15.0311 -15.8342 -15.7717 -12.1672 -10.9353 
