-4.759 
n/a 
n/a 
n/a 
n/a 
-4.759 
n/a 
n/a 
n/a 
n/a 
-4.759 
n/a 
n/a 
n/a 
n/a 
-4.759 
n/a 
n/a 
n/a 
n/a 
-5.014 -1.7565 -4.371 
-6.7995 -5.574 
-11.1512 
n/a 
n/a 
-8.362 -12.16972 0 -4.149 -4.371 
-20.98892 -12.16972 -4.149 -8.665001 
-20.98892 -16.31872 -8.665001 
-25.13792 -20.83472 
-29.65392 
-7.246 -9.829 -5.376 0 -5.376 
-17.6078 -16.0118 -5.376 -5.376 
-23.7906 -16.0118 -8.200001 
-23.7906 -18.8358 
-26.6146 
-8.362 -12.16972 -12.16972 0 -4.633 -2.0935 -4.371 
-20.98892 -24.33944 -12.16972 -4.633 -6.798 -6.1305 
-33.15864 -24.33944 -16.80272 -6.798 -10.096 
-33.15864 -28.97244 -18.96772 -10.096 
-37.79164 -31.13744 -22.26572 
