-4.759 
n/a 
n/a 
n/a 
n/a 
-4.759 
n/a 
n/a 
n/a 
n/a 
-4.759 
n/a 
n/a 
n/a 
n/a 
-4.759 
n/a 
n/a 
n/a 
n/a 
-1.934 -2.3335 -5.903 -3.7075 -2.186 -1.934 -8.984 -4.919 
-4.359 -7.599 -10.3965 -5.825 -4.0835 -10.6095 -14.3062 
-10.2169 -12.6019 -12.514 -7.291 -13.3856 -15.9317 
-15.2198 -14.7194 -13.98 -17.4127 -18.7078 
-17.3373 -16.1854 -24.1017 -22.7349 
-3.7075 -2.186 -4.3725 -1.934 -1.4985 -5.3675 -4.74 
-5.825 -5.3785 -5.022501 -2.6125 -6.5115 -10.9507 
-9.2085 -5.9985 -5.515501 -7.565001 -12.8405 
-9.54 -6.3835 -10.7938 -14.4634 
-9.836 -11.9026 -17.6922 
-3.9875 -2.3335 -5.3675 -4.07 -3.7075 -2.186 -4.99 0 
-6.415501 -8.1835 -10.082 -7.9265 -5.825 -5.502 -4.99 
-12.5645 -13.2624 -14.0599 -10.051 -9.232 -5.502 
-17.6434 -17.2403 -16.1844 -13.587 -9.232 
-21.6213 -19.3648 -19.7204 -13.587 
-1.934 -2.3615 -1.4985 -3.7075 -2.186 -1.934 -4.99 -1.934 -1.4985 -5.3675 -4.919 0 
-3.539 -4.913 -4.6235 -5.825 -4.0835 -8.003 -5.477 -2.6125 -6.5115 -11.1297 -4.919 
-6.6215 -8.2815 -5.975501 -7.291 -10.1035 -8.857 -5.791 -7.565001 -13.0195 -11.1297 
-9.92 -9.025001 -7.382501 -14.1306 -10.374 -9.204 -10.674 -14.6424 -13.0195 
-10.9261 -10.6095 -14.5313 -14.4011 -10.604 -14.1414 -17.7514 -14.6424 
