-4.759 
n/a 
n/a 
n/a 
n/a 
-4.759 
n/a 
n/a 
n/a 
n/a 
-4.759 
n/a 
n/a 
n/a 
n/a 
-4.759 
n/a 
n/a 
n/a 
n/a 
-4.4175 -4.208 -4.153 -5.7865 -4.4485 -4.153 
-8.033501 -6.7115 -10.3545 -9.553 -6.742001 
-8.4875 -13.7556 -14.3088 -11.9429 
-16.8536 -17.7099 -16.6987 
-20.8079 -20.0998 
-1.934 -4.208 -4.153 -1.7695 -4.4485 -4.153 0 
-6.304 -6.7115 -6.192 -6.737 -6.742001 -4.153 
-8.529 -9.044001 -10.586 -8.6525 -6.742001 
-11.1435 -13.6068 -10.707 -8.6525 
-15.7063 -13.7278 -10.707 
-2.5195 -4.4175 -2.1715 -1.7695 -2.543 -4.184 -4.153 -3.277 
-7.040501 -6.199 -4.454 -4.76 -5.624001 -5.8855 -8.2075 
-9.323501 -8.915 -5.6645 -7.699501 -7.898001 -10.2485 
-10.5875 -10.7495 -10.403 -9.7705 -12.6488 
-12.422 -15.488 -12.474 -14.6783 
-4.6105 -2.1715 -3.9535 -2.925 -1.7695 -4.4485 -4.153 0 
-6.2985 -7.058001 -6.2725 -3.71 -6.737 -6.742001 -4.153 
-12.361 -9.5635 -8.1005 -8.1455 -8.6525 -6.742001 
-15.1305 -11.4719 -12.6562 -10.4348 -8.6525 
-17.0389 -16.0276 -14.9455 -10.4348 
