-4.759 
n/a 
n/a 
n/a 
n/a 
-4.759 
n/a 
n/a 
n/a 
n/a 
-4.759 
n/a 
n/a 
n/a 
n/a 
-4.759 
n/a 
n/a 
n/a 
n/a 
-2.3615 -2.8965 -4.3305 -3.841 -2.8645 -3.1125 -6.288 -2.356 -3.995 -1.756 -3.135 -3.9035 -2.674 -3.1125 -5.246 -1.934 -1.4985 -4.5285 -1.756 -3.135 -3.9035 -3.851 -1.7695 -5.0405 -1.7565 -3.995 -3.3875 -2.674 -5.5605 -1.4985 -4.0325 -1.7565 -3.995 -1.756 -4.164 -1.7695 -4.4515 0 
-6.0575 -7.446 -9.0735 -6.146 -3.5345 -8.491501 -6.6125 -6.528501 -5.3025 -4.5755 -5.793 -6.8075 -3.6315 -7.3955 -6.7375 -2.6125 -4.936 -5.889 -4.5755 -5.793 -7.705 -4.0015 -7.515 -6.302 -5.423 -7.495501 -4.5095 -6.5235 -6.3875 -4.933001 -5.3175 -5.423 -5.3025 -5.9325 -5.3235 -7.121 -4.4515 
-9.4945 -12.6738 -11.5617 -6.73 -9.3625 -8.847501 -9.5485 -7.620501 -8.144501 -7.2415 -8.303 -7.264 -7.704501 -8.497 -7.283 -5.8485 -6.0385 -8.733 -7.2415 -9.606501 -7.728 -9.2 -9.075001 -9.6285 -8.98 -8.481 -7.8935 -7.154 -9.698501 -5.612 -9.159 -6.429 -9.4925 -7.326 -10.5425 -7.121 
-14.7823 -15.162 -12.1457 -13.5222 -9.66 -11.9963 -9.734 -10.354 -11.0889 -9.271 -8.766001 -9.81 -8.741 -8.899 -10.3815 -7.067 -9.0045 -11.601 -11.5018 -9.620501 -13.2357 -9.703501 -12.4257 -13.2937 -10.3545 -12.1656 -8.355 -10.476 -10.225 -9.464001 -10.2705 -11.1196 -11.0574 -12.7986 -10.5425 
-17.2705 -15.746 -18.9379 -13.8197 -12.7922 -12.1818 -13.7551 -13.2984 -13.1184 -9.855 -11.4294 -11.5515 -9.063001 -12.3439 -11.6 -9.7075 -11.9667 -15.8613 -11.5158 -15.2102 -13.7392 -13.0734 -16.0909 -14.6682 -14.1321 -12.6271 -12.258 -11.0025 -14.077 -10.5435 -14.9611 -12.6845 -16.53 -12.7986 
-1.4985 -3.17 -1.7565 -4.7295 -8.263 -4.5275 -1.934 -4.6985 0 -1.4985 -4.4515 -2.7415 -3.8755 0 
-3.7115 -4.179 -5.969501 -9.589001 -13.2551 -6.2075 -7.228 -4.6985 -1.4985 -5.0235 -6.620001 -5.065001 -3.8755 
-5.2885 -10.155 -11.2394 -14.7957 -14.9351 -12.1609 -7.228 -6.178 -5.0235 -6.796 -8.8255 -5.065001 
-11.4639 -15.4249 -16.4461 -16.4757 -20.8885 -12.1609 -8.676001 -9.1215 -6.796 -9.061501 -8.8255 
-16.7338 -20.6316 -18.1261 -22.4291 -20.8885 -13.6089 -11.7817 -11.2212 -9.061501 -9.061501 
-3.0365 -2.186 -2.664 -3.992 -2.3615 -4.7885 -3.188 -3.841 -2.871 -3.355 -4.431 -2.356 -3.995 0 -1.756 -1.4985 -2.8965 -3.9035 -3.152 -4.5275 -1.934 -7.502 0 -3.851 -1.7695 -3.995 -5.0065 -3.9665 -2.4265 -4.518 -1.4985 -6.282 -8.703 -4.0325 -1.756 -4.3195 -4.4515 
-3.66 -3.8555 -5.4935 -6.3455 -7.501 -6.9655 -7.555501 -6.7375 -5.7015 -7.7135 -5.562 -6.528501 -3.995 -1.756 -3.0405 -3.928 -5.4185 -6.606 -6.809 -6.2075 -10.2435 -7.502 -3.851 -4.0015 -5.497 -7.684 -7.7395 -6.217501 -6.4525 -5.2805 -7.132501 -15.8388 -12.9937 -5.667 -5.563 -9.9755 
-4.9795 -7.0955 -8.118501 -11.976 -9.189 -11.9578 -10.564 -10.2925 -10.0965 -9.42 -8.997001 -6.528501 -5.3025 -3.0405 -5.035 -6.592 -8.1125 -10.1465 -8.089001 -15.1764 -10.2435 -11.046 -4.0015 -8.1755 -9.1485 -10.6335 -10.123 -10.7335 -7.0505 -11.5541 -17.3257 -20.1295 -14.6282 -9.2535 -11.4108 
-8.277 -9.969501 -13.9406 -13.664 -14.2885 -14.9663 -14.119 -14.7373 -10.5815 -13.0918 -8.997001 -7.620501 -6.282 -5.035 -7.9205 -8.793 -11.7312 -11.4265 -17.4769 -15.1764 -13.7875 -11.1965 -8.1755 -10.494 -12.2246 -13.017 -14.6986 -11.3315 -13.4589 -21.7473 -21.6164 -21.764 -18.2147 -15.2305 
-11.7778 -15.8982 -15.6286 -18.7635 -17.297 -18.5213 -18.5638 -15.2223 -14.2533 -13.0918 -9.755 -8.8275 -8.1365 -7.9205 -9.789001 -12.4831 -13.0112 -20.8144 -17.4769 -18.7204 -13.938 -15.3705 -10.494 -13.5701 -14.6081 -17.5926 -15.2966 -17.7399 -23.6521 -26.038 -23.2509 -25.3505 -24.1917 
-2.664 -4.4155 -1.934 -1.4985 -3.995 -4.9405 -3.6835 -3.9035 -5.173 -1.934 -3.7345 -3.995 -1.934 -1.4985 -4.654 -1.7565 -1.8085 -4.365 -4.4155 -4.654 -1.7565 -1.8085 -5.349 -4.4155 0 
-6.551 -7.0005 -2.6125 -4.712 -9.375 -8.824 -8.039501 -9.690001 -6.725 -5.3795 -6.5895 -5.975 -2.6125 -5.268001 -5.178 -3.2595 -5.928 -6.259 -10.7175 -5.178 -3.2595 -6.843 -6.686501 -4.4155 
-8.572001 -7.8085 -6.1055 -9.691501 -13.4315 -13.5308 -14.1166 -11.9342 -10.1345 -8.663501 -9.262501 -6.551 -6.175 -5.348001 -6.008501 -6.6575 -7.378 -13.667 -11.2415 -6.008501 -7.77 -7.618 -6.686501 
-9.1955 -10.553 -11.6134 -13.9642 -18.1383 -19.6079 -16.3608 -15.3437 -13.4185 -9.38 -10.495 -10.2865 -6.258 -6.119501 -9.0275 -8.3435 -15.2826 -14.191 -12.072 -10.286 -8.594001 -7.618 
-12.0332 -16.0609 -15.8861 -18.671 -24.2154 -21.8521 -19.7703 -18.6277 -14.135 -11.2471 -14.2305 -10.7189 -7.1305 -9.095 -11.8587 -16.3403 -15.8066 -15.0215 -16.3495 -11.11 -8.594001 
