-4.759 
n/a 
n/a 
n/a 
n/a 
-4.759 
n/a 
n/a 
n/a 
n/a 
-4.759 
n/a 
n/a 
n/a 
n/a 
-4.759 
n/a 
n/a 
n/a 
n/a 
-3.0365 -2.4945 -3.552 -4.7315 -1.934 -6.557 
-3.688 -6.833 -8.429501 -5.9625 -7.536 
-7.31 -10.218 -9.340501 -9.676001 
-10.223 -10.696 -13.2286 
-10.696 -14.5841 
-5.1845 -5.74 -3.552 -3.8145 -2.4265 -2.8645 0 
-5.7465 -9.536501 -7.787001 -6.6165 -4.1435 -2.8645 
-9.550501 -13.7715 -11.0984 -7.614 -4.1435 
-13.7855 -17.0829 -12.0959 -7.614 
-17.0969 -18.0804 -12.0959 
-10.384 -2.8645 -3.552 -4.7315 
-13.3549 -7.0195 -8.429501 
-17.5099 -10.4675 
-20.9579 
n/a 
-3.0365 -2.4945 -3.552 -4.7315 -1.934 -5.1845 -5.74 
-3.688 -6.833 -8.429501 -5.9625 -6.564 -5.7465 
-7.31 -10.218 -9.340501 -9.0045 -6.819 
-10.223 -10.696 -12.5571 -9.0085 
-10.696 -13.9126 -12.5611 
