-4.759 
n/a 
n/a 
n/a 
n/a 
-4.759 
n/a 
n/a 
n/a 
n/a 
-4.759 
n/a 
n/a 
n/a 
n/a 
-4.759 
n/a 
n/a 
n/a 
n/a 
-1.4985 -5.3885 -4.0935 -3.106 -5.1845 -4.304 -6.0315 0 
-7.283501 -10.6605 -7.4135 -8.1245 -10.5975 -10.238 -6.0315 
-13.2407 -13.9805 -12.8632 -14.4721 -16.5315 -10.238 
-16.5607 -19.4302 -19.2108 -20.4061 -16.5315 
-22.0104 -25.7778 -25.1448 -20.4061 
-3.106 -4.304 -5.8355 -2.4945 -3.0365 -1.934 -5.3885 
-8.088 -7.895501 -7.5975 -4.952001 -5.238 -6.4035 
-10.361 -9.706001 -9.932501 -6.545001 -10.0155 
-12.1715 -12.1342 -10.5785 -11.6181 
-14.5997 -12.7802 -15.6516 
-5.3885 -2.8645 -3.106 -5.563 -2.229 -1.7565 -6.557 -3.1715 
-8.1125 -6.78 -9.404 -7.870501 -4.9155 -7.653501 -8.42 
-12.188 -13.5684 -11.9639 -10.9202 -11.1109 -9.470501 
-18.9764 -16.1283 -15.0136 -17.1156 -12.9279 
-21.5363 -19.178 -21.209 -18.9326 
-3.0365 -2.4945 -3.106 -3.355 -2.229 -1.7565 -3.683 -3.2875 -5.3885 0 
-3.688 -5.8865 -6.9355 -6.4655 -4.9155 -5.2105 -8.1415 -7.762 -5.3885 
-6.968 -10.389 -10.139 -7.429501 -8.6565 -9.345501 -13.1944 -7.762 
-10.7595 -13.8055 -11.2386 -12.1429 -13.0835 -15.4934 -13.1944 
-14.176 -14.9051 -15.952 -16.5699 -19.2314 -15.4934 
