-4.759 
n/a 
n/a 
n/a 
n/a 
-4.759 
n/a 
n/a 
n/a 
n/a 
-4.759 
n/a 
n/a 
n/a 
n/a 
-4.759 
n/a 
n/a 
n/a 
n/a 
-5.585 -2.4945 -3.8245 -1.934 -2.8705 -4.47 
-7.321 -5.751 -4.7245 -4.1055 -7.339 
-10.1995 -6.158 -7.103 -8.871501 
-10.8963 -8.241 -12.5132 
-12.9793 -14.0794 
-4.426 -1.7565 -1.4985 -3.6115 -4.7285 -4.1555 -3.147 0 
-5.47 -2.4195 -4.081 -6.5495 -8.4455 -5.77 -3.147 
-5.9535 -5.180501 -6.670501 -9.978001 -9.541501 -5.77 
-8.462501 -7.797 -10.054 -11.0524 -9.541501 
-10.2375 -11.2985 -11.1648 -11.0524 
-3.3715 -4.9225 -5.7135 -1.7695 -2.791 -3.3435 -2.356 -3.8905 -1.756 -5.585 0 
-7.0565 -11.6502 -6.9665 -4.385 -6.7165 -5.3805 -5.5205 -5.1525 -6.84 -5.585 
-14.2992 -12.9032 -9.943001 -8.5445 -8.878 -7.488501 -6.460501 -10.2085 -6.84 
-15.5522 -15.8797 -14.1025 -10.5975 -10.674 -8.5935 -11.8607 -10.2085 
-18.5287 -20.0392 -16.1555 -12.3935 -11.779 -14.1419 -11.8607 
-3.135 -3.1385 -3.0695 -4.3465 -2.985 -3.3435 -1.7695 -3.564 -3.8125 0 
-4.8745 -4.286 -5.789001 -6.384001 -5.5965 -5.263 -5.494 -8.02 -3.8125 
-6.247 -7.052501 -6.9985 -8.041 -7.2 -8.764 -9.786 -8.02 
-9.5535 -8.309 -8.2665 -8.903001 -10.8472 -13.5076 -9.786 
-10.761 -9.9945 -9.498501 -12.9774 -15.5908 -13.5076 
