-4.759 
n/a 
n/a 
n/a 
n/a 
-4.759 
n/a 
n/a 
n/a 
n/a 
-4.759 
n/a 
n/a 
n/a 
n/a 
-4.759 
n/a 
n/a 
n/a 
n/a 
-5.279 -3.5025 -2.229 -4.571 -2.229 -3.254 
-8.452001 -5.6695 -6.6975 -7.635 -5.408 
-11.5646 -10.341 -10.0645 -10.2865 
-16.2361 -13.708 -12.716 
-19.6031 -16.3595 
-3.254 -1.7565 -3.594 -2.229 -3.618 -1.934 -3.511 -3.5025 0 
-4.0065 -4.791 -6.212 -5.673 -5.7585 -5.953 -6.7585 -3.5025 
-7.911 -7.0125 -9.396 -7.783 -9.382 -7.9775 -6.7585 
-10.6595 -10.096 -11.8638 -11.6117 -12.7583 -7.9775 
-13.743 -12.6406 -15.6925 -14.988 -12.7583 
-3.511 -3.5025 -3.213 -5.9325 -3.254 0 
-6.7585 -6.4255 -9.588 -9.4095 -3.254 
-10.7623 -13.9937 -13.6036 -9.4095 
-18.3305 -18.0093 -13.6036 
-22.3461 -18.0093 

n/a 
n/a 
n/a 
n/a 
