-4.759 
n/a 
n/a 
n/a 
n/a 
-4.759 
n/a 
n/a 
n/a 
n/a 
-4.759 
n/a 
n/a 
n/a 
n/a 
-4.759 
n/a 
n/a 
n/a 
n/a 
-4.142 -3.892 0 -4.3105 -3.9515 -4.0375 0 -5.0335 -3.873 -3.251 -2.871 -7.889 -1.756 -2.8965 -3.468 -2.8645 -3.999 -1.756 -4.285 -4.4705 0 
-6.371 -3.892 -4.3105 -6.0435 -8.460501 -4.0375 -5.0335 -7.995 -7.0195 -5.517 -11.958 -9.467501 -3.751 -5.387 -5.844501 -6.9005 -5.942 -5.81 -7.918 -4.4705 
-6.371 -8.1355 -6.0435 -12.8001 -8.460501 -9.407001 -7.995 -11.3017 -10.0745 -14.9876 -13.5365 -11.5491 -6.639501 -7.975 -9.703001 -9.205501 -6.4575 -8.85 -7.918 
-11.0153 -8.5555 -12.8001 -12.8001 -14.548 -12.6941 -11.3017 -14.3567 -19.5451 -16.5661 -15.6181 -14.4376 -9.118 -12.0717 -12.245 -9.401501 -8.8765 -8.85 
-11.4353 -16.3489 -12.8001 -18.8876 -17.8351 -16.0008 -14.3567 -23.8273 -21.1236 -18.6477 -18.5066 -16.9161 -13.3207 -14.6137 -12.441 -11.8693 -8.8765 
-1.4985 -3.7745 -6.1975 -3.892 -3.251 -3.469 -3.1125 -5.8885 -2.3345 -9.1315 -6.185 -3.0695 -3.423 -4.2615 -2.5685 -3.8195 -1.7565 -3.994 -2.5195 -1.4985 -6.1975 
-4.753 -9.399501 -8.582001 -6.983 -6.1035 -5.5285 -7.458 -6.307 -10.46 -12.9015 -7.924001 -5.397 -6.276 -6.614 -5.398 -4.542 -5.779 -6.884 -3.1695 -7.295 
-9.7885 -10.2875 -10.411 -9.3915 -6.6905 -9.257 -7.9725 -13.5575 -12.154 -11.3115 -10.1225 -8.512501 -8.6035 -8.380001 -5.75 -7.8985 -8.182 -7.5305 -8.754001 
-10.338 -10.684 -10.526 -9.572001 -9.700001 -9.3975 -11.0295 -11.438 -10.8985 -10.8745 -10.724 -10.5325 -10.3475 -8.592501 -9.7915 -10.1105 -8.686501 -13.6582 
-10.688 -10.751 -10.542 -10.2065 -9.822001 -10.7585 -10.734 -10.728 -10.72 -10.7745 -10.7495 -10.75 -10.445 -10.634 -10.6495 -10.5385 -14.9958 

n/a 
n/a 
n/a 
n/a 
-3.5455 -3.892 0 -3.8655 -2.229 -3.9515 -3.892 -1.756 -8.153001 -2.674 -2.871 -4.304 -1.756 -3.769 -2.674 -3.539 -1.756 -2.925 -5.2565 0 
-6.956 -3.892 -3.8655 -5.1985 -5.671 -6.1575 -5.337 -10.368 -11.0145 -4.9525 -7.6615 -5.618501 -4.496 -5.428 -7.157001 -4.867001 -5.003 -8.0465 -5.2565 
-6.956 -6.51 -5.1985 -7.9055 -7.563 -7.6335 -14.724 -13.2295 -13.293 -9.712 -8.955501 -8.790001 -6.1525 -10.2285 -9.309501 -7.172 -10.5519 -8.0465 
-9.8638 -8.806 -7.9055 -10.389 -8.842 -17.3879 -17.5855 -15.508 -18.0525 -11.0892 -12.3486 -10.2925 -11.1302 -12.381 -11.7849 -13.1121 -10.5519 
-12.1598 -11.6478 -10.389 -11.668 -18.8852 -20.2494 -19.864 -20.2675 -19.4297 -14.4823 -13.8511 -15.4452 -13.2827 -14.8564 -17.725 -13.1121 
