-4.759 
n/a 
n/a 
n/a 
n/a 
-4.759 
n/a 
n/a 
n/a 
n/a 
-4.759 
n/a 
n/a 
n/a 
n/a 
-4.759 
n/a 
n/a 
n/a 
n/a 
-1.7695 -3.935 -1.4985 -4.3325 -3.772 -2.3345 -3.45 -3.0695 -2.4945 -3.5645 -7.35 0 -7.35 -4.803 -5.891 -3.402 0 -5.891 -4.925 0 -5.891 -4.972 0 
-4.6555 -5.08 -5.3135 -8.116 -6.047 -5.384501 -4.273 -4.2085 -5.6375 -9.602 -7.35 -7.35 -12.7252 -10.802 -7.641 -3.402 -5.891 -9.463 -4.925 -5.891 -10.2485 -4.972 
-5.519001 -9.7215 -8.543501 -10.7595 -8.829 -5.8915 -5.167 -7.160501 -12.282 -9.602 -9.897 -12.7252 -18.7242 -12.552 -7.641 -9.1805 -9.463 -9.463 -10.2185 -10.2485 -10.2485 
-9.960501 -13.0397 -11.6508 -13.5415 -9.555 -6.8615 -8.192 -14.5014 -12.282 -12.1648 -15.7652 -18.7242 -20.4742 -12.552 -13.8655 -13.1783 -9.463 -14.8401 -14.576 -10.2485 
-13.3125 -16.147 -14.4328 -14.2675 -10.3495 -9.877001 -15.7237 -14.5014 -14.8448 -18.033 -21.7642 -20.4742 -20.4742 -18.7765 -17.8633 -13.1783 -14.8401 -19.1976 -14.576 
-8.868 -4.803 -5.676 -4.273 0 -4.273 -4.043 0 -4.273 -3.8475 0 -3.433 -2.925 -4.1085 -1.7695 -3.935 -3.5645 -8.868 -3.685 -2.985 -3.5205 0 
-14.0392 -11.7232 -9.908501 -4.273 -4.273 -9.318501 -4.043 -4.273 -9.752001 -3.8475 -3.433 -4.511 -5.4945 -4.428 -4.6555 -7.8785 -13.5703 -12.9212 -7.478001 -4.257 -3.5205 
-20.9594 -15.9557 -9.908501 -6.8595 -9.318501 -9.318501 -8.199 -9.752001 -9.752001 -7.008 -4.511 -6.84 -5.779 -6.772 -8.523001 -18.3373 -17.6235 -16.7142 -9.38 -4.257 
-25.1919 -15.9557 -12.662 -12.6766 -9.318501 -13.6383 -14.3028 -9.752001 -13.0003 -7.93 -6.84 -7.022 -8.352501 -11.4137 -19.141 -22.3905 -21.4165 -18.6162 -9.38 
-25.1919 -18.7092 -18.4791 -12.6766 -13.6383 -19.7421 -14.3028 -13.0003 -13.9223 -10.733 -7.022 -9.685 -12.78 -22.0317 -23.1942 -26.1835 -23.3185 -18.6162 
-2.8965 -3.1575 -6.6385 -2.5685 -2.4945 -7.118501 -3.7015 -2.3615 -6.6385 -4.803 -8.953501 -4.53 0 -8.953501 -4.972 -1.756 -8.953501 -7.956 0 
-4.4055 -10.104 -9.97 -5.3665 -7.9145 -13.0725 -5.676 -9.229501 -12.1037 -15.0007 -13.9041 -4.53 -8.953501 -14.3461 -6.084 -10.115 -17.3301 -7.956 
-10.634 -13.4355 -12.8258 -11.6685 -14.221 -15.6095 -12.8618 -14.7711 -22.3014 -19.9513 -13.9041 -14.7955 -14.3461 -15.4581 -15.2668 -18.715 -17.3301 
-13.9655 -16.2913 -18.8976 -17.8883 -16.452 -22.9287 -18.4034 -24.9688 -27.252 -19.9513 -24.1696 -20.1881 -15.4581 -24.6409 -23.8668 -18.715 
-16.8213 -22.3631 -25.3476 -19.8723 -23.7712 -28.4703 -28.6011 -29.9194 -27.252 -30.2168 -29.5622 -21.3001 -24.6409 -33.2409 -23.8668 
-3.4945 -6.963 -2.925 -2.674 -4.9375 -1.7695 -3.613 -1.4985 -2.8965 -6.501 -3.894 
-10.841 -9.165501 -4.1785 -6.915501 -7.166 -4.563 -4.5455 -3.928 -8.104 -9.786501 
-13.0435 -10.4955 -8.208501 -9.810501 -10.5381 -5.1665 -7.271 -8.815001 -11.4539 
-14.3735 -14.5255 -11.2585 -13.231 -11.1416 -7.7185 -12.4756 -12.2807 
-18.4035 -17.5755 -14.679 -13.8345 -13.6936 -13.0849 -15.9413 
