-4.759 
n/a 
n/a 
n/a 
n/a 
-4.759 
n/a 
n/a 
n/a 
n/a 
-4.759 
n/a 
n/a 
n/a 
n/a 
-4.759 
n/a 
n/a 
n/a 
n/a 
-4.4325 -6.315001 -3.1335 -1.756 -7.0215 
-11.7967 -10.4751 -4.562 -8.004 
-15.9568 -11.9036 -10.0925 
-17.3853 -17.4341 
-22.9158 
-1.7695 -3.859 -4.335 0 -1.7695 -4.3455 -4.335 -9.6365 -2.4945 -4.254 
-4.462 -8.3415 -4.335 -1.7695 -4.706 -9.2155 -14.9407 -10.9575 -6.880001 
-9.1665 -8.3415 -5.5565 -4.706 -9.598001 -20.0532 -16.2617 -15.343 
-9.1665 -10.3545 -9.291 -9.598001 -20.4823 -21.3742 -20.6472 
-11.3127 -14.089 -14.1832 -20.4823 -21.8033 -25.7597 
-8.27 -4.077 -1.934 -3.729 -4.4605 0 -4.1225 -1.7565 -3.277 0 -1.756 -4.9015 -4.4605 0 
-12.7738 -4.43 -5.498 -7.951 -4.4605 -4.1225 -5.154 -4.25 -3.277 -1.756 -6.5995 -6.943 -4.4605 
-13.1268 -7.1515 -9.0955 -7.951 -8.786 -5.154 -8.749001 -4.25 -4.6335 -6.5995 -8.497 -6.943 
-15.8483 -10.586 -9.0955 -12.5507 -10.281 -8.749001 -8.749001 -5.673 -10.001 -8.497 -8.497 
-19.2828 -10.586 -13.8454 -14.0457 -13.876 -8.749001 -9.922501 -11.2273 -12.2663 -8.497 
-4.705 -4.335 0 -4.1225 0 -5.083 -2.4945 -8.27 -1.7695 -6.814 
-9.762001 -4.335 -4.1225 -4.1225 -5.083 -7.7075 -10.035 -9.7185 -9.392 
-9.762001 -7.888 -4.1225 -10.459 -7.7075 -15.5128 -11.4835 -17.6746 
-13.315 -7.888 -10.459 -13.0835 -15.5128 -16.9613 -19.4396 
-13.315 -14.6021 -13.0835 -20.8888 -16.9613 -24.9174 
