-4.759 
n/a 
n/a 
n/a 
n/a 
-4.759 
n/a 
n/a 
n/a 
n/a 
-4.759 
n/a 
n/a 
n/a 
n/a 
-4.759 
n/a 
n/a 
n/a 
n/a 
-4.628 -4.743 -4.416 -1.7695 -2.489 -1.8085 -3.4185 -1.7565 -4.834 -7.61 0 
-4.7515 -8.738 -4.687 -3.1405 -3.799 -4.1435 -4.2475 -6.5955 -10.7665 -7.61 
-8.754001 -8.987 -5.375 -4.2615 -5.552 -4.5105 -8.8 -12.9562 -10.7665 
-8.9915 -9.671 -6.195001 -5.7875 -5.7405 -9.577001 -15.6239 -12.9562 
-9.6745 -10.5355 -8.370501 -5.926 -10.621 -16.4795 -15.6239 
-4.628 -4.743 -4.416 -1.7695 -2.489 -1.8085 -3.4185 -1.7565 -1.4985 -4.834 -3.959 
-4.7515 -8.738 -4.687 -3.1405 -3.799 -4.1435 -4.2475 -2.4195 -5.264 -7.1085 
-8.754001 -8.987 -5.375 -4.2615 -5.552 -4.5105 -4.482 -5.7865 -8.1175 
-8.9915 -9.671 -6.195001 -5.7875 -5.7405 -4.7285 -7.7945 -8.705001 
-9.6745 -10.5355 -8.370501 -5.926 -6.1545 -7.9645 -10.9638 
-6.6585 -3.5725 -2.8645 -3.1125 -2.5045 -1.8085 -3.4185 -1.7565 -3.8225 -4.6555 -3.959 0 
-10.8415 -5.469 -3.5345 -5.9905 -3.3625 -4.1435 -4.2475 -5.142 -7.008 -8.9445 -3.959 
-12.738 -8.0445 -6.71 -7.2825 -5.3145 -4.5105 -8.856 -8.595 -9.324 -8.9445 
-15.3135 -11.5824 -7.727 -9.1885 -5.453001 -9.199 -12.815 -10.4675 -9.324 
-18.8514 -12.5994 -9.517 -9.2275 -10.238 -13.0616 -14.6875 -10.4675 
-4.628 -4.743 -2.186 -3.5725 -3.4185 -1.7565 -4.834 -3.959 -2.0935 -1.8085 -3.469 -2.95 
-4.7515 -7.074 -4.471 -8.780001 -4.2475 -6.5955 -7.1085 -5.923 -3.385 -4.362 -4.7535 
-7.087 -9.058001 -9.532001 -9.232 -8.8 -8.340501 -8.990001 -7.35 -5.1655 -4.91 
-9.0635 -14.284 -9.712001 -13.7013 -11.0082 -10.028 -10.4345 -8.699 -5.2885 
-14.2909 -14.464 -14.1547 -15.9095 -12.6957 -11.7427 -11.7835 -8.752501 
