-4.759 
n/a 
n/a 
n/a 
n/a 
-4.759 
n/a 
n/a 
n/a 
n/a 
-4.759 
n/a 
n/a 
n/a 
n/a 
-4.759 
n/a 
n/a 
n/a 
n/a 
0 -6.519001 0 -4.6985 -3.5205 -4.116 -2.7415 -5.175 -2.0935 -12.16972 -3.8275 
-6.519001 -6.519001 -4.6985 -8.849001 -6.8595 -6.432 -7.841001 -5.599 -15.25422 -15.99722 
-6.519001 -12.0299 -8.849001 -12.3802 -9.359 -11.8195 -8.491 -19.27052 -19.08172 
-12.0299 -16.1804 -12.3802 -14.8797 -14.7647 -12.4695 -22.38352 -23.09802 
-16.1804 -19.7116 -14.8797 -20.2854 -15.4147 -26.36202 -26.21102 
0 -6.519001 0 -2.5235 -3.766 -4.5085 -2.4945 -3.401 -2.0935 -1.4985 -10.536 -4.8685 -3.8275 0 
-6.519001 -6.519001 -2.5235 -5.869 -9.2745 -6.755 -5.4495 -5.158 -2.9725 -13.1283 -15.4045 -9.428501 -3.8275 
-6.519001 -10.0855 -5.869 -12.0917 -11.7878 -10.1145 -6.533 -6.3225 -14.8791 -17.9968 -19.9645 -9.428501 
-10.0855 -13.431 -12.0917 -14.605 -15.1473 -11.198 -7.875 -18.5989 -19.7476 -22.5568 -19.9645 
-13.431 -19.6537 -14.605 -17.9645 -16.2308 -12.54 -20.4562 -23.4674 -24.3076 -22.5568 
-6.519001 -2.5235 -3.766 -4.1685 -2.186 -1.8085 -12.16972 -2.229 -3.8275 
-10.0855 -5.869 -7.453001 -6.704 -3.164 -14.47662 -14.39872 -5.697001 
-13.431 -9.739 -9.003501 -7.54 -16.87372 -16.70562 -17.86672 
-17.301 -11.2575 -10.013 -21.79952 -19.10272 -20.17362 
-18.8195 -12.267 -24.54752 -24.02852 -22.57072 
-10.488 -2.5235 -3.766 -7.091001 -4.2675 -1.4985 -3.8275 
-13.0115 -5.869 -11.9592 -12.2129 -5.025001 -4.726 
-16.357 -14.7764 -17.0811 -12.9704 -9.154501 
-25.2644 -19.8983 -17.8386 -17.0999 
-30.3863 -20.6558 -21.9681 
