-4.759 
n/a 
n/a 
n/a 
n/a 
-4.759 
n/a 
n/a 
n/a 
n/a 
-4.759 
n/a 
n/a 
n/a 
n/a 
-4.759 
n/a 
n/a 
n/a 
n/a 
-3.999 0 -2.8195 -2.9775 -4.928 0 
-3.999 -2.8195 -4.235 -7.925501 -4.928 
-6.554 -4.235 -8.776001 -7.925501 
-7.6555 -8.776001 -8.776001 
-12.6455 -8.776001 
-3.74 0 -3.0835 -3.355 -1.7565 -4.867 
-3.74 -3.0835 -5.5885 -3.725 -7.107501 
-7.070001 -5.5885 -5.7605 -9.373 
-10.316 -5.7605 -10.5635 
-10.7125 -10.5635 
-3.522 0 -4.0105 -4.928 
-3.522 -4.0105 -10.111 
-8.2335 -10.111 
-14.6472 
n/a 
-4.0995 0 -3.9175 -2.9775 -3.522 
-4.0995 -3.9175 -4.8395 -6.318501 
-8.932501 -4.8395 -7.112 
-10.123 -7.112 
-12.6177 
