-4.759 
n/a 
n/a 
n/a 
n/a 
-4.759 
n/a 
n/a 
n/a 
n/a 
-4.759 
n/a 
n/a 
n/a 
n/a 
-4.759 
n/a 
n/a 
n/a 
n/a 
-3.2615 -2.3335 -5.8205 -3.7435 -2.229 -3.962 -5.725 0 
-5.0495 -9.165501 -9.184501 -5.5835 -6.2885 -10.3225 -5.725 
-12.3043 -12.6229 -11.2303 -10.564 -12.913 -10.3225 
-15.7617 -14.6687 -16.2108 -17.1885 -12.913 
-17.8075 -19.6492 -22.8353 -17.1885 
-3.321 -4.425 -3.535 -5.8205 
-6.4005 -7.658501 -9.122001 
-10.316 -13.8331 
-16.4906 
n/a 
-3.321 -5.8205 -5.188 -3.0465 -4.9995 
-10.281 -9.734 -8.852 -8.179501 
-14.5903 -13.6352 -14.1456 
-18.4915 -18.9288 
-23.7851 
-3.321 0 -5.8205 -4.6595 -2.674 -6.0315 
-3.321 -5.8205 -9.2875 -8.2165 -9.3995 
-10.281 -9.2875 -12.9123 -15.162 
-14.1438 -12.9123 -19.8578 
-17.7686 -19.8578 
