-4.759 
n/a 
n/a 
n/a 
n/a 
-4.759 
n/a 
n/a 
n/a 
n/a 
-4.759 
n/a 
n/a 
n/a 
n/a 
-4.759 
n/a 
n/a 
n/a 
n/a 
-4.394 -2.186 -3.098 -2.871 -1.4985 -7.8205 -4.3705 -3.89 
-6.173 -4.5535 -4.554 -5.1 -8.4405 -12.9084 -8.058001 
-8.8275 -5.568 -7.062 -12.2758 -14.7218 -16.5959 
-10.096 -8.2425 -14.3266 -18.5571 -18.4093 
-13.1519 -15.6375 -20.6079 -22.2446 
-2.847 -3.956 -2.264 -4.394 
-6.922 -6.048 -6.949 
-9.387501 -11.5428 
-15.2409 
n/a 
-3.098 -4.394 -2.186 -4.3705 
-8.1215 -6.173 -6.6125 
-10.335 -9.7635 
-14.1297 
n/a 
-4.394 -2.186 -3.098 -3.89 0 -2.3335 -4.439 -4.6135 0 
-6.173 -4.5535 -5.19 -3.89 -2.3335 -5.8735 -8.012501 -4.6135 
-8.8275 -8.316 -5.19 -5.018 -5.8735 -10.4425 -8.012501 
-12.75 -8.316 -5.744 -9.679001 -10.4425 -10.4425 
-12.75 -8.9615 -10.238 -14.2296 -10.4425 
