-4.759 
n/a 
n/a 
n/a 
n/a 
-4.759 
n/a 
n/a 
n/a 
n/a 
-4.759 
n/a 
n/a 
n/a 
n/a 
-4.759 
n/a 
n/a 
n/a 
n/a 
-4.575 -5.084 -1.756 -3.9545 -4.454 -2.8645 -3.8755 -1.4985 -3.8315 -3.995 -2.229 -5.732 -3.3755 0 
-6.402 -7.1265 -5.054 -7.9965 -6.8455 -5.3955 -5.275 -4.604 -7.158501 -5.324 -8.18 -5.8985 -3.3755 
-8.0465 -11.0809 -9.251 -10.1225 -8.8975 -6.509501 -8.7775 -7.601001 -8.43 -10.1265 -8.558001 -5.8985 
-12.8925 -15.2779 -11.5598 -12.5049 -10.0075 -10.1145 -12.0155 -8.965501 -13.9943 -10.1575 -8.558001 
-17.0895 -17.5867 -13.9422 -13.6149 -13.6125 -13.5315 -13.38 -14.6286 -14.0253 -10.1575 
-1.4985 -4.6985 -2.7415 -3.8755 -2.3345 -5.173 0 
-5.1995 -6.642 -5.065001 -4.4955 -7.9805 -5.173 
-6.8 -8.782001 -5.7145 -10.2185 -7.9805 
-9.903501 -9.4505 -12.0367 -10.2185 
-10.3925 -15.8861 -12.0367 
-4.7885 -3.7345 -3.8755 -3.851 -1.7695 -1.4985 -4.575 
-5.866 -7.313001 -7.4515 -4.0015 -2.7955 -5.592501 
-9.691501 -10.749 -7.474 -4.5775 -7.1545 
-13.0885 -10.7765 -7.9585 -8.087001 
-13.116 -11.261 -11.6098 
-3.898 -6.2205 -1.756 -3.599 -3.135 -1.4985 -3.995 -1.934 -8.7255 -4.478 -5.173 0 
-6.7865 -8.209001 -5.2745 -7.34 -6.1805 -4.712 -5.975 -7.7875 -11.8125 -10.4595 -5.173 
-8.645 -10.733 -8.9995 -10.6483 -9.579 -6.419001 -11.9475 -14.529 -18.508 -10.4595 
-11.4782 -14.458 -12.3866 -14.0468 -11.6488 -12.6962 -19.1263 -20.8591 -18.508 
-15.2032 -17.8451 -15.7851 -16.1166 -17.9336 -19.6294 -25.1078 -20.8591 
