-4.759 
n/a 
n/a 
n/a 
n/a 
-4.759 
n/a 
n/a 
n/a 
n/a 
-4.759 
n/a 
n/a 
n/a 
n/a 
-4.759 
n/a 
n/a 
n/a 
n/a 
-3.135 -4.4525 -3.441 -2.5045 -4.9205 -1.756 -2.925 -3.2645 -5.651501 -3.047 -3.115 -2.3615 -4.018 -2.925 -3.3875 -3.047 -2.3615 -2.5045 -2.664 -3.0435 -4.053 0 -3.7375 -3.7495 -5.42 0 -2.5685 -4.029 -2.5685 -4.088 -3.598 -3.991 -2.186 -3.2825 0 0 -4.6905 -3.473 -2.0935 -3.441 -1.756 -2.8965 -4.6945 -3.7495 -2.8645 -1.7695 -2.489 -5.1895 -2.925 -4.422 0 
-8.271 -8.803501 -6.105 -7.701 -6.2335 -4.2585 -4.8195 -9.6575 -6.8925 -7.094501 -4.312 -6.475 -6.176 -5.1415 -5.5275 -4.672 -5.006 -4.074 -7.713 -5.478001 -4.053 -3.7375 -6.5375 -8.1415 -5.42 -2.5685 -6.5525 -7.115001 -6.2235 -8.601 -7.8175 -6.311 -5.0055 -3.2825 0 -4.6905 -8.073 -5.2585 -5.3855 -4.7645 -3.751 -8.2825 -8.149 -6.5885 -4.4755 -3.1405 -6.1405 -8.3985 -7.5365 -4.422 
-12.8372 -9.826 -12.0325 -9.161501 -9.2335 -6.2075 -9.709001 -11.656 -12.0495 -8.3855 -8.114 -9.167 -8.047 -7.856501 -7.147 -6.231 -6.186 -8.9025 -9.476501 -5.478001 -8.571 -6.5375 -10.389 -8.1415 -7.851 -6.5525 -9.0165 -11.1678 -10.2755 -13.1587 -10.028 -8.960501 -5.0055 -3.2825 -4.6905 -8.073 -10.068 -8.186001 -6.38 -6.7795 -9.3885 -10.7495 -11.362 -8.6225 -4.9335 -6.8425 -9.329 -13.1212 -7.5365 
-13.8597 -16.0575 -13.493 -12.3355 -11.2381 -11.2348 -11.292 -13.3669 -13.6494 -12.4265 -10.4425 -11.0814 -10.6465 -9.561001 -9.077001 -7.018001 -11.5413 -10.7495 -9.476501 -10.553 -10.2645 -10.389 -10.389 -10.543 -12.115 -9.0165 -13.5055 -15.2198 -15.2 -15.3692 -12.8161 -8.960501 -5.0055 -8.954 -8.073 -10.068 -12.9955 -9.357 -8.541 -13.2618 -12.4265 -13.9625 -13.396 -9.043501 -8.3 -9.693001 -14.1027 -13.1212 
-20.0912 -17.518 -16.667 -14.3401 -16.2654 -13.1604 -15.8324 -15.9368 -17.6904 -14.755 -12.3569 -13.6809 -12.351 -10.4605 -9.789001 -12.8961 -13.3883 -10.7495 -14.7501 -12.2465 -14.116 -10.389 -12.7905 -14.807 -14.579 -13.5055 -17.5575 -20.1443 -17.4105 -18.1573 -12.8161 -8.960501 -11.6994 -12.4357 -10.068 -12.9955 -14.1665 -11.752 -15.4723 -16.2998 -15.6395 -15.9965 -13.817 -12.4944 -11.3805 -14.4657 -14.1027 
-4.0005 -3.1385 0 -1.934 -3.333 -1.7695 -3.047 -4.225 -2.6165 -2.5045 -2.664 -4.6545 -2.872 -2.5195 -1.8085 -3.891 -4.6545 0 -4.422 -2.3335 -1.4985 -3.307 -1.7565 -4.3285 -3.598 -3.2895 -2.9705 -2.4945 -1.934 -5.126 -1.934 -4.0005 -4.0805 -3.2645 -6.162 -1.4985 -4.565 -1.7565 -4.0805 -2.3335 -2.4945 -1.934 -4.1495 -1.7565 -4.7775 -1.4985 -4.103 -1.756 -3.127 0 
-6.362 -3.1385 -1.934 -3.9835 -4.022 -3.768 -8.1105 -7.306001 -4.853 -4.074 -6.2245 -7.1075 -5.631001 -3.8815 -5.284 -8.804001 -4.6545 -4.422 -6.401 -3.3515 -4.8975 -4.6865 -6.1545 -7.8925 -5.7285 -6.1815 -4.302 -4.2645 -6.462 -7.2475 -5.189 -7.467 -6.534 -8.658001 -6.915 -5.8325 -4.631 -5.749001 -5.5135 -3.947 -4.2645 -5.062 -5.041 -5.931 -5.4715 -5.993501 -5.264 -4.7995 -3.127 
-6.362 -4.522 -3.9835 -4.0425 -6.2285 -9.250501 -11.6477 -9.204 -6.5895 -6.83 -8.3725 -10.1765 -6.6255 -6.914 -9.3485 -8.804001 -10.5645 -6.401 -7.7075 -6.8345 -5.244 -7.567 -8.741501 -9.786501 -9.569 -7.173501 -6.0675 -7.684 -7.6285 -9.818001 -8.8985 -9.928 -12.4695 -9.271001 -10.7335 -5.966 -7.304 -6.778 -6.4125 -5.6445 -6.5925 -5.289001 -8.008 -6.4635 -9.406 -7.1165 -7.546 -4.7995 
-7.6455 -6.887501 -4.0425 -6.2395 -12.3762 -13.0339 -13.5457 -10.4595 -9.053 -8.8585 -11.7201 -11.178 -9.304001 -9.872001 -9.3485 -14.9186 -12.5435 -7.7075 -11.4109 -7.363 -8.1555 -11.359 -11.5299 -14.417 -10.4445 -9.0825 -9.384001 -9.087001 -9.972001 -13.6553 -11.4991 -16.1871 -13.0825 -13.2559 -10.76 -9.002001 -8.752 -7.7415 -8.226501 -8.115001 -6.757 -8.036501 -8.5185 -10.2975 -10.342 -9.964001 -7.546 
-9.478001 -6.933001 -6.2395 -12.392 -16.1596 -14.9319 -14.8012 -12.923 -9.613501 -12.3359 -12.7216 -13.8565 -12.851 -9.872001 -15.5819 -16.8976 -13.85 -11.4109 -11.9394 -10.5035 -12.0887 -14.1474 -16.1604 -15.2925 -12.6261 -12.6372 -10.1475 -11.4971 -13.8215 -16.2559 -17.7582 -16.8001 -17.0674 -13.2824 -13.796 -9.52 -9.8585 -9.717501 -9.783001 -8.219001 -9.318001 -8.548501 -12.4663 -11.5471 -13.1895 -9.964001 
-3.135 -7.1645 -2.6165 -4.1205 -3.72 -2.5045 -1.8085 -3.5895 -4.1975 0 -1.934 -3.135 -4.5675 -3.757 -3.598 -3.2895 -3.3875 -4.816 -4.0735 -3.473 -2.645 -3.1575 -3.3935 -4.676 -3.2645 -2.489 -6.38 
-8.994501 -10.016 -5.554 -8.3725 -6.396501 -3.3625 -5.8885 -8.246 -4.1975 -1.934 -4.4015 -8.120001 -8.788 -7.721001 -5.7285 -6.981 -7.515 -7.025001 -7.7155 -6.419 -3.72 -5.109 -8.117001 -6.986 -3.7195 -7.110001 
-12.074 -13.0385 -9.484001 -10.2985 -7.2425 -7.26 -10.292 -8.246 -6.049 -4.4015 -9.757001 -12.6953 -12.9262 -11.2055 -10.2755 -11.906 -11.748 -12.478 -10.702 -7.528 -5.317 -8.899 -10.8144 -7.594501 -8.712001 
-15.0965 -16.9685 -11.644 -11.1445 -11.6604 -12.0781 -10.292 -10.281 -8.496 -9.757001 -14.3759 -16.8335 -16.4107 -15.7525 -15.3515 -16.4819 -15.9383 -15.9417 -11.811 -9.1905 -8.9055 -11.7318 -11.4229 -12.9944 
-19.0265 -19.1285 -12.49 -15.5624 -16.4785 -12.0781 -12.327 -12.728 -14.0865 -14.3759 -18.5141 -20.318 -20.9577 -20.8285 -19.9274 -20.4128 -19.1006 -17.0507 -13.4735 -12.9318 -11.7445 -12.3403 -16.8228 
-4.87 0 -1.7695 -2.6165 -1.7695 -3.047 -1.4985 -3.913 -2.5045 -1.4985 -4.1975 -1.7565 -3.5895 0 -1.756 -1.7695 -3.047 -2.4265 -2.5045 -1.4985 -3.0435 0 -3.17 -1.7565 -1.4985 -3.0435 -4.676 0 -3.0695 -2.4945 -4.7775 -1.4985 -4.103 0 -4.896 -1.4985 -4.359 -3.9005 -3.598 -3.2895 0 
-4.87 -1.7695 -4.994 -4.153 -3.768 -4.095 -5.145 -6.28 -3.583 -5.611501 -5.471 -4.8595 -3.5895 -1.756 -3.963 -3.768 -4.803 -4.6185 -3.583 -4.4865 -3.0435 -3.17 -4.179 -2.4195 -4.4865 -7.063001 -4.676 -3.0695 -4.2085 -6.615 -5.4715 -5.993501 -4.103 -4.896 -6.111501 -5.6425 -8.8685 -7.2215 -5.7285 -3.2895 
-6.291 -4.994 -6.978001 -6.4635 -4.6855 -8.564001 -8.522 -7.1785 -7.7795 -6.943001 -6.299 -4.8595 -4.937 -3.963 -6.14 -5.41 -5.99 -5.8005 -6.620501 -4.4865 -6.613 -4.179 -4.497 -5.3475 -8.869 -7.063001 -6.693501 -4.2085 -8.208 -7.651 -9.406 -5.993501 -9.883 -6.111501 -10.8993 -10.361 -12.4577 -10.0745 -5.7285 
-9.262501 -6.978001 -9.316501 -7.3655 -9.410001 -11.8818 -9.8505 -11.8746 -9.109 -8.3745 -6.299 -5.938 -7.083 -6.14 -7.8285 -6.9575 -7.278501 -8.989 -6.620501 -8.086 -7.627501 -4.497 -7.5875 -9.5775 -8.869 -9.3815 -7.5385 -8.208 -9.008501 -11.6433 -9.406 -12.5021 -11.2587 -10.8993 -15.6178 -13.9502 -15.3107 -10.0745 
-10.435 -9.316501 -10.0675 -12.2388 -12.9614 -13.2103 -14.6092 -13.2041 -10.4045 -8.3745 -7.296 -8.2585 -9.289001 -7.8285 -8.8385 -8.2215 -10.4105 -8.989 -10.7495 -8.718 -8.039001 -7.5875 -12.1743 -9.5775 -11.3061 -10.5435 -11.9856 -9.008501 -13.0726 -11.6433 -16.236 -13.8778 -16.0465 -15.6178 -19.207 -16.8032 -15.3107 
