-4.759 
n/a 
n/a 
n/a 
n/a 
-4.759 
n/a 
n/a 
n/a 
n/a 
-4.759 
n/a 
n/a 
n/a 
n/a 
-4.759 
n/a 
n/a 
n/a 
n/a 
-7.7175 -2.186 -1.8085 -3.585 -3.3155 -5.409 -2.186 -7.0305 -2.356 -2.9995 -3.8315 -4.916 -4.142 -2.872 -3.098 -2.3345 -5.289 -1.4985 -9.088 -3.9035 
-9.8405 -3.164 -5.0455 -6.337501 -8.357 -7.2535 -8.3645 -8.9925 -4.6235 -7.196 -7.5635 -10.0575 -7.222 -5.0315 -5.214 -6.7205 -6.004 -10.513 -13.7779 
-10.8701 -6.0025 -7.134 -10.218 -9.174001 -9.635 -11.0277 -11.4072 -8.806001 -11.5592 -13.1546 -13.4175 -9.2065 -6.837 -9.200001 -7.2085 -15.6477 -15.2029 
-13.7086 -7.6355 -10.3605 -11.2464 -11.8765 -12.571 -13.4424 -15.5897 -13.6442 -17.1503 -16.5146 -15.402 -11.1166 -11.187 -9.7405 -17.2128 -20.3376 
-15.3416 -10.5635 -11.5129 -13.9489 -14.8125 -14.9857 -17.6249 -20.4279 -19.2353 -20.5103 -18.4991 -17.3121 -15.4666 -11.7275 -19.7448 -21.9027 
-5.5335 -2.186 -3.013 -5.651501 -3.8315 -2.356 -1.8085 -3.6765 0 -2.4285 -3.135 -4.16 -1.7695 -4.157 -8.274 -1.7565 -3.3725 -1.756 -3.7555 -1.8085 -4.361 -4.495 
-7.212501 -6.109 -8.529501 -9.7145 -5.4065 -3.4075 -4.452 -3.6765 -2.4285 -5.264501 -6.393001 -5.778501 -5.655 -10.1995 -8.1075 -6.362501 -5.6915 -5.2875 -4.597 -5.9205 -8.146501 
-11.8381 -10.738 -12.7425 -11.4935 -6.3285 -6.176001 -4.452 -5.063 -5.264501 -8.875501 -8.2325 -10.064 -11.9538 -13.7458 -13.8559 -8.028501 -9.137501 -6.145 -9.3855 -9.255501 
-16.4911 -15.9784 -14.7764 -11.912 -8.198 -6.176001 -5.786 -8.092 -8.875501 -11.082 -12.749 -16.4786 -15.1613 -19.0112 -15.5109 -11.7655 -9.9045 -11.0889 -12.8713 
-21.7075 -17.7819 -15.0489 -14.5537 -8.198 -6.654 -9.137 -11.9686 -11.082 -15.5985 -19.1636 -19.6861 -20.4267 -20.6772 -19.2479 -12.5325 -14.9396 -14.5747 
-5.5335 -2.186 -3.754 -3.8535 -4.685 -2.5195 -3.8665 -4.361 -3.991 -1.756 -3.8255 -5.6615 -2.9905 -1.7565 -2.4265 -3.115 -5.289 -1.4985 -6.219 -2.4285 -2.3345 -3.8825 -2.8965 -3.991 0 
-7.212501 -4.981 -6.5655 -8.217501 -5.093 -6.037 -7.816 -9.116 -5.0735 -5.3525 -10.1465 -9.216001 -3.6185 -4.305 -5.3335 -7.8935 -6.004 -6.9515 -7.5825 -4.648 -6.7205 -7.435 -5.8275 -3.991 
-9.4355 -8.3015 -11.2733 -8.240001 -8.757001 -10.4945 -13.1978 -10.2335 -9.3695 -11.9555 -13.8208 -9.341001 -5.507 -6.522501 -10.5325 -8.6155 -9.311501 -7.9495 -10.3345 -8.314501 -10.2225 -10.467 -5.8275 
-13.003 -13.5089 -11.2958 -11.9624 -13.1733 -15.8763 -14.3153 -14.5295 -16.0231 -15.6298 -13.9458 -11.5507 -7.910501 -12.0607 -11.2545 -12.1166 -10.16 -11.1695 -14.001 -12.3383 -13.2545 -10.467 
-18.2104 -13.5314 -15.0182 -16.3787 -18.5551 -16.9938 -18.6113 -21.1831 -19.6974 -15.7548 -16.1555 -13.9542 -13.2649 -12.7827 -14.7556 -12.9651 -13.6064 -14.836 -18.0248 -15.3703 -13.2545 
-5.5335 -3.757 -3.8255 -4.361 -4.7605 -2.6165 -3.3255 -3.8315 -2.872 -3.3255 -3.135 -2.8965 -4.029 -3.115 -5.729 -4.361 -5.207 -2.3345 -5.289 -2.4285 -3.135 -2.8965 -4.029 0 
-9.4005 -6.9315 -8.4925 -6.7485 -7.4965 -6.2535 -7.4525 -6.540501 -6.269 -5.8075 -4.9085 -5.4465 -6.6645 -9.0275 -9.7605 -7.151 -7.585501 -6.7205 -7.21 -5.264501 -4.9085 -5.4465 -4.029 
-12.8524 -11.9309 -9.186001 -9.3665 -11.8127 -10.016 -9.248501 -9.908001 -8.3295 -7.337 -7.422 -8.063001 -13.091 -13.2574 -12.6455 -9.5765 -12.2337 -8.436001 -10.204 -5.688 -7.422 -5.4465 
-17.8518 -12.6244 -12.4418 -13.7649 -15.5752 -10.6145 -10.587 -11.9453 -9.7145 -9.585001 -9.964001 -14.7557 -17.3209 -16.1424 -15.071 -14.2493 -13.9492 -11.8016 -10.9203 -9.130501 -7.422 
-18.5453 -15.8802 -16.8402 -17.5274 -16.1737 -10.7585 -12.6243 -13.3303 -11.9827 -12.7976 -16.6567 -18.9856 -20.2059 -18.5679 -19.7438 -15.9648 -17.3148 -12.5179 -14.3628 -9.130501 
