-4.759 
n/a 
n/a 
n/a 
n/a 
-4.759 
n/a 
n/a 
n/a 
n/a 
-4.759 
n/a 
n/a 
n/a 
n/a 
-4.759 
n/a 
n/a 
n/a 
n/a 
-6.864 -3.7515 -3.074 -3.849 -4.5475 -3.7515 
-10.513 -7.259 -5.417 -7.849501 -7.793 
-14.0205 -9.241501 -9.3645 -10.4765 
-16.003 -13.4224 -12.1339 
-20.1839 -16.1918 
-1.4985 -3.8405 -1.7565 -7.4885 -2.186 -3.849 -2.5045 -4.5475 -3.7515 
-4.7545 -4.563 -9.320001 -9.908501 -4.8565 -6.305 -7.0955 -7.793 
-5.365 -13.2877 -11.8938 -12.579 -7.104 -10.718 -10.599 
-14.1329 -15.8615 -14.5643 -14.8265 -11.6468 -14.2215 
-16.7067 -18.532 -16.8118 -19.3693 -15.1503 
-10.7225 -3.8405 -2.186 -3.074 -3.849 -2.5045 -1.4985 -4.5475 -3.7515 -1.7565 -8.27 0 
-14.563 -5.629 -4.156 -5.417 -6.305 -3.583 -5.662001 -7.793 -4.6045 -9.440001 -8.27 
-16.3515 -7.628 -6.3275 -7.559 -7.3745 -7.670001 -8.0045 -8.621 -13.3566 -9.440001 
-18.3505 -9.400001 -7.9575 -8.4835 -11.6399 -9.830001 -8.677001 -17.8569 -13.3566 
-20.1225 -11.3362 -8.786 -12.8393 -13.7999 -10.1415 -17.9495 -17.8569 
-2.4265 -2.186 -5.6155 -1.7695 -3.6785 -6.864 -3.8405 -2.186 -4.5475 -3.7515 
-3.292 -6.467501 -7.647501 -4.268 -11.5053 -8.532001 -5.629 -7.378 -7.793 
-6.6325 -8.032001 -9.169001 -12.4644 -13.1733 -10.403 -10.4265 -10.348 
-8.063001 -9.514001 -17.7844 -14.1324 -15.0443 -15.2005 -13.7411 
-9.592 -18.7868 -19.4524 -16.0034 -19.8418 -18.5151 
