-4.759 
n/a 
n/a 
n/a 
n/a 
-4.759 
n/a 
n/a 
n/a 
n/a 
-4.759 
n/a 
n/a 
n/a 
n/a 
-4.759 
n/a 
n/a 
n/a 
n/a 
-1.934 -1.4985 -3.8315 -3.4795 0 -6.578001 -4.68 -2.925 -3.3255 -1.4985 -4.0655 0 -2.264 -5.0115 -3.958 -3.9485 -1.4985 -3.7745 -4.829 0 
-2.6125 -4.604 -5.7135 -3.4795 -6.578001 -9.172501 -6.5445 -5.9315 -3.8945 -5.895 -4.0655 -2.264 -5.697001 -8.281501 -6.736 -4.537 -4.753 -8.6405 -4.829 
-5.003 -5.9395 -5.7135 -10.4035 -9.172501 -10.4115 -9.2075 -6.281001 -7.756001 -5.895 -5.592 -5.697001 -8.792 -9.712501 -6.986 -7.3075 -9.1105 -8.6405 
-6.202 -5.9395 -10.5865 -10.6595 -10.4115 -10.687 -9.4455 -9.810501 -7.756001 -7.913 -10.4595 -8.792 -10.5865 -9.933001 -9.742001 -10.264 -9.1105 
-6.202 -10.6735 -10.693 -10.708 -10.687 -10.71 -10.6615 -9.810501 -9.595501 -10.674 -10.6885 -10.5865 -10.617 -10.6805 -12.7027 -10.264 
-3.59 -3.3195 -1.756 -9.3885 -1.7565 -1.756 -4.3465 -1.934 -4.889 -3.158 -1.756 -4.748 -3.158 0 
-5.315 -4.768 -11.117 -10.4265 -4.98 -5.4685 -6.108001 -6.253 -8.2915 -4.703 -7.099 -8.4735 -3.158 
-7.056 -15.2392 -12.155 -13.8726 -9.903501 -7.2985 -10.9454 -10.3345 -10.5829 -10.757 -11.2619 -8.4735 
-17.9898 -16.2772 -15.6011 -18.7961 -11.8887 -12.5457 -15.0269 -12.8755 -16.6369 -14.9199 -11.2619 
-19.0278 -19.7233 -20.5246 -20.7813 -17.1359 -16.6272 -17.5679 -18.9295 -20.7998 -14.9199 
-8.352 -3.3195 0 -9.4965 -1.756 -7.143 -1.756 -3.8845 -1.756 -4.3465 -3.152 -7.532001 -2.5045 -1.4985 -4.255 -1.7565 -4.889 -4.184 -3.277 -1.756 -4.748 -4.184 -3.277 0 
-11.0465 -3.3195 -9.4965 -10.9075 -7.718 -8.247 -5.738 -5.239 -5.4685 -7.995001 -10.155 -9.357501 -3.1915 -4.974 -7.254 -6.982 -9.6175 -8.163 -4.6195 -7.099 -9.319 -8.163 -3.277 
-11.0465 -13.883 -10.9075 -16.8695 -9.075001 -12.6906 -6.97 -5.628 -8.794001 -15.2594 -11.9805 -9.808001 -6.776 -7.5725 -13.2299 -12.1841 -13.6157 -9.5935 -10.674 -12.1074 -13.3536 -8.163 
-21.61 -15.294 -16.8695 -18.2265 -13.611 -13.9226 -7.1355 -8.924001 -16.1838 -17.0849 -12.431 -13.3925 -9.0455 -13.8604 -18.432 -16.1823 -15.0462 -15.648 -15.6824 -16.142 -13.3536 
-23.021 -21.256 -18.2265 -22.7625 -14.843 -14.0881 -9.4235 -16.3746 -18.0093 -17.5354 -16.0155 -15.662 -15.2816 -19.0625 -22.4302 -17.6128 -21.1007 -20.6564 -19.717 -16.142 

n/a 
n/a 
n/a 
n/a 
