-4.759 
n/a 
n/a 
n/a 
n/a 
-4.759 
n/a 
n/a 
n/a 
n/a 
-4.759 
n/a 
n/a 
n/a 
n/a 
-4.759 
n/a 
n/a 
n/a 
n/a 
-1.4985 -9.0675 -1.7565 -3.8655 -1.934 -3.5905 -12.16972 
-10.001 -10.025 -5.196 -5.918 -5.055 -16.28542 
-10.738 -13.6901 -7.0005 -8.007 -18.21732 
-14.4031 -15.4946 -9.239 -21.28632 
-16.2076 -17.7331 -22.61592 
-1.934 -3.5905 -3.8655 -4.845 -3.873 -4.938 -4.174 0 -4.3105 -5.0505 -1.756 -9.679501 -3.4715 -3.1385 0 -4.174 -2.7415 -9.604 
-5.055 -7.3875 -9.5305 -7.5675 -8.0705 -10.147 -4.174 -4.3105 -9.200001 -6.464001 -12.4441 -13.3654 -7.004001 -3.1385 -4.174 -6.689 -12.4935 
-8.908501 -13.5381 -12.3426 -12.3482 -14.2465 -10.147 -8.9615 -9.200001 -10.7229 -17.8051 -16.13 -16.8979 -7.004001 -7.577001 -6.689 -12.9565 
-15.3329 -16.3502 -17.1233 -18.5242 -14.2465 -15.2843 -14.5084 -10.7229 -22.064 -21.491 -19.6625 -16.8979 -11.9729 -10.4675 -12.9565 
-18.145 -21.1309 -23.2993 -18.5242 -19.3838 -20.8312 -16.0313 -22.064 -25.7499 -25.0235 -19.6625 -21.8668 -14.8634 -16.735 
-1.934 -3.5905 0 -3.8655 -2.645 -3.1575 -9.604 -2.7415 -4.06 -1.4985 -5.2705 -4.9225 
-5.055 -3.5905 -3.8655 -6.7805 -3.72 -12.2055 -12.403 -5.9455 -6.173 -6.6245 -8.724501 
-5.055 -7.3875 -6.7805 -7.9575 -12.9057 -16.422 -15.8516 -7.6965 -11.523 -9.386001 
-8.908501 -10.66 -7.9575 -17.54 -16.7044 -19.8048 -17.6026 -13.1567 -14.2845 
-12.4548 -11.837 -17.54 -21.1483 -20.0872 -21.5558 -23.0628 -15.9182 
-1.934 -3.5905 -1.934 -3.8655 -3.5085 -4.9225 -2.7415 -9.604 
-5.055 -5.8345 -4.9135 -7.642 -9.492001 -7.802 -12.4935 
-6.6985 -8.712501 -8.740001 -14.0483 -12.7583 -15.8177 
-9.6145 -12.71 -15.3415 -17.3146 -20.774 
-13.5812 -19.3115 -18.6078 -25.3303 
