-4.759 
n/a 
n/a 
n/a 
n/a 
-4.759 
n/a 
n/a 
n/a 
n/a 
-4.759 
n/a 
n/a 
n/a 
n/a 
-4.759 
n/a 
n/a 
n/a 
n/a 
-7.6505 -5.847 0 -6.1205 0 -3.0015 0 
-11.1415 -5.847 -6.1205 -6.1205 -3.0015 -3.0015 
-11.1415 -12.6373 -6.1205 -9.826 -3.0015 
-17.9318 -12.6373 -9.826 -9.826 
-17.9318 -16.3428 -9.826 
-12.16972 0 -3.6065 -3.6885 -5.154 0 -3.002 0 
-12.16972 -3.6065 -6.4655 -8.262 -5.154 -3.002 -3.002 
-15.77622 -6.4655 -11.6456 -8.262 -7.828 -3.002 
-18.63522 -11.6456 -11.6456 -11.2248 -7.828 
-23.81532 -11.6456 -14.6084 -11.2248 
-12.16972 0 -8.785501 -5.154 0 -3.0015 0 
-12.16972 -8.785501 -14.3265 -5.154 -3.0015 -3.0015 
-20.95522 -14.3265 -14.3265 -8.651001 -3.0015 
-26.49622 -14.3265 -17.8235 -8.651001 
-26.49622 -17.8235 -17.8235 
-6.994 -5.679 -5.847 -4.69 -8.086 -8.708 
-13.3836 -9.161 -10.9575 -13.5786 -17.1758 
-16.8656 -14.7093 -19.8461 -22.6684 
-22.4139 -23.5979 -28.9359 
-31.3025 -32.6877 
