-4.759 
n/a 
n/a 
n/a 
n/a 
-4.759 
n/a 
n/a 
n/a 
n/a 
-4.759 
n/a 
n/a 
n/a 
n/a 
-4.759 
n/a 
n/a 
n/a 
n/a 
-2.925 -2.4945 -4.5925 -14.3155 -4.9225 0 
-3.7675 -6.002501 -14.0785 -13.834 -4.9225 
-6.994 -13.9037 -17.244 -11.807 
-14.9493 -20.2241 -18.2319 
-22.0062 -20.9081 
-1.934 -3.5085 0 -4.067 -6.4555 0 -6.0655 -8.27 -2.4945 -4.0885 -2.985 -4.221 -1.934 -3.875 0 
-5.161 -3.5085 -4.067 -9.822001 -6.4555 -6.0655 -15.0583 -9.5465 -6.2105 -7.229 -5.038 -5.1325 -4.7225 -3.875 
-5.161 -7.916 -9.822001 -9.822001 -7.7235 -15.0583 -16.3348 -13.2959 -8.0165 -8.8655 -6.219 -8.146501 -4.7225 
-8.4785 -14.1076 -9.822001 -11.2874 -17.4763 -16.3348 -20.0842 -15.1019 -9.6285 -9.4805 -9.396001 -8.146501 
-14.7979 -14.1076 -11.2874 -21.0402 -18.7528 -20.0842 -21.8902 -16.7139 -10.1655 -12.7079 -9.396001 
-1.934 -3.5085 0 -2.664 -4.3765 -8.571501 -1.7695 -8.593 -6.4735 -3.511 -1.934 -3.875 
-5.161 -3.5085 -2.664 -5.312 -11.7745 -8.963501 -9.375501 -12.3265 -8.8405 -4.582 -4.7225 
-5.161 -7.572001 -5.312 -13.571 -15.6595 -16.601 -14.7912 -15.4537 -9.181001 -7.030001 
-8.186001 -8.346001 -13.84 -15.831 -21.63 -22.2695 -17.004 -15.916 -11.8878 
-8.8645 -16.7955 -15.831 -17.1153 -23.2833 -19.9448 -17.6035 -18.6228 
-4.5925 -4.347 -13.4625 -8.27 -3.511 -1.934 -3.875 
-9.323501 -13.992 -19.6895 -11.1355 -4.582 -4.7225 
-19.0225 -22.8996 -22.555 -12.2065 -7.030001 
-27.8905 -25.7651 -23.626 -14.6545 
-30.756 -26.8361 -26.074 
