-4.759 
n/a 
n/a 
n/a 
n/a 
-4.759 
n/a 
n/a 
n/a 
n/a 
-4.759 
n/a 
n/a 
n/a 
n/a 
-4.759 
n/a 
n/a 
n/a 
n/a 
-4.237 -2.4945 -3.599 -3.681 -1.7695 -3.4905 -3.5455 -3.957 -3.17 -1.7695 -4.4755 -3.1495 -3.2495 -3.957 -3.599 -4.431 -1.7695 -3.429 -2.95 -3.599 -1.7695 -3.613 -5.094 -1.7695 -2.847 -4.461 -1.7695 -4.031 0 
-7.216 -6.773 -8.147 -4.552 -6.611001 -8.323501 -7.424001 -7.9775 -6.0015 -5.448 -7.4585 -4.8975 -6.6445 -8.6595 -8.157001 -6.983 -4.032 -5.6335 -7.075 -5.778 -4.563 -10.802 -6.447001 -5.206 -6.384501 -6.495501 -6.069 -4.031 
-10.634 -12.0704 -8.787001 -10.459 -11.8176 -12.367 -12.0841 -11.1304 -9.566 -8.022 -9.6475 -8.826 -11.9532 -13.4751 -11.4112 -9.826 -6.4545 -10.6557 -9.557 -9.323 -12.2408 -12.155 -9.562501 -9.301001 -8.876 -11.3232 -6.069 
-15.9314 -12.7104 -15.595 -15.6656 -15.8611 -17.0271 -15.237 -14.6949 -12.2472 -10.3324 -13.6128 -14.3177 -16.7688 -16.7293 -14.2542 -12.6441 -11.9977 -13.1377 -13.4088 -17.2166 -13.5938 -15.2705 -14.4031 -11.8721 -13.9747 -11.3232 
-16.5714 -19.5184 -20.8016 -19.7091 -20.5212 -20.18 -18.8015 -17.3761 -14.5576 -14.2977 -19.1045 -19.1333 -20.023 -19.5723 -17.0723 -18.1873 -14.4797 -16.9895 -21.3024 -18.5696 -16.7093 -20.1111 -16.9742 -16.9708 -13.9747 
-3.0365 -2.186 -2.847 -2.8965 -4.015 -4.293 -1.7695 -4.704 -3.5485 -1.4985 -3.5455 -3.886 -1.8085 -3.93 -4.2485 
-3.66 -4.1045 -4.9305 -7.312 -7.822001 -6.034 -5.648 -8.8965 -4.8285 -4.554 -7.984001 -6.0595 -4.836 -6.8 
-4.256001 -6.081 -8.780001 -10.396 -9.694501 -10.4035 -9.681001 -10.2385 -8.219 -9.838 -10.2185 -9.395 -7.284 
-6.113 -10.1505 -12.1756 -12.2685 -14.1334 -14.6929 -11.189 -13.629 -13.8008 -12.4927 -13.554 -11.8006 
-10.15 -13.5461 -14.0481 -16.7074 -18.4228 -16.2009 -14.5795 -19.2108 -16.4555 -15.8282 -15.9596 
-4.013 -4.237 -5.5375 -4.8465 -4.7015 -2.645 -4.8465 -1.934 -3.5455 -8.875 0 -3.5065 -2.4265 -2.742 -2.489 -3.7345 -2.0935 -2.645 -2.95 -3.1575 -1.4985 -2.95 -3.9595 -2.0935 -4.9405 0 -2.4265 -2.742 -2.489 -4.081 -2.9995 -3.4625 -1.934 -1.4985 -3.6605 -4.7425 0 
-8.46 -8.255 -9.462001 -10.784 -7.017 -7.856001 -6.376 -4.8495 -12.4365 -8.969501 -3.5065 -4.9345 -4.095 -3.301 -7.2815 -5.153 -3.883 -5.117001 -5.940001 -4.1355 -3.9285 -6.121 -5.712 -6.6175 -4.9405 -2.4265 -4.095 -3.301 -7.72 -6.5165 -5.654 -4.565 -2.6125 -4.6365 -4.8735 -4.7425 
-12.8566 -12.6581 -16.2967 -13.0995 -13.2998 -9.334501 -9.198001 -15.3581 -13.0761 -12.6074 -4.9345 -6.587501 -4.601 -8.0275 -7.8885 -6.983 -6.988 -6.5585 -6.876 -6.732501 -6.5225 -7.002 -10.733 -6.6175 -6.7405 -4.095 -4.601 -8.224501 -10.1035 -8.733001 -6.0485 -5.1315 -5.5655 -6.350501 -4.8735 
-17.2597 -19.4928 -18.6122 -19.3823 -14.7783 -12.3371 -20.378 -15.5763 -16.714 -13.8724 -6.587501 -7.1555 -9.553 -8.456 -9.8125 -10.0578 -8.306001 -7.6785 -8.688001 -8.6415 -7.1985 -12.2236 -10.733 -8.646501 -9.3865 -4.601 -9.5035 -10.695 -12.32 -9.335001 -6.4 -7.914 -7.2165 -6.350501 
-24.0944 -21.8083 -24.895 -20.8608 -17.7809 -23.5171 -20.378 -19.2142 -17.979 -15.5236 -7.1555 -12.2913 -10.2471 -10.2695 -12.9551 -11.3758 -9.4055 -9.563001 -10.298 -9.345 -12.5877 -12.2236 -12.762 -10.7335 -9.971001 -9.5035 -12.112 -12.9115 -12.922 -9.694 -9.8215 -10.2745 -7.2165 
-4.013 -2.645 -4.94 -5.173 -2.4945 -5.6595 -1.934 -1.4985 -4.142 -3.1575 -4.1225 -5.404 -2.3615 -3.4405 -2.6165 -4.4775 -1.7695 -1.4985 -4.1755 -1.934 -4.7425 -3.433 -1.4985 -3.8175 -4.94 -5.173 -5.539 -3.469 -3.932 -1.7695 -4.292 -3.458 -6.423 0 
-6.6485 -7.3175 -5.667 -6.669001 -6.942 -6.9925 -2.6125 -5.0295 -8.633 -7.807001 -6.159 -7.595 -5.2865 -3.7415 -6.330501 -4.816501 -2.7955 -4.6635 -5.016 -7.5705 -7.566 -4.3795 -4.741 -7.743 -5.667 -9.6905 -7.9195 -5.53 -4.4665 -5.8125 -6.866 -8.359501 -6.423 
-10.5865 -7.664001 -7.2415 -8.339001 -7.9215 -7.4635 -5.665 -9.0955 -9.4215 -9.677001 -8.196501 -10.1115 -5.384 -6.9005 -6.52 -5.2565 -6.396 -5.595 -9.613501 -10.1765 -8.5425 -7.751 -8.2735 -8.245501 -9.943 -10.479 -8.476 -5.839 -8.334001 -8.677 -10.4505 -8.359501 
-10.6055 -9.225 -8.6615 -9.4785 -8.59 -9.8805 -9.2285 -9.894501 -10.2445 -10.5555 -10.476 -10.1295 -8.974501 -7.041 -6.870501 -8.594501 -7.035 -10.019 -10.478 -10.4665 -10.442 -10.3285 -8.647 -10.4765 -10.4805 -10.4935 -8.8215 -9.6035 -10.4585 -10.459 -10.4505 
-10.6245 -9.881001 -9.781 -9.929001 -10.223 -10.438 -10.0445 -10.2525 -10.563 -10.606 -10.491 -10.5995 -9.0675 -7.4125 -9.693001 -8.9075 -10.476 -10.4815 -10.493 -10.498 -10.4895 -10.4615 -10.4765 -10.4915 -10.4955 -10.5085 -10.451 -10.4605 -10.49 -10.459 
