-4.759 
n/a 
n/a 
n/a 
n/a 
-4.759 
n/a 
n/a 
n/a 
n/a 
-4.759 
n/a 
n/a 
n/a 
n/a 
-4.759 
n/a 
n/a 
n/a 
n/a 
-7.763 -4.46 -6.5715 -5.9665 -3.748 -3.1385 -2.4285 -3.1255 0 -1.7565 -3.1385 -3.511 -3.6845 -4.4625 -3.42 
-13.9862 -10.429 -10.32 -8.081501 -5.326 -5.514 -6.4725 -3.1255 -1.7565 -4.388 -5.979 -7.028 -6.474501 -6.088 
-20.2662 -15.476 -14.852 -10.528 -7.413 -9.303501 -6.4725 -5.654 -4.388 -7.409501 -8.121 -8.4125 -7.143001 
-24.7077 -19.508 -16.2648 -12.8013 -9.797501 -9.303501 -8.076 -8.3655 -7.409501 -8.972501 -9.486501 -8.7725 
-29.0342 -21.0433 -18.4163 -15.3142 -9.797501 -10.082 -11.4351 -11.8104 -8.972501 -10.3605 -9.694 
-2.5045 -3.543 -1.4985 -7.2815 -4.5435 -5.9665 -3.748 -3.1385 -2.4285 -3.1255 0 -1.7565 -4.02 -2.186 -3.8245 -3.325 -1.4985 -4.4625 -3.42 
-5.323 -5.62 -7.166 -9.267 -9.884501 -8.081501 -5.326 -5.514 -6.4725 -3.1255 -1.7565 -5.4345 -5.624 -6.0715 -6.427 -3.898 -5.768001 -6.088 
-5.8685 -10.4865 -11.014 -14.2565 -14.205 -10.528 -7.413 -9.303501 -6.4725 -5.654 -5.4345 -7.6715 -8.04 -8.23 -7.012 -7.4685 -6.291 
-10.8461 -13.5571 -15.2203 -19.3038 -16.1943 -12.8013 -9.797501 -9.303501 -8.076 -9.547501 -7.6715 -10.1185 -9.362 -8.6265 -8.156 -7.7335 
-13.9269 -19.4443 -20.3312 -20.8391 -18.3458 -15.3142 -9.797501 -10.082 -12.6171 -11.8693 -10.1185 -11.6349 -9.5245 -9.466001 -8.2565 
-2.264 -1.4985 -4.0305 -1.7565 -6.5715 -5.9665 -3.1385 -2.4285 -3.1255 -7.997 -3.1385 -3.511 -3.325 -4.4625 -3.42 0 
-2.9195 -5.056 -5.030001 -8.0865 -10.32 -8.3395 -5.514 -6.4725 -11.6359 -11.5863 -5.979 -6.526 -8.0365 -6.088 -3.42 
-6.645 -6.4275 -11.533 -13.45 -15.2925 -12.5795 -9.303501 -15.2529 -15.2252 -14.4268 -8.278501 -9.122001 -8.6815 -6.088 
-7.784 -13.3418 -16.4095 -18.0737 -18.2657 -16.5666 -18.5033 -18.8422 -18.0657 -16.7263 -9.5515 -9.545 -8.6815 
-14.8761 -17.9345 -21.1765 -21.1694 -22.1816 -25.7664 -22.0926 -21.6827 -20.3652 -17.9993 -10.2605 -9.545 
-5.9665 -4.5445 -2.4285 -3.1255 0 -1.7565 -4.9225 -3.152 -4.657 -3.325 -4.4625 -3.42 -1.934 -1.4985 -3.158 -1.7565 -7.2815 0 
-10.285 -7.245501 -6.4725 -3.1255 -1.7565 -6.4125 -7.4025 -8.219501 -6.9855 -8.0365 -6.088 -5.277 -2.6125 -4.178 -4.71 -7.25 -5.125 
-13.4154 -12.1451 -6.4725 -5.654 -6.4125 -9.3855 -12.7204 -10.1595 -10.1595 -8.6815 -7.3425 -5.8135 -5.265 -5.562 -9.823 -7.5365 
-18.315 -12.1451 -8.076 -11.1022 -9.3855 -14.7282 -14.6604 -13.5091 -10.6415 -9.8765 -8.026 -8.896501 -6.3135 -9.623501 -9.1735 
-18.315 -13.7486 -14.1718 -14.0752 -14.7282 -16.6682 -18.01 -13.9911 -11.8365 -10.638 -9.986 -10.0645 -10.47 -10.071 
