-4.759 
n/a 
n/a 
n/a 
n/a 
-4.759 
n/a 
n/a 
n/a 
n/a 
-4.759 
n/a 
n/a 
n/a 
n/a 
-4.759 
n/a 
n/a 
n/a 
n/a 
-3.9685 -3.6085 -4.969 -3.2345 -3.691 0 
-6.0465 -8.191 -8.915001 -7.585 -3.691 
-10.543 -12.705 -13.4763 -7.585 
-15.439 -17.2663 -13.4763 
-20.0003 -17.2663 
-3.691 -2.7415 -4.5485 -2.3345 -1.4985 -3.9685 0 -3.6085 -4.285 -3.1385 -1.756 -1.4985 -4.303 -3.1385 -1.7565 -3.691 
-6.588 -5.5565 -5.4845 -3.233 -4.987 -3.9685 -3.6085 -8.1295 -8.389501 -4.6325 -3.0405 -5.452001 -6.622 -4.861 -4.930501 
-8.575001 -6.542 -6.058 -6.3065 -4.987 -6.0465 -8.1295 -12.9702 -9.502501 -5.789001 -6.9505 -7.2805 -7.604 -7.4775 
-9.922501 -7.2345 -9.548 -6.3065 -8.0965 -10.647 -12.9702 -14.0832 -10.6355 -9.454 -8.569 -7.8355 -9.1825 
-10.4225 -10.275 -9.548 -9.347 -12.7882 -15.4877 -14.0832 -15.2162 -14.3005 -11.1429 -9.304 -9.279 
-5.2135 0 -3.9685 -1.756 -3.6085 -3.711 -3.2345 -3.691 0 
-5.2135 -3.9685 -5.556 -5.505 -7.5205 -6.902 -7.585 -3.691 
-9.546 -5.556 -6.3425 -9.095 -11.1113 -11.6677 -7.585 
-11.4233 -6.3425 -10.253 -12.714 -15.877 -11.6677 
-12.2098 -10.253 -13.872 -17.4797 -15.877 
-3.9465 0 -7.746 -2.4945 -4.954 -1.934 -1.4985 -4.253 -3.691 
-3.9465 -7.746 -9.3605 -6.7465 -6.695001 -2.6125 -5.429501 -8.911 
-12.5517 -9.3605 -13.6353 -8.186501 -7.317 -6.305 -9.953001 
-14.1662 -13.6353 -15.0753 -8.781501 -10.4105 -10.6735 
-18.441 -15.0753 -15.6703 -11.9578 -14.779 
