-4.759 
n/a 
n/a 
n/a 
n/a 
-4.759 
n/a 
n/a 
n/a 
n/a 
-4.759 
n/a 
n/a 
n/a 
n/a 
-4.759 
n/a 
n/a 
n/a 
n/a 
-5.1845 -9.9215 -3.729 -3.432 -2.0935 -5.3745 -4.891 -2.0935 -5.1845 -8.622001 
-16.4004 -13.7097 -8.199 -5.8205 -7.123 -7.061501 -7.511001 -7.298 -10.155 
-20.1886 -18.1797 -11.0111 -11.44 -10.1 -9.555 -9.913 -12.7751 
-24.6586 -20.9918 -16.6306 -14.417 -12.3329 -9.939501 -16.1913 
-27.4707 -26.6113 -19.6076 -16.6499 -12.7174 -16.3504 
-12.16972 -4.248 -4.891 -7.228 -3.4605 
-16.41772 -10.533 -13.3838 -11.6057 
-22.70272 -19.0258 -17.7615 
-31.19552 -23.4035 
-35.57322 
-1.4985 -5.3745 -4.891 -1.7565 -5.1845 -6.844 -4.2115 
-6.2355 -7.061501 -6.8725 -6.580501 -6.9655 -10.841 
-7.2945 -7.1715 -7.181 -7.1625 -11.1319 
-7.3705 -7.185 -7.202001 -11.5367 
-7.3795 -7.2055 -11.6858 
-5.1845 -8.199 -2.186 -4.357 
-14.6779 -10.2595 -5.891 
-16.7384 -13.9645 
-20.4434 
n/a 
