-4.759 
n/a 
n/a 
n/a 
n/a 
-4.759 
n/a 
n/a 
n/a 
n/a 
-4.759 
n/a 
n/a 
n/a 
n/a 
-4.759 
n/a 
n/a 
n/a 
n/a 
-3.488 -3.281 -5.305 -12.16972 -2.186 -1.8085 -9.584001 -4.2245 0 -3.0015 
-5.4445 -8.769501 -18.40872 -14.35572 -3.164 -11.8909 -13.9025 -4.2245 -3.0015 
-12.126 -21.96562 -20.59472 -15.33372 -14.288 -16.2094 -13.9025 -7.7795 
-25.32212 -24.15162 -21.57272 -26.45772 -18.6065 -16.2094 -17.4575 
-27.50812 -25.12962 -32.69672 -30.77622 -18.6065 -19.7644 
-3.488 -3.281 0 -8.976001 -12.16972 0 -4.2245 -1.7565 -12.16972 
-5.4445 -3.281 -8.976001 -21.40032 -12.16972 -4.2245 -5.277 -14.87542 
-5.4445 -12.7954 -21.40032 -21.40032 -16.39422 -5.277 -19.31612 
-16.1519 -25.21972 -21.40032 -25.62482 -17.44672 -19.31612 
-28.57622 -25.21972 -25.62482 -26.67732 -31.48584 
-1.934 -3.488 -4.919 0 -4.042 -7.2695 0 -5.087 -4.2245 0 -3.0015 0 
-4.9205 -6.288 -4.919 -4.042 -8.278501 -7.2695 -5.087 -9.412001 -4.2245 -3.0015 -3.0015 
-8.630501 -6.288 -9.351501 -8.278501 -8.278501 -10.6735 -9.412001 -9.412001 -7.7795 -3.0015 
-8.630501 -11.4649 -13.856 -8.278501 -12.0405 -14.9985 -9.412001 -13.129 -7.7795 
-14.2232 -15.9694 -13.856 -12.0405 -16.3655 -14.9985 -13.129 -13.129 
-3.488 -3.281 -4.042 -12.16972 -4.2245 -1.7565 -5.087 0 -3.002 
-5.4445 -7.58 -17.11312 -16.39422 -5.277 -6.2415 -5.087 -3.002 
-10.1225 -20.86552 -21.33762 -17.44672 -9.4405 -6.2415 -8.7215 
-23.40802 -25.09002 -22.39012 -21.61022 -9.4405 -9.4645 
-27.63252 -26.14252 -26.55362 -21.61022 -12.7863 
