-4.759 
n/a 
n/a 
n/a 
n/a 
-4.759 
n/a 
n/a 
n/a 
n/a 
-4.759 
n/a 
n/a 
n/a 
n/a 
-4.759 
n/a 
n/a 
n/a 
n/a 
-1.934 -5.0515 0 -6.8785 -3.729 -2.7415 -4.834 
-6.3555 -5.0515 -6.8785 -10.0925 -5.9115 -5.984 
-6.3555 -12.6172 -10.0925 -12.275 -7.2005 
-14.3548 -15.8312 -12.275 -13.564 
-17.5688 -18.0137 -13.564 
-1.934 -5.0515 0 -1.4985 -3.922 -4.339 -1.7695 -1.4985 -4.676 -4.834 -6.1515 -3.729 0 
-6.3555 -5.0515 -1.4985 -5.1235 -8.666 -4.8945 -2.7955 -5.269 -6.458 -12.0141 -9.080501 -3.729 
-6.3555 -6.828001 -5.1235 -9.4095 -9.236501 -5.6775 -6.3715 -7.101501 -13.7393 -14.9431 -9.080501 
-7.297 -10.5975 -9.4095 -9.8745 -10.4275 -8.252501 -8.175501 -14.34 -16.6683 -14.9431 
-11.2381 -14.8835 -9.8745 -11.0655 -13.0025 -9.2375 -15.4768 -17.269 -16.6683 
-4.0835 -3.5455 -1.4985 -3.158 -1.7565 -5.0515 -1.934 -5.2605 -1.7565 -4.3055 -6.1515 0 
-6.7865 -3.91 -4.178 -4.71 -7.079 -7.015501 -6.1775 -6.029 -6.1225 -8.685 -6.1515 
-6.9655 -5.429 -5.562 -9.496501 -8.868501 -10.533 -6.215 -8.805 -9.737 -8.685 
-9.245001 -7.161 -9.9375 -10.5875 -12.5992 -10.55 -8.846001 -12.5843 -9.737 
-10.244 -11.7105 -11.0285 -14.3182 -12.6162 -13.5494 -12.6379 -12.5843 
-1.934 -5.0515 -4.966 -3.6215 -2.8645 -3.1125 -4.0835 -2.0935 -2.985 -6.625 
-6.3555 -10.9075 -9.257 -5.7205 -3.5345 -5.886001 -5.6425 -4.3315 -8.697001 
-12.6451 -15.1985 -11.4432 -6.791 -6.3055 -7.352 -8.285001 -10.1995 
-16.9361 -17.3847 -12.5137 -10.044 -7.8565 -9.807001 -14.3296 
-19.1223 -18.4552 -15.7667 -11.6098 -10.426 -15.94 
