-4.759 
n/a 
n/a 
n/a 
n/a 
-4.759 
n/a 
n/a 
n/a 
n/a 
-4.759 
n/a 
n/a 
n/a 
n/a 
-4.759 
n/a 
n/a 
n/a 
n/a 
-8.8125 -7.923 -2.186 -3.849 -1.7695 -5.847 0 
-17.0435 -10.1995 -4.8565 -5.4415 -8.014 -5.847 
-19.32 -12.87 -6.483 -12.5132 -8.014 
-21.9905 -14.4965 -13.9301 -12.5132 
-23.617 -21.9436 -13.9301 
-3.091 -4.121 -8.533501 -7.923 -3.2955 -1.7695 -3.5395 -3.595 -2.5045 0 -5.847 0 
-5.304 -13.7317 -10.985 -11.6297 -3.9425 -4.7845 -5.861 -5.227 -2.5045 -5.847 -5.847 
-15.2931 -16.1832 -14.6917 -12.2767 -6.5305 -6.5245 -8.1125 -5.227 -8.3905 -5.847 
-17.7446 -19.8899 -15.3387 -14.8647 -7.7975 -8.382 -8.1125 -10.647 -8.3905 
-21.4513 -20.5369 -17.9267 -16.1317 -9.8645 -8.382 -13.8393 -10.647 
-3.595 -4.121 -8.533501 -3.849 -2.5045 0 -5.847 0 0 
-7.8815 -13.7317 -12.6507 -6.305 -2.5045 -5.847 -5.847 0 
-17.6934 -17.8489 -15.1067 -6.305 -8.3905 -5.847 -5.847 
-21.8106 -20.3049 -15.1067 -10.523 -8.3905 -5.847 
-24.2666 -20.3049 -19.3247 -10.523 -8.3905 
-3.098 -4.121 -8.533501 -6.9265 0 0 -5.847 0 
-7.7115 -13.7317 -15.7282 -6.9265 0 -5.847 -5.847 
-17.6724 -20.9264 -15.7282 -6.9265 -5.847 -5.847 
-24.8671 -20.9264 -15.7282 -13.2471 -5.847 
-24.8671 -20.9264 -22.0488 -13.2471 
