-4.759 
n/a 
n/a 
n/a 
n/a 
-4.759 
n/a 
n/a 
n/a 
n/a 
-4.759 
n/a 
n/a 
n/a 
n/a 
-4.759 
n/a 
n/a 
n/a 
n/a 
-4.426 -1.7565 -1.4985 -3.0835 -4.7285 -4.1555 -6.018 -1.7565 -1.4985 -3.6065 -3.6385 -4.0395 -2.5045 -1.4985 -3.3755 -7.4995 -3.4465 -4.201 -4.518 
-5.47 -2.4195 -3.535 -6.042 -8.4455 -8.852001 -6.896501 -2.4195 -4.8665 -7.429 -9.147501 -6.441501 -3.1915 -4.057 -11.3425 -11.1155 -8.8125 -8.577001 
-5.9535 -4.6785 -6.335501 -9.523001 -12.795 -9.7285 -7.163001 -5.668 -9.5755 -13.3572 -11.5459 -6.920001 -6.533501 -12.6628 -16.139 -17.5253 -13.8527 
-8.021 -7.476501 -10.0095 -13.957 -13.468 -9.906501 -11.0725 -10.411 -15.7147 -15.7556 -12.0244 -10.647 -15.6737 -17.4059 -22.1426 -22.5655 
-9.983001 -11.3061 -14.5535 -14.63 -13.662 -13.9742 -16.2389 -16.5502 -18.1131 -16.2341 -15.7514 -20.4214 -20.0724 -23.4095 -27.1828 
-2.264 -1.4985 -2.8965 -3.8805 -2.4265 -3.423 -2.489 -4.164 -3.5065 -3.6835 -5.3735 -1.934 -2.3615 -3.188 0 -5.3435 -2.8645 -5.2635 -2.7455 -7.4995 -4.8755 -1.7565 -2.985 -4.201 
-2.9195 -3.928 -4.808 -5.7725 -4.7235 -4.122 -5.493 -7.961 -7.5135 -10.513 -6.1215 -3.539 -5.2525 -3.188 -5.3435 -6.926 -6.4885 -7.724501 -9.868 -12.6267 -5.0425 -3.9355 -6.900001 
-4.648 -4.8165 -6.1875 -7.6105 -5.1355 -6.772 -8.9945 -12.3072 -14.5738 -11.261 -9.032001 -5.714 -5.2525 -8.687 -6.926 -10.434 -9.2865 -15.217 -16.6594 -13.1999 -6.898 -7.756001 
-4.824 -6.1905 -7.7545 -7.8955 -8.085 -11.2653 -13.5481 -19.3675 -15.3218 -14.1715 -11.3566 -5.714 -9.9805 -9.548 -10.434 -13.232 -16.4313 -21.3497 -16.8264 -15.0554 -10.6215 
-6.1945 -7.7565 -8.045 -11.2312 -12.6295 -15.8189 -20.6084 -20.1155 -18.2323 -16.4961 -11.3566 -10.3815 -10.8415 -13.061 -13.232 -20.3768 -22.3412 -21.5167 -18.6819 -18.7789 
-2.5195 -1.4985 -3.6835 -4.2705 -2.4265 -6.04 -7.4995 -3.355 -1.7565 -3.5215 
-3.1695 -4.7155 -7.737 -6.9635 -7.321501 -14.0235 -10.6625 -3.725 -5.2195 
-6.5675 -8.880501 -9.824 -12.6699 -15.7899 -18.1736 -12.8357 -8.544001 
-10.8795 -11.2573 -15.6768 -21.1383 -19.7356 -19.9406 -17.6547 
-13.2563 -17.1101 -24.1452 -25.084 -21.5026 -24.7596 
-1.934 -3.571 -3.3755 -3.6385 -4.2705 -5.7865 -3.4775 -4.347 -5.1835 -7.4995 -4.201 0 
-4.9705 -5.429 -7.237 -8.475 -10.1035 -9.130001 -7.6695 -10.9575 -12.8965 -11.227 -4.201 
-6.6715 -9.601501 -12.5163 -14.9376 -13.447 -13.3774 -14.6492 -19.2417 -17.9779 -11.6332 
-10.0885 -15.0454 -18.9789 -18.2811 -17.6944 -20.3571 -22.9334 -23.7519 -17.9779 
-15.5324 -21.508 -22.3224 -22.5285 -24.6741 -28.6413 -27.4436 -23.7519 
