-4.759 
n/a 
n/a 
n/a 
n/a 
-4.759 
n/a 
n/a 
n/a 
n/a 
-4.759 
n/a 
n/a 
n/a 
n/a 
-4.759 
n/a 
n/a 
n/a 
n/a 
-4.7795 -1.7695 -6.9985 -3.6825 -2.229 -3.4155 -4.3855 0 -12.16972 -3.6825 -3.966 -3.1435 -3.2015 -1.756 -2.9805 -3.845 -3.091 -3.9655 -3.5285 -3.9875 -5.1845 -5.74 -3.098 
-6.8695 -9.184501 -9.712 -5.3925 -5.1365 -8.2495 -4.3855 -12.16972 -15.85222 -7.536 -6.0375 -6.051 -4.741 -4.3555 -7.847001 -7.283 -6.0905 -7.900001 -7.1855 -9.978001 -5.7465 -9.329 
-15.0309 -11.9678 -11.422 -9.004001 -10.1995 -8.2495 -17.77382 -15.85222 -19.70572 -8.4205 -9.145 -7.5 -7.861001 -9.4095 -8.5275 -9.923 -10.368 -12.4576 -14.2354 -10.4555 -9.335001 
-17.8142 -13.6778 -15.0335 -14.2304 -10.1995 -22.20582 -21.45632 -19.70572 -20.59022 -11.958 -9.9985 -10.275 -13.0528 -10.032 -11.2859 -14.3075 -14.9256 -19.5075 -14.7129 -14.044 
-19.5242 -17.2893 -20.2599 -14.2304 -24.15582 -25.88832 -25.30982 -20.59022 -24.12772 -12.8115 -12.9305 -15.4668 -13.6753 -12.7904 -15.6704 -18.8651 -21.9755 -19.985 -18.3014 
-2.872 -10.7895 -12.16972 -3.0465 -1.934 -4.4095 -3.0415 -8.445001 -3.97 -3.183 -2.9645 -1.934 -6.557 
-14.9585 -22.95922 -15.21622 -4.8825 -6.476 -7.221 -12.5773 -13.1468 -7.394501 -5.62 -4.6135 -7.536 
-27.12822 -26.00572 -17.05222 -10.513 -8.875001 -17.1772 -17.2791 -16.5713 -10.7495 -8.856501 -10.8451 
-30.17472 -27.84172 -22.68272 -12.912 -18.9016 -21.879 -20.7036 -19.9263 -13.986 -15.3401 
-32.01072 -33.47222 -25.08172 -22.9386 -23.6034 -25.3035 -24.0586 -23.1628 -20.4696 
-2.872 -3.851 -1.7695 -1.4985 -5.097 -3.898 -1.7565 -7.539001 -7.751501 -7.716001 0 -7.5605 -3.9535 -1.7695 -5.263 -3.091 -3.772 -1.756 -3.845 -1.7695 -6.557 
-6.02 -4.0015 -2.7955 -5.904 -7.370501 -4.9795 -9.3245 -7.818501 -7.826001 -7.716001 -7.5605 -12.35 -5.098001 -6.1825 -8.346001 -6.7015 -4.9105 -5.7375 -4.549 -8.764 
-6.032001 -4.5775 -7.0755 -7.830001 -8.06 -13.2025 -9.941501 -7.852001 -7.826001 -15.9931 -12.35 -13.4945 -8.464001 -8.7335 -12.3599 -7.8365 -8.8575 -6.839 -12.1449 
-6.579 -7.6555 -8.946 -8.176001 -16.5388 -13.8195 -9.9945 -7.852001 -16.2767 -20.7826 -13.4945 -16.8605 -10.7495 -12.9774 -13.4949 -12.0459 -10.1278 -14.9087 
-9.384001 -9.368 -9.2925 -16.7148 -17.1558 -13.8725 -9.9945 -16.3759 -21.0662 -21.9271 -16.8605 -19.146 -14.9934 -14.1124 -17.7043 -13.3162 -18.1975 
-3.0415 -2.3335 -6.848001 -4.4035 -3.3235 -1.934 -2.3335 -3.8405 -3.0415 -8.445001 -4.69 -3.091 -3.9655 -5.5735 
-4.132 -9.6665 -11.7585 -6.996 -5.0795 -4.359 -5.7085 -6.5525 -12.5773 -13.8668 -7.138 -6.0905 -11.271 
-12.115 -14.618 -14.351 -7.443501 -6.9205 -6.6705 -8.124001 -16.6633 -17.9991 -16.3148 -10.1855 -14.2094 
-17.0665 -17.2105 -14.7985 -9.812 -9.503 -8.945001 -18.32 -22.0851 -20.4471 -19.3623 -18.3044 
-19.659 -17.658 -17.167 -12.4991 -11.9157 -19.1746 -23.7418 -24.5331 -23.4946 -27.4812 
