-4.759 
n/a 
n/a 
n/a 
n/a 
-4.759 
n/a 
n/a 
n/a 
n/a 
-4.759 
n/a 
n/a 
n/a 
n/a 
-4.759 
n/a 
n/a 
n/a 
n/a 
-10.6925 -3.16 -9.8815 
-13.8525 -14.1757 
-24.8682 
n/a 
n/a 
-3.432 -3.852 -1.7565 -10.6925 0 
-7.6945 -6.0125 -13.3982 -10.6925 
-10.298 -18.6094 -13.3982 
-22.8949 -18.6094 
-22.8949 
-1.4985 -3.16 -2.9775 -1.7565 -10.6925 -12.16972 
-4.0625 -4.6715 -4.9315 -13.3982 -22.86222 
-5.8255 -6.6335 -16.7938 -25.56792 
-7.2555 -19.0454 -28.96352 
-20.0446 -31.21512 
-12.16972 -3.432 -12.16972 
-15.60172 -15.58692 
-27.75664 
n/a 
n/a 
