-4.759 
n/a 
n/a 
n/a 
n/a 
-4.759 
n/a 
n/a 
n/a 
n/a 
-4.759 
n/a 
n/a 
n/a 
n/a 
-4.759 
n/a 
n/a 
n/a 
n/a 
-3.6705 0 -4.4695 -4.2425 -2.4945 -5.244 -1.7695 -1.4985 -3.602 -2.3335 -2.3615 -3.768 -2.489 -1.8085 -5.5615 -4.6385 0 
-3.6705 -4.4695 -7.9535 -7.0845 -6.960001 -6.237 -2.7955 -4.593 -5.4125 -4.2805 -5.3965 -4.333 -3.799 -6.1155 -8.1385 -4.6385 
-8.366001 -7.9535 -11.1237 -11.901 -7.682001 -6.6095 -5.2115 -5.768 -7.353001 -6.6235 -5.7595 -5.378 -7.578001 -8.511001 -8.1385 
-10.5745 -11.1237 -15.9402 -12.623 -8.210501 -10.3225 -6.0975 -7.631001 -9.724001 -6.955501 -6.4465 -9.691 -9.8085 -8.511001 
-13.7447 -15.9402 -16.6622 -13.1515 -12.0639 -10.7685 -8.393001 -10.015 -10.225 -7.562 -10.4265 -11.8843 -9.8085 
-3.634 -4.414 -3.644 0 -2.4265 -2.186 -3.6955 -2.0935 -3.8725 -2.3345 -3.8725 0 
-7.853001 -8.145 -3.644 -2.4265 -3.292 -6.5235 -5.8655 -6.4095 -4.892 -4.9005 -3.8725 
-12.0298 -8.145 -5.113 -3.292 -7.866001 -8.4095 -10.5975 -6.774 -4.905 -4.9005 
-12.0298 -10.513 -5.9645 -7.866001 -10.248 -13.4893 -10.962 -6.775 -4.905 
-14.3978 -11.3645 -10.0955 -10.248 -15.4828 -13.8538 -10.963 -6.775 
-3.4765 -3.929 0 -3.634 -3.914 -3.837 -3.2015 -1.7695 -1.4985 -4.599 -3.1435 -1.8085 -3.8725 -2.3345 -3.8725 -4.0225 
-4.589 -3.929 -3.634 -7.9065 -8.466001 -7.3165 -4.977 -2.7955 -6.797 -7.773001 -5.211 -5.0065 -4.892 -4.9005 -8.5435 
-4.589 -7.6995 -7.9065 -12.9043 -12.2935 -9.1815 -5.7025 -8.051001 -10.4284 -9.757001 -8.2145 -5.3375 -4.905 -9.865001 
-8.399 -12.2326 -12.9043 -16.7318 -14.1585 -9.9645 -11.3218 -11.8344 -12.4124 -12.9041 -9.5495 -5.3385 -9.882501 
-13.0055 -17.2304 -16.7318 -18.5968 -14.9415 -15.5838 -15.1052 -13.8184 -15.5595 -14.2391 -9.564 -11.6746 
-3.433 0 -7.817501 -5.7765 0 -2.4265 -2.186 -1.8085 -2.871 -1.7565 -3.8725 -2.3345 -3.8725 -1.4985 -4.0095 -4.1345 -1.934 -8.120501 -2.4265 -2.186 -3.9205 -6.8755 0 
-3.433 -7.817501 -14.174 -5.7765 -2.4265 -3.292 -3.164 -4.756001 -3.5385 -6.140501 -4.892 -4.9005 -5.955501 -5.0255 -8.5485 -5.354 -10.647 -9.859001 -3.292 -4.9645 -11.8694 -6.8755 
-10.564 -14.174 -14.174 -8.158 -3.292 -4.4005 -5.7905 -6.113501 -8.956 -7.307001 -4.905 -7.1215 -8.8585 -10.275 -10.064 -15.4626 -12.3855 -10.247 -5.9475 -14.029 -11.8694 
-17.4381 -14.174 -16.5555 -8.7605 -4.4005 -7.0425 -6.8345 -12.1368 -10.195 -7.320001 -7.1255 -10.3263 -14.2462 -11.7905 -20.0228 -17.2011 -12.7735 -13.0289 -15.246 -14.029 
-17.4381 -16.5555 -17.158 -9.7165 -7.0425 -8.198501 -13.2394 -13.3758 -10.2025 -10.159 -10.3351 -15.714 -15.7617 -21.7493 -21.7613 -17.5891 -15.5554 -22.3274 -15.246 
