-4.759 
n/a 
n/a 
n/a 
n/a 
-4.759 
n/a 
n/a 
n/a 
n/a 
-4.759 
n/a 
n/a 
n/a 
n/a 
-4.759 
n/a 
n/a 
n/a 
n/a 
-3.531 -2.6615 0 -5.0035 -5.1495 -1.934 -1.4985 -3.2815 -4.323 -3.469 -5.9295 -3.6885 -5.994 -6.064 -4.541 -4.0925 -3.9005 -4.969 0 
-5.4185 -2.6615 -5.0035 -7.9965 -6.868001 -2.6125 -6.04 -6.8105 -6.619 -9.261001 -9.844501 -6.4135 -6.397 -9.506001 -7.9505 -8.738501 -8.524 -4.969 
-5.4185 -8.161501 -7.9965 -9.4245 -7.637501 -7.277 -8.7335 -8.7805 -10.688 -13.359 -9.919001 -6.4295 -9.693001 -13.4381 -13.0115 -13.728 -8.524 
-12.1017 -11.5175 -9.4245 -9.650001 -12.5664 -9.762001 -9.564 -13.0977 -14.786 -13.4335 -9.9305 -9.6955 -13.6055 -18.4991 -18.001 -13.728 
-15.4577 -12.9455 -9.650001 -15.2361 -15.0514 -10.4215 -14.0958 -17.1957 -14.8605 -13.445 -14.3329 -13.6146 -18.6665 -23.4886 -18.001 
-3.531 -2.6615 0 -3.2815 -6.142 -3.469 -3.325 -3.3755 -2.3335 -3.9285 -4.959 -4.926 -1.7695 -4.5735 -2.4945 -4.6335 -3.0835 -2.95 
-5.4185 -2.6615 -3.2815 -9.0415 -8.7655 -7.4925 -5.6985 -4.8655 -5.681 -9.224501 -10.107 -6.953 -5.9735 -7.05 -8.744501 -8.1775 -4.3945 
-5.4185 -4.9735 -9.125501 -13.357 -13.1 -9.5155 -7.8935 -9.036 -10.586 -14.5075 -12.134 -11.6894 -9.2255 -13.9202 -12.3827 -9.816 
-9.468 -11.3061 -13.4104 -17.4732 -15.4948 -11.8027 -12.3578 -13.9972 -15.869 -16.5345 -16.8704 -14.9414 -16.3857 -17.5584 -14.0212 
-15.9202 -15.591 -17.4732 -19.4962 -17.782 -16.267 -17.319 -19.2802 -17.896 -21.2709 -20.1224 -22.1016 -20.0239 -19.1969 
-3.531 -2.6615 -1.4985 -3.325 -4.1365 -2.9705 -3.949 -2.186 -3.2815 -6.142 -3.469 -1.934 -9.267 -8.690001 -3.0835 -2.95 -1.4985 -5.803 -4.024 -4.541 -3.0365 0 
-5.4185 -4.8885 -5.8455 -6.8945 -6.796 -7.993 -5.811 -6.608001 -9.0415 -8.7655 -5.95 -12.2074 -18.3324 -12.1727 -4.3945 -4.514 -7.5605 -10.3475 -6.4785 -7.656001 -3.0365 
-7.7605 -9.337501 -8.195001 -9.328501 -12.2109 -8.7485 -8.755501 -12.3575 -13.357 -11.5375 -16.7388 -21.2728 -21.8151 -13.4837 -5.825 -10.6735 -12.6164 -13.1656 -9.545501 -7.656001 
-12.4435 -11.7156 -10.8426 -14.8318 -12.9664 -11.9212 -14.9736 -16.6424 -15.9107 -22.8085 -25.8042 -24.7555 -23.1261 -14.9142 -12.1669 -15.7294 -15.4345 -16.2326 -9.545501 
-14.8216 -14.3632 -16.3459 -15.5873 -16.1391 -18.1393 -19.2585 -19.1427 -26.8099 -31.8739 -29.2869 -26.0665 -24.5566 -21.2561 -17.2228 -18.5475 -18.5015 -16.2326 
-3.531 -2.6615 0 -3.9005 -4.969 -3.152 -4.024 -4.541 -1.934 -9.267 -5.865 -2.9705 -2.8645 -3.2815 -5.7335 -3.469 -6.6085 0 
-5.4185 -2.6615 -3.9005 -8.524 -6.913001 -5.7885 -6.4785 -6.274 -12.2074 -15.5074 -9.534 -4.6335 -7.0885 -8.437 -8.313001 -9.887501 -6.6085 
-5.4185 -6.9195 -8.524 -10.7104 -10.181 -8.889 -9.399501 -17.019 -18.4478 -19.1764 -11.2254 -8.813001 -12.7664 -10.718 -15.0517 -9.887501 
-10.66 -12.0138 -10.7104 -13.9784 -13.2815 -12.2952 -20.5865 -23.2594 -22.1168 -20.8678 -15.4049 -14.6029 -15.0474 -17.4567 -15.0517 
-15.7543 -14.2002 -13.9784 -17.0789 -16.6877 -23.4822 -26.8269 -26.9284 -23.8082 -25.0473 -21.1948 -16.8839 -21.7861 -17.4567 
