-4.759 
n/a 
n/a 
n/a 
n/a 
-4.759 
n/a 
n/a 
n/a 
n/a 
-4.759 
n/a 
n/a 
n/a 
n/a 
-4.759 
n/a 
n/a 
n/a 
n/a 
-5.2715 -5.847 -3.8255 -4.077 -1.934 -5.5735 -3.8275 -5.113 0 
-7.339 -9.47 -5.910501 -4.43 -8.0705 -8.559 -9.4285 -5.113 
-11.363 -11.7048 -6.499001 -10.0925 -11.439 -14.814 -9.4285 
-13.5978 -12.2933 -12.5341 -13.7534 -17.694 -14.814 
-14.1863 -18.3284 -16.195 -20.0084 -17.694 
-5.2715 -6.7495 -5.113 -2.9645 -7.968501 -4.5115 
-10.4765 -12.5889 -8.213 -10.985 -12.9034 
-16.6637 -15.6889 -16.4865 -15.9199 
-19.7637 -23.9624 -21.4214 
-28.0372 -28.8973 
-5.2715 -3.6885 -4.416 0 -2.925 -3.9535 -5.5735 -4.5165 
-8.9525 -7.022 -4.416 -2.925 -5.863 -10.0965 -9.384501 
-12.5024 -7.022 -7.622001 -5.863 -12.6078 -14.3303 
-12.5024 -9.892 -10.7878 -12.6078 -16.8416 
-15.3724 -13.1908 -17.5326 -16.8416 
-5.2715 -5.1835 -2.4945 -5.113 -1.934 -1.4985 -3.6445 -1.7565 -10.8905 -3.8275 0 
-8.342501 -6.6425 -6.443 -6.766001 -2.6125 -4.4795 -4.775001 -13.5962 -14.718 -3.8275 
-9.6555 -11.157 -8.5165 -7.233001 -4.8345 -5.062 -17.4581 -17.4237 -14.718 
-14.3306 -13.2305 -9.309501 -9.385 -5.2075 -17.9971 -21.2856 -17.4237 
-16.4041 -14.0235 -11.7561 -9.9785 -18.2546 -21.8246 -21.2856 
