-4.759 
n/a 
n/a 
n/a 
n/a 
-4.759 
n/a 
n/a 
n/a 
n/a 
-4.759 
n/a 
n/a 
n/a 
n/a 
-4.759 
n/a 
n/a 
n/a 
n/a 
-3.013 -5.651501 -2.674 -2.9995 -4.0745 -5.7055 -12.16972 -4.2705 -1.756 -3.5125 
-8.529501 -6.316 -4.4625 -5.983 -9.2015 -18.29382 -16.44022 -5.7145 -5.334 
-10.8065 -9.086 -7.231 -11.9526 -22.01262 -22.56432 -17.88422 -9.079 
-10.4355 -11.631 -13.6918 -24.76372 -26.28312 -24.00832 -21.24872 
-13.0206 -18.277 -26.50292 -29.03422 -27.72712 -27.37282 
-1.4985 -4.2705 -1.7565 -7.4885 -4.567 -2.674 -3.4915 -4.0745 
-5.383 -5.4125 -9.320001 -12.6827 -5.667 -5.5085 -6.785 
-5.585001 -13.8112 -14.668 -13.7827 -7.400001 -8.6645 
-14.1751 -19.1592 -15.768 -15.5157 -10.7495 
-19.5231 -20.2592 -17.501 -18.8652 
-3.0365 -2.186 -2.847 -4.848 -1.756 -3.908 -3.997 -2.7455 -1.4985 -4.606 -1.7565 -1.4985 -7.4885 0 
-3.66 -4.1045 -7.25 -6.351 -5.51 -6.2955 -7.063001 -3.637 -5.385 -5.2745 -2.4195 -8.1875 -7.4885 
-4.256001 -8.021501 -9.382501 -8.4395 -8.2995 -8.353001 -7.711 -7.449 -5.475 -5.870501 -8.8725 -8.1875 
-8.029501 -10.0575 -11.6422 -10.354 -10.248 -8.7655 -11.6928 -7.5585 -6.1155 -12.6699 -8.8725 
-10.0565 -12.4772 -13.5567 -12.9531 -10.6605 -12.7743 -11.8023 -8.224001 -12.9879 -12.6699 
-3.0365 -2.186 -2.847 -3.908 -4.0745 -2.0935 -1.4985 -4.399 -1.7565 -6.864 -2.229 
-3.66 -4.1045 -6.0105 -6.382 -5.3495 -2.9725 -5.3005 -4.831 -8.661 -8.205501 
-4.256001 -6.62 -7.2925 -7.672501 -6.0605 -6.953001 -5.514501 -12.8503 -10.2807 
-6.626 -7.6035 -8.4135 -8.294001 -8.427501 -7.069 -13.3316 -14.47 
-7.6055 -8.769 -9.157001 -10.7876 -8.4755 -15.0263 -14.9513 
