-4.759 
n/a 
n/a 
n/a 
n/a 
-4.759 
n/a 
n/a 
n/a 
n/a 
-4.759 
n/a 
n/a 
n/a 
n/a 
-4.759 
n/a 
n/a 
n/a 
n/a 
-1.934 -7.7545 -3.5435 0 -3.3715 -3.8195 -2.4945 -4.7925 -1.756 -5.3175 -9.8175 -1.7695 -4.1 -1.4985 -3.8195 0 
-9.378 -12.0452 -3.5435 -3.3715 -5.8465 -5.551 -5.941501 -6.6355 -6.7295 -16.3834 -11.7148 -5.4985 -5.5905 -5.146501 -3.8195 
-13.7407 -12.0452 -7.266 -5.8465 -7.7425 -8.271501 -7.8225 -12.2852 -17.9846 -18.2807 -15.4438 -6.578 -9.594501 -5.146501 
-13.7407 -15.7677 -10.19 -7.7425 -10.7306 -10.703 -13.7114 -23.5403 -19.8819 -22.0097 -16.5233 -10.2695 -9.594501 
-17.4632 -18.6917 -12.1224 -10.7306 -13.1621 -16.5919 -24.9665 -25.4376 -23.6109 -23.0892 -20.2148 -10.2695 
-1.4985 -4.6825 -2.7415 -6.714 -3.222 -3.3715 -4.8275 -1.756 -4.723 -3.849 -2.5045 -10.128 0 -3.152 -4.648 -1.7695 -5.5565 -3.277 0 
-5.612 -6.733001 -8.505501 -8.191 -6.256001 -7.431001 -6.1945 -5.8475 -8.2415 -6.305 -13.5499 -10.128 -3.152 -6.538 -5.5345 -5.920001 -8.064001 -3.277 
-7.4065 -12.9084 -9.031 -11.5078 -8.8885 -8.952001 -10.9002 -9.7075 -11.4095 -17.454 -13.5499 -13.3656 -6.538 -7.127501 -7.6925 -8.4315 -8.064001 
-13.6289 -13.4339 -12.4948 -14.1403 -9.928 -13.7373 -14.7602 -13.0265 -22.5585 -17.454 -16.7875 -16.7516 -7.127501 -9.182 -10.243 -8.4315 
-14.1544 -16.8977 -15.1273 -15.1798 -14.7133 -17.5973 -18.0792 -24.1755 -22.5585 -20.6916 -20.1735 -17.3411 -9.182 -12.0085 -10.243 
-2.5045 -1.4985 -2.95 -9.109501 -2.229 -2.4945 -4.102 -1.4985 -3.5435 0 
-3.1915 -3.9285 -12.9931 -10.647 -5.159 -8.421 -5.275001 -4.2755 -3.5435 
-4.5155 -14.5494 -14.5306 -13.577 -11.3359 -9.416 -8.330501 -4.2755 
-15.3854 -16.0869 -17.4606 -19.7539 -12.3309 -12.5401 -8.330501 
-16.9229 -19.0169 -23.6375 -20.7489 -15.455 -12.5401 
-3.849 -4.418 -1.7565 -2.3615 -3.4155 -4.6825 -2.7415 -4.7925 -1.756 -1.4985 -5.6655 -3.9205 -2.5045 -10.128 -3.152 -4.648 -2.0935 -4.886 0 
-7.089001 -5.347 -3.523 -5.395 -7.5575 -6.733001 -6.2365 -6.6355 -3.0405 -6.495501 -9.2165 -4.449 -13.5499 -13.3656 -6.538 -6.227 -6.5805 -4.886 
-7.570001 -7.872 -6.259 -8.802 -9.2825 -8.267 -7.891 -7.7965 -7.697001 -10.1505 -9.41 -15.2252 -16.7875 -16.7516 -8.0465 -10.634 -6.5805 
-9.997001 -9.7755 -9.1875 -10.2535 -10.8611 -9.670001 -8.7075 -12.6276 -11.661 -10.6498 -20.282 -18.4628 -20.1735 -18.2601 -12.5259 -10.634 
-11.8961 -13.1658 -10.6605 -11.8321 -12.2641 -10.7045 -13.6438 -16.5916 -12.1603 -21.5218 -23.5196 -21.8488 -21.682 -22.7395 -12.5259 
