-4.759 
n/a 
n/a 
n/a 
n/a 
-4.759 
n/a 
n/a 
n/a 
n/a 
-4.759 
n/a 
n/a 
n/a 
n/a 
-4.759 
n/a 
n/a 
n/a 
n/a 
-2.9805 -3.074 -5.2725 -8.4195 -1.756 -3.074 -9.761001 0 
-4.8805 -7.678 -14.4436 -10.1765 -4.566 -13.8354 -9.761001 
-8.861501 -16.9563 -16.2006 -12.9865 -15.5134 -13.8354 
-18.2134 -18.7133 -19.0106 -23.9339 -15.5134 
-19.9704 -21.5233 -29.958 -23.9339 
-2.9805 -2.6165 -3.098 -5.2725 -12.16972 -2.872 -3.074 -4.984 -9.758 
-5.981 -4.283 -8.2945 -18.19382 -15.04172 -4.5415 -7.978001 -15.917 
-6.621 -8.7045 -21.57202 -21.06582 -16.71122 -9.2825 -19.0806 
-9.856501 -22.16442 -24.44402 -22.73532 -21.45222 -20.5021 
-23.44022 -25.03642 -26.11352 -27.47632 -32.67182 
-2.9805 -2.229 -12.16972 -3.973 -1.7695 -8.013 -3.9725 0 
-4.2145 -14.99372 -16.14272 -6.4565 -10.575 -10.2595 -3.9725 
-18.62702 -18.96672 -18.62622 -15.845 -12.8215 -10.2595 
-22.60002 -21.45022 -28.01472 -18.0915 -12.8215 
-25.08352 -30.83872 -30.26122 -18.0915 
-1.4985 -7.4885 -3.152 -4.4625 -3.893 -2.5045 -5.78 -2.5195 -1.4985 -3.7075 
-8.1875 -9.4565 -7.195001 -6.363 -6.1905 -8.385 -6.151 -3.1695 -4.6235 
-9.573 -13.6187 -7.924 -6.7835 -12.6964 -8.421 -6.7695 -5.905 
-13.7396 -14.3477 -8.1315 -13.4504 -12.7324 -9.281501 -9.2335 
-14.4686 -14.5552 -14.6282 -13.4864 -13.5929 -11.8237 
