-4.759 
n/a 
n/a 
n/a 
n/a 
-4.759 
n/a 
n/a 
n/a 
n/a 
-4.759 
n/a 
n/a 
n/a 
n/a 
-4.759 
n/a 
n/a 
n/a 
n/a 
-4.426 -1.7565 -1.4985 -3.0835 -4.7285 -4.1555 -3.147 -5.339 0 -6.143001 
-5.47 -2.4195 -3.535 -6.042 -8.4455 -5.77 -9.745501 -5.339 -3.6065 
-5.9535 -4.6785 -6.335501 -9.523001 -9.541501 -12.5095 -9.745501 -10.1385 
-8.021 -7.476501 -10.0095 -10.7035 -16.281 -12.5095 -14.59 
-9.983001 -11.3061 -11.3 -17.443 -16.281 -17.354 
-3.74 0 -3.1725 
-3.74 -3.1725 
-7.191501 
n/a 
n/a 
-3.32 0 -3.1725 
-3.32 -3.1725 
-7.400001 
n/a 
n/a 
-3.999 0 -3.1725 
-3.999 -3.1725 
-7.165 
n/a 
n/a 
