-4.759 
n/a 
n/a 
n/a 
n/a 
-4.759 
n/a 
n/a 
n/a 
n/a 
-4.759 
n/a 
n/a 
n/a 
n/a 
-4.759 
n/a 
n/a 
n/a 
n/a 
-1.4985 -4.4515 -4.4665 0 -4.7505 -4.3645 -1.4985 -4.2335 0 -4.07 -1.934 -1.4985 -3.995 -8.587501 0 
-5.0235 -9.750501 -4.4665 -4.7505 -9.984001 -6.8755 -5.605 -4.2335 -4.07 -6.0205 -2.6125 -4.712 -12.6085 -8.3225 
-10.4265 -9.750501 -10.7665 -9.984001 -12.495 -11.302 -5.605 -8.8455 -6.0205 -6.7575 -6.1055 -12.6556 -12.0481 
-10.4265 -16.1497 -16 -12.495 -16.9215 -11.302 -10.575 -11.2676 -6.7575 -10.5845 -14.7288 -12.9458 
-16.8257 -21.3832 -18.511 -16.9215 -16.9215 -16.272 -12.9971 -12.0046 -10.5845 -19.2078 -14.7288 
-4.4515 -2.8965 -3.1575 -3.6135 -1.7565 -3.995 -1.7695 -2.3615 -4.1165 -3.133 -4.4345 -3.6135 0 
-8.018001 -4.4055 -7.070001 -6.3295 -5.423 -5.9385 -3.736 -6.825 -6.833501 -7.3765 -9.546501 -3.6135 
-9.255501 -8.2795 -10.1406 -11.26 -7.594 -8.572001 -8.806001 -9.9805 -11.9108 -13.1597 -9.546501 
-13.4563 -11.5879 -15.0711 -13.431 -10.181 -14.008 -12.2963 -15.7222 -17.694 -13.1597 
-16.7647 -16.5184 -17.2421 -16.018 -15.617 -17.4983 -18.038 -21.5054 -17.694 
-4.4515 -2.186 -3.074 -3.7875 -3.6135 -3.873 -4.088 -1.756 -3.321 -1.8085 -3.757 
-6.113501 -4.156 -6.3405 -7.324 -7.8395 -8.652 -5.522501 -4.0055 -5.149 -5.3715 
-8.263 -7.4725 -9.507 -12.0608 -12.9433 -9.472501 -7.755001 -5.838 -8.859501 
-11.7379 -11.0074 -14.4666 -17.1646 -13.7638 -12.3764 -9.8225 -9.5535 
-15.2728 -15.967 -19.5704 -17.9851 -16.6677 -14.4439 -13.538 
-2.4265 -2.186 -1.4985 -4.1735 -3.8665 -4.3645 -1.934 -1.4985 -4.365 -3.2 -4.388 -1.7695 -1.4985 -3.4905 -1.7565 -3.1435 -4.3305 0 -1.8085 -4.207 -1.4985 -4.783 -1.7565 -3.995 0 -3.1435 -4.2105 0 -1.756 -2.186 -1.4985 -3.6115 -7.002 -4.3645 -3.2615 
-3.292 -3.339 -4.445 -7.011 -7.3595 -6.797 -2.6125 -5.4465 -5.4195 -7.647 -4.913 -2.7955 -4.7085 -4.601 -4.124 -8.076 -4.3305 -1.8085 -5.4245 -5.867001 -5.9665 -5.727 -5.423 -3.995 -3.1435 -6.912 -4.2105 -1.756 -3.986 -3.339 -4.081 -9.244501 -10.304 -8.088 
-4.5995 -5.392 -7.3415 -9.612 -9.382 -7.5645 -6.366 -5.913 -9.208501 -7.7865 -5.28 -5.972 -4.841 -6.771501 -8.979 -8.076 -6.557 -5.4245 -7.4605 -9.198 -6.2415 -8.474501 -5.423 -7.2105 -6.912 -6.912 -5.814 -3.986 -5.37 -5.563 -9.296501 -10.317 -10.469 
-6.587 -8.133 -10.031 -9.927 -9.748 -8.808001 -6.6505 -9.381001 -9.2825 -8.115 -7.326 -6.107 -6.843 -9.955501 -8.979 -10.0925 -10.071 -7.4605 -9.7545 -9.2065 -8.587501 -8.474501 -8.567 -9.677 -6.912 -7.9055 -7.9125 -5.37 -7.299 -9.587501 -10.3165 -10.47 
-9.091001 -10.553 -10.2915 -9.981 -9.8275 -8.8175 -9.719501 -9.422001 -9.468501 -9.625 -7.3575 -8.021501 -9.955501 -9.955501 -10.3285 -10.457 -10.4565 -9.7545 -9.7605 -9.907001 -8.587501 -10.3605 -10.459 -9.677 -7.9055 -9.8585 -8.927501 -7.299 -10.41 -10.3175 -10.47 
