-4.759 
n/a 
n/a 
n/a 
n/a 
-4.759 
n/a 
n/a 
n/a 
n/a 
-4.759 
n/a 
n/a 
n/a 
n/a 
-4.759 
n/a 
n/a 
n/a 
n/a 
-3.436 -1.7565 -7.479001 -3.1385 -3.9025 -10.4535 -3.8475 -3.7555 -3.0415 -3.4915 -5.897 -2.3615 -8.803 -7.059 -3.5185 -3.135 -3.84 -5.2505 -1.7695 -8.803 -4.9225 -2.3335 -3.84 -2.7415 -8.417001 -1.7695 -5.1845 -4.9225 
-6.931 -9.229 -10.168 -8.3985 -15.1436 -14.301 -8.144 -6.113 -4.39 -9.419001 -7.317 -12.4527 -16.098 -10.4855 -6.205 -6.594501 -8.6525 -7.065001 -10.784 -13.9615 -7.29 -6.660501 -7.1575 -10.6605 -10.7335 -7.4505 -9.13 
-14.9501 -12.0554 -15.5416 -20.0718 -18.9911 -18.5975 -10.1945 -6.911 -9.785501 -11.2815 -18.2635 -19.7477 -19.5245 -13.172 -9.109501 -12.187 -11.102 -16.5721 -15.9425 -16.329 -11.9198 -10.3815 -15.3811 -12.977 -16.4145 -11.817 
-17.7765 -17.429 -27.2149 -23.9193 -23.2876 -20.648 -10.9925 -12.1675 -12.4915 -22.5589 -25.9809 -23.1742 -22.211 -16.0765 -14.87 -14.6365 -20.6091 -21.7306 -18.31 -20.9588 -15.6408 -18.6051 -17.6976 -18.658 -20.781 
-23.1501 -29.1023 -31.0624 -28.2158 -25.3381 -21.446 -16.249 -14.6615 -23.4479 -29.8539 -29.4074 -25.8607 -25.1155 -21.837 -17.3195 -24.1436 -25.7676 -24.0981 -22.9398 -24.6798 -23.8644 -20.9216 -23.3786 -23.0245 
-1.4985 -6.6585 -2.229 -5.4135 -2.229 -4.1585 -2.3335 -2.925 -2.742 -5.506 -1.4985 -3.59 -8.578501 -2.7415 -4.9125 -3.5455 -1.4985 -8.795501 -1.756 -4.09 -8.723001 -2.356 -1.4985 -5.1845 -4.9725 -1.756 -8.9925 -1.4985 -4.9185 -8.723001 -1.756 -3.264 -2.925 -3.1425 -5.9675 -2.4265 
-9.0305 -9.037001 -7.941 -6.863 -6.825 -5.438 -4.0295 -4.3725 -7.995 -6.7905 -4.268 -13.3071 -9.9835 -6.508 -6.795501 -3.91 -9.572001 -9.649001 -5.5625 -13.9788 -9.6855 -3.1615 -6.5205 -8.637 -5.8695 -10.674 -10.4595 -6.165 -15.3431 -9.958501 -4.83 -5.0665 -4.669 -7.637 -7.286 
-10.718 -14.9904 -9.3625 -12.018 -8.224 -6.595 -5.3675 -9.2985 -8.570001 -8.881001 -14.3215 -14.7121 -13.75 -7.733 -7.2945 -12.9041 -10.7615 -13.8605 -15.6759 -14.9413 -10.391 -8.023001 -9.598001 -9.632501 -15.7943 -12.141 -15.126 -16.8736 -16.5786 -13.0325 -6.612 -6.069 -8.976001 -9.1525 
-16.6714 -16.4119 -14.6557 -13.417 -9.989 -7.9415 -10.304 -9.902 -10.7175 -19.2767 -15.7265 -18.4786 -14.975 -8.173 -16.6616 -14.0936 -14.973 -23.9739 -16.6384 -15.6468 -15.6881 -11.3677 -10.5445 -19.5983 -17.2613 -16.8075 -25.8346 -18.1091 -19.6526 -14.8145 -7.4335 -10.1065 -9.9305 
-18.0929 -21.7051 -16.0547 -15.182 -11.3603 -13.247 -10.7595 -12.0495 -21.1132 -20.6817 -19.493 -19.7036 -15.415 -17.6281 -17.8511 -18.3051 -25.0864 -24.9364 -17.3439 -20.9439 -19.0328 -12.3142 -20.5103 -21.0653 -21.9278 -27.5161 -27.0701 -21.1831 -21.4346 -15.636 -11.7054 -11.1176 
-1.934 -3.9175 -1.7565 -3.875 -4.1655 -3.5015 -1.4985 -8.803 -3.8475 -2.742 -4.0135 -1.4985 -5.61 -3.458 -4.164 -2.3345 -8.803 -5.4135 -1.756 -10.613 -9.819 -2.4945 -1.4985 -6.9325 -3.458 -5.1845 -5.4135 0 
-4.681 -4.64 -5.1745 -7.756001 -8.5635 -4.9995 -9.981 -12.8865 -6.289001 -5.84 -4.874 -6.673 -9.002001 -9.0455 -5.706 -10.7495 -14.4525 -6.598001 -13.3776 -20.432 -12.4745 -3.9315 -7.85 -9.012501 -8.607 -8.991 -5.4135 
-4.7425 -9.190001 -9.576501 -13.0478 -9.814501 -13.7334 -14.1275 -15.328 -10.2135 -6.461 -9.717001 -10.1465 -14.8157 -10.8171 -14.695 -16.399 -15.637 -18.9704 -23.1966 -23.0875 -13.9115 -10.8098 -9.646001 -14.2955 -12.9097 -8.991 
-9.582001 -13.9052 -14.9393 -14.2988 -18.5484 -17.8799 -16.569 -19.2525 -10.6295 -11.663 -13.0797 -15.9544 -16.5873 -19.8061 -20.3445 -17.5835 -28.0094 -28.7894 -25.8521 -24.5245 -20.7898 -12.6058 -15.1598 -18.5982 -12.9097 
-14.5108 -19.268 -16.1903 -23.0327 -22.6949 -20.3214 -20.4935 -19.6685 -15.8315 -15.0257 -18.8876 -17.726 -25.5763 -25.4556 -21.529 -29.9559 -37.8284 -31.4449 -27.2891 -31.4028 -22.5858 -18.1196 -19.4625 -18.5982 
-3.4985 -1.4985 -9.2995 -4.9725 -5.0705 -1.7695 -4.2135 -1.4985 -5.61 -6.589 -2.9905 -1.7695 -1.4985 -6.5175 -2.3345 -1.4985 -4.065 -1.756 -4.253 -5.789001 0 -1.4985 -5.1845 -4.9725 -5.0705 -1.7695 -5.418 -2.9905 -1.4985 -5.891 -4.461 -1.756 -5.9675 -6.501 -2.3615 -4.09 -3.818 -6.662 0 
-4.398 -10.2865 -14.547 -8.830501 -5.7225 -5.4335 -5.8345 -6.673 -10.5535 -6.8615 -4.444 -2.7955 -7.340501 -8.8795 -3.233 -4.824 -5.851 -5.891 -8.72 -5.789001 -1.4985 -6.5205 -8.637 -8.830501 -5.7225 -6.0915 -6.127 -4.143 -6.9925 -8.7655 -5.934501 -7.463 -10.841 -8.906 -7.624001 -6.946 -9.42 -6.662 
-13.328 -15.534 -18.405 -9.365001 -9.026001 -6.118501 -9.712 -12.3553 -10.604 -7.986 -5.374001 -8.629001 -9.606001 -9.747001 -6.0125 -6.4615 -10.647 -9.964001 -8.72 -7.218 -6.5205 -9.598001 -12.6146 -9.365001 -9.1055 -6.599 -6.7565 -9.845501 -9.956 -9.711 -12.4161 -12.4881 -13.246 -14.3339 -9.528 -13.2034 -9.42 
-18.5755 -19.392 -18.9395 -12.8805 -9.467001 -9.799001 -15.3903 -12.4058 -10.697 -8.861501 -11.6695 -10.6735 -9.917001 -12.7699 -7.4635 -11.2767 -14.72 -9.964001 -10.082 -12.54 -9.598001 -13.5814 -13.1491 -12.96 -9.550501 -7.1215 -12.9094 -12.7814 -11.0035 -16.2556 -17.4412 -14.8931 -18.6739 -16.2379 -15.881 -13.2034 
-22.4335 -19.9265 -22.455 -13.3215 -13.1469 -15.4799 -15.4408 -12.4988 -11.5725 -15.2234 -13.714 -10.9845 -13.1229 -14.2209 -12.2121 -15.3497 -14.72 -11.326 -15.404 -15.6175 -13.5814 -14.1159 -16.7441 -13.405 -10.1735 -13.382 -15.8453 -13.8289 -17.5481 -21.2807 -19.8462 -20.321 -20.5779 -22.5909 -15.881 
