-4.759 
n/a 
n/a 
n/a 
n/a 
-4.759 
n/a 
n/a 
n/a 
n/a 
-4.759 
n/a 
n/a 
n/a 
n/a 
-4.759 
n/a 
n/a 
n/a 
n/a 
-6.778501 -4.288 
-12.369 
n/a 
n/a 
n/a 
-3.3985 0 -1.4985 -4.1665 -1.7565 -1.4985 -8.783501 -3.9955 -2.6165 -5.7865 -3.723 0 -3.778 -1.7565 -3.38 -3.2795 -1.7565 -6.111 -5.3055 0 
-3.3985 -1.4985 -5.3855 -5.517 -2.4195 -10.533 -13.1782 -7.169 -8.0205 -9.279 -3.723 -3.778 -4.848 -4.891 -5.8105 -4.4575 -7.816 -12.1227 -5.3055 
-5.8905 -5.3855 -5.7815 -6.04 -11.6448 -14.9277 -16.3517 -13.1974 -9.7425 -9.279 -7.744 -4.848 -8.422 -8.8765 -6.9925 -9.431001 -14.2235 -12.1227 
-10.31 -5.7815 -6.288 -15.7697 -16.0395 -18.1012 -22.3801 -14.9194 -9.7425 -13.4024 -8.541501 -8.422 -13.0031 -9.785001 -12.5796 -15.8947 -14.2235 
-10.684 -6.288 -16.0921 -20.1644 -19.213 -24.1296 -24.1021 -14.9194 -13.9067 -14.1999 -12.4287 -13.0031 -13.9116 -15.4437 -19.0433 -15.8947 
-8.783501 -2.186 -2.6165 -3.301 -6.635 -4.231 -4.1585 
-11.3687 -3.5105 -5.4495 -10.0785 -10.513 -7.745001 
-12.6932 -5.994 -12.7832 -13.9565 -14.027 
-15.1767 -13.6417 -16.6612 -17.4705 
-22.8244 -17.5197 -20.1752 
-3.3985 0 -4.464 -4.1965 -3.772 -2.4945 -2.6165 -5.7865 -3.916 0 -3.38 -5.1195 -3.774 -3.277 0 
-3.3985 -4.464 -7.717501 -8.304001 -5.468 -3.8065 -8.0205 -9.834501 -3.916 -3.38 -9.479 -9.476501 -5.976501 -3.277 
-9.779501 -7.717501 -12.1744 -9.975 -6.867 -8.8765 -10.348 -9.834501 -7.26 -9.479 -13.8672 -11.8362 -5.976501 
-13.1508 -12.1744 -13.8454 -11.4486 -12.4076 -11.575 -10.348 -13.2897 -14.0496 -13.8672 -16.2269 -11.8362 
-17.6077 -13.8454 -15.319 -16.9892 -15.1061 -11.575 -13.8032 -20.0793 -18.4378 -16.2269 -16.2269 
