-4.759 
n/a 
n/a 
n/a 
n/a 
-4.759 
n/a 
n/a 
n/a 
n/a 
-4.759 
n/a 
n/a 
n/a 
n/a 
-4.759 
n/a 
n/a 
n/a 
n/a 
-2.5645 0 -4.4345 -1.7565 -6.293 -4.7995 -4.388 0 
-2.5645 -4.4345 -4.719 -8.203 -10.7025 -9.2565 -4.388 
-6.463 -4.719 -10.494 -12.6033 -15.1595 -9.2565 
-7.119 -10.494 -14.8943 -17.0603 -15.1595 
-13.19 -14.8943 -19.3513 -17.0603 
-3.098 -2.5645 0 -1.7565 -4.1645 -2.4945 -4.6075 -1.934 -4.388 -5.5225 
-5.585 -2.5645 -1.7565 -5.519001 -5.7405 -5.870501 -5.4935 -5.8095 -8.825001 
-5.585 -4.7875 -5.519001 -7.350501 -7.45 -6.5315 -7.6045 -10.0995 
-6.845 -8.6835 -7.350501 -8.6855 -7.933001 -8.474001 -12.2071 
-9.834001 -9.68 -8.6855 -8.92 -9.5275 -13.2624 
-3.098 -2.5645 0 -4.657 -2.4945 -4.077 -1.934 -4.388 0 
-5.585 -2.5645 -4.657 -6.281 -5.416 -4.43 -5.8095 -4.388 
-5.585 -7.740001 -6.281 -8.7545 -5.615 -7.673501 -5.8095 
-9.723001 -9.753501 -8.7545 -8.889 -8.439501 -7.673501 
-12.4417 -12.227 -8.889 -11.7065 -8.439501 
-1.934 -5.6825 -2.5645 0 -1.7565 -3.277 -3.8185 -4.388 
-9.0325 -8.366 -2.5645 -1.7565 -4.25 -7.113501 -9.439 
-11.8778 -8.366 -4.7875 -4.25 -7.936 -13.1854 
-11.8778 -10.9008 -7.078 -7.936 -13.9903 
-14.4126 -13.1913 -10.9532 -13.9903 
