-4.759 
n/a 
n/a 
n/a 
n/a 
-4.759 
n/a 
n/a 
n/a 
n/a 
-4.759 
n/a 
n/a 
n/a 
n/a 
-4.759 
n/a 
n/a 
n/a 
n/a 
-7.037 -7.599 
-15.4246 
n/a 
n/a 
n/a 
-4.248 -1.7695 -4.348 -3.0835 -4.2915 -2.186 -5.1605 -2.664 -3.6085 0 
-5.4485 -6.307001 -7.9885 -7.7305 -6.6165 -6.7155 -7.6545 -5.588 -3.6085 
-11.097 -9.076501 -13.0545 -9.972501 -11.5536 -9.102 -11.4009 -5.588 
-13.8665 -14.6705 -15.2965 -14.9096 -13.9401 -13.0588 -11.4009 
-19.4605 -16.9125 -20.2336 -17.2961 -17.8969 -13.0588 
-4.348 -3.7555 -4.248 -3.321 0 -3.5435 -3.6885 -2.186 -3.6085 
-8.8395 -8.1975 -7.5635 -3.321 -3.5435 -7.04 -5.4995 -6.467501 
-13.3669 -11.8362 -7.5635 -7.487 -7.04 -10.1265 -7.113501 
-17.0056 -11.8362 -12.1039 -11.3507 -10.1265 -11.7405 
-17.0056 -16.3766 -15.9676 -14.4372 -11.7405 
-3.6085 -2.186 -4.09 -2.5045 -3.915 -3.6885 -3.034 -4.348 -3.7555 -4.712 0 
-5.869 -5.6995 -5.9375 -6.5305 -6.26 -6.735001 -8.198501 -8.8395 -8.482 -4.712 
-9.972501 -7.476501 -10.2485 -8.2405 -9.2495 -12.2339 -13.2068 -13.6514 -8.482 
-11.7613 -11.9739 -12.1495 -11.259 -14.8284 -17.2422 -18.0187 -13.6514 
-16.2587 -13.8749 -15.168 -16.8379 -19.8367 -22.0541 -18.0187 
