-4.759 
n/a 
n/a 
n/a 
n/a 
-4.759 
n/a 
n/a 
n/a 
n/a 
-4.759 
n/a 
n/a 
n/a 
n/a 
-4.759 
n/a 
n/a 
n/a 
n/a 
-1.934 -3.539 -2.461 -6.899 -4.257 -4.2245 -6.7945 -4.1555 -1.7695 -5.956 -2.356 -3.3425 -4.559 -4.884 0 
-5.011 -5.4945 -10.1075 -9.082001 -7.963 -9.521501 -10.784 -4.988501 -8.150001 -8.892 -5.916 -8.316 -9.233 -4.884 
-8.0185 -14.2892 -12.3461 -12.8792 -13.3862 -13.6968 -11.617 -10.718 -11.4574 -12.6622 -10.543 -13.6792 -9.233 
-16.904 -16.5278 -16.1433 -18.3024 -17.5615 -14.5298 -17.3465 -14.0254 -15.2276 -17.2892 -15.9062 -13.6792 
-19.1426 -20.325 -21.5665 -22.4777 -18.3945 -20.2593 -20.6539 -17.7956 -19.8546 -22.6524 -15.9062 
-3.539 -2.461 -12.16972 -6.473001 -3.3165 -1.7695 -3.85 -3.1385 -4.784 
-5.4945 -14.89832 -18.64272 -10.6153 -3.881 -5.61 -7.5435 -7.015 
-19.08002 -21.37132 -22.78502 -11.1798 -7.283 -9.408501 -11.8046 
-25.55302 -25.51362 -23.34952 -14.5818 -11.6009 -13.7132 
-29.69532 -26.07812 -26.75152 -18.8997 -15.9056 
-3.539 -2.461 0 -6.7945 -3.0695 -4.9395 -1.7695 -4.628 -5.939 -4.0415 -2.7415 -4.784 -1.934 -3.85 -3.433 -1.7565 -3.7875 -4.8315 -4.884 0 
-5.4945 -2.461 -6.7945 -9.031 -6.778501 -5.127501 -6.618001 -5.9615 -7.822001 -6.933001 -5.6175 -5.6055 -4.875 -7.589 -4.1845 -5.081 -7.972501 -8.5465 -4.884 
-5.4945 -9.529501 -9.031 -13.1286 -6.8135 -9.887 -7.9525 -7.827001 -9.816501 -10.335 -6.486001 -7.987501 -7.9325 -8.155001 -7.457 -9.094501 -12.2701 -8.5465 
-13.7112 -11.8024 -13.1286 -13.1636 -11.8878 -10.9609 -10.012 -9.8175 -13.2185 -11.2035 -8.5565 -11.5222 -8.446 -11.7279 -11.6791 -13.5439 -12.2701 
-15.9841 -15.9 -13.1636 -18.2379 -12.9617 -13.0204 -12.0025 -13.2195 -14.087 -13.274 -12.5812 -12.0357 -12.1511 -15.95 -16.1285 -13.5439 
-3.539 -2.461 0 -4.269 -4.0415 -3.711 -6.813 -3.0695 -4.101 -2.5195 -4.628 -4.743 -1.7695 -3.85 -5.6545 -2.7415 -4.784 -1.934 -3.85 -2.0935 -3.7875 -4.8315 -3.53 
-5.4945 -2.461 -4.269 -8.318001 -7.674 -11.4746 -10.139 -5.837 -5.8035 -6.806 -4.7515 -7.046 -5.61 -9.805 -8.874001 -5.6175 -5.6055 -4.875 -6.244 -5.4945 -7.972501 -9.169001 
-5.4945 -7.648001 -8.318001 -12.6883 -15.82 -14.8006 -12.9953 -7.411 -10.577 -6.9295 -7.0655 -10.368 -12.3312 -13.1101 -11.8104 -6.486001 -7.987501 -6.683001 -9.609501 -9.071501 -12.8926 
-11.8297 -12.0538 -12.6883 -20.8343 -19.146 -17.6569 -14.5693 -12.3471 -10.7005 -8.307 -10.403 -17.0892 -15.6363 -16.0465 -12.6789 -8.5565 -9.184501 -10.064 -13.2447 -14.7778 
-16.2355 -16.4241 -20.8343 -24.1603 -22.0023 -19.2309 -19.5054 -12.4706 -12.078 -10.5635 -17.1242 -20.3943 -18.5727 -16.915 -14.7494 -9.460001 -12.8089 -13.6992 -18.951 
