-4.759 
n/a 
n/a 
n/a 
n/a 
-4.759 
n/a 
n/a 
n/a 
n/a 
-4.759 
n/a 
n/a 
n/a 
n/a 
-4.759 
n/a 
n/a 
n/a 
n/a 
-4.013 -2.4265 -2.7415 -2.6165 -4.0835 -3.222 -1.8085 -3.324 0 -3.8825 -6.744 -3.152 -5.6875 -2.0935 -3.948 -3.38 -4.078 0 
-5.1265 -3.681 -4.266 -6.356501 -5.673501 -4.144 -4.8275 -3.324 -3.8825 -9.316501 -8.6435 -7.3365 -6.978001 -5.290501 -6.758 -7.943 -4.078 
-6.1865 -5.1275 -7.231501 -7.7045 -6.9175 -7.002 -4.8275 -7.1805 -9.316501 -9.9735 -10.038 -8.335501 -9.663501 -8.214001 -9.922501 -7.943 
-7.109 -8.2335 -8.811001 -9.206501 -9.292001 -7.002 -7.8175 -10.0315 -9.9735 -10.0435 -10.0435 -9.977501 -10.018 -10.01 -9.922501 
-9.788 -9.73 -9.812 -10.0165 -9.292001 -9.647 -10.031 -10.063 -10.0435 -10.049 -10.049 -10.042 -10.023 -10.01 
-6.705 -2.7415 -3.642 -5.47 -2.0935 -2.3615 -4.2895 -3.0415 0 -3.693 -4.37 -1.7695 -4.626 -3.6115 -4.8445 
-9.5395 -5.223001 -7.396 -7.077001 -3.854 -8.002501 -6.91 -3.0415 -3.693 -8.101 -6.63 -7.644001 -10.0285 -7.198 
-12.0758 -8.154 -8.8725 -9.175 -8.26 -10.7266 -6.91 -6.2145 -8.101 -10.76 -13.2185 -12.5057 -13.615 
-15.0068 -9.546 -11.3991 -13.7796 -11.1315 -10.7266 -9.972 -11.1663 -10.76 -17.3485 -18.0802 -16.0922 
-16.3988 -12.2786 -16.0037 -16.6511 -11.1315 -13.7886 -14.9238 -13.8253 -17.3485 -22.2102 -21.6667 
-2.5195 -3.1495 -4.2675 -6.705 -3.7555 -4.7355 -1.756 -5.268 -1.7695 -4.37 -3.693 -1.934 -1.4985 -3.6115 -4.0455 
-5.0805 -8.306001 -11.1415 -10.3475 -8.328 -6.054 -6.503 -5.4665 -4.6705 -7.752501 -5.151 -2.6125 -4.8215 -6.736501 
-10.4265 -15.4288 -14.784 -15.3096 -9.3325 -10.19 -6.676 -7.682 -7.935 -8.3985 -5.7955 -5.6145 -8.500501 
-17.5493 -19.0713 -19.7461 -16.3141 -13.5559 -10.71 -8.6405 -10.085 -8.580501 -8.8225 -9.018001 -9.633 
-21.1918 -24.0334 -20.7506 -20.5375 -14.0759 -12.6745 -11.0153 -10.8659 -9.014501 -12.159 -13.1039 
-3.2615 -2.3615 -4.4995 0 -2.9805 -6.7765 -1.7695 -5.037 -1.934 -3.6115 -4.0455 0 
-5.276 -5.593 -4.4995 -2.9805 -10.341 -7.8885 -8.381001 -5.1315 -5.5885 -6.736501 -4.0455 
-8.079 -5.593 -7.173 -10.341 -11.2818 -15.2288 -8.5485 -9.7845 -8.9905 -6.736501 
-8.079 -8.25 -14.9683 -11.2818 -18.6221 -15.3963 -13.2343 -13.3215 -8.9905 
-10.2535 -16.1509 -15.9091 -18.6221 -18.7896 -20.0821 -16.7713 -13.3215 
