-4.759 
n/a 
n/a 
n/a 
n/a 
-4.759 
n/a 
n/a 
n/a 
n/a 
-4.759 
n/a 
n/a 
n/a 
n/a 
-4.759 
n/a 
n/a 
n/a 
n/a 
-3.691 -2.229 -4.868 -3.5035 -4.849 -2.4265 -2.229 -3.7745 -1.756 -3.1715 -4.6555 -4.6195 -1.756 -4.6865 -1.756 -4.7595 -1.4985 -3.5035 -4.912 -3.7075 0 
-5.0855 -6.4665 -5.93 -7.23 -6.9525 -3.3415 -5.7545 -5.367 -4.88 -5.9845 -8.475 -5.6905 -5.842 -5.5725 -6.08 -5.4655 -4.4895 -8.946 -7.301001 -3.7075 
-8.521501 -7.8125 -10.368 -9.116 -8.7005 -7.818501 -7.7355 -7.430501 -6.527 -8.609 -9.856501 -6.3205 -7.415 -10.31 -6.688001 -8.3385 -9.854501 -11.8036 -7.301001 
-10.155 -12.5071 -12.5188 -11.0406 -13.3963 -9.448501 -9.797 -7.753 -8.6195 -10.9549 -10.5961 -8.0745 -12.2015 -10.918 -9.569501 -14.2191 -12.6289 -11.8036 
-15.2238 -14.6579 -14.4434 -15.7364 -15.0263 -11.652 -10.0435 -9.994301 -11.3802 -11.6945 -12.3501 -13.1532 -12.8095 -13.7995 -15.6969 -16.9935 -12.6289 
-1.4985 -3.691 -3.5435 -3.2 -1.7565 -3.5035 -5.1465 -3.0365 -3.922 -3.5435 -1.756 -5.292 -3.5435 -1.7695 -4.0735 -3.1435 -3.2895 -1.756 -4.6865 0 -1.756 -3.6845 -4.4715 -1.7695 -4.752 -2.688 -4.179 0 
-5.8135 -6.8935 -6.713 -4.722 -4.6725 -8.613501 -8.0165 -8.7165 -7.619 -4.862 -6.8805 -7.625 -5.157001 -4.2625 -6.400001 -6.32 -4.799 -5.842 -4.6865 -1.756 -5.0105 -7.6355 -6.008 -5.1505 -6.1565 -6.141 -4.179 
-9.524 -11.0566 -8.511001 -7.358 -9.630501 -11.3907 -14.6531 -13.0527 -9.3105 -9.282001 -9.399 -9.096001 -6.992001 -6.5165 -10.025 -7.026 -6.565001 -5.842 -5.5725 -5.0105 -8.8435 -8.353001 -9.305501 -6.527 -8.6695 -6.141 
-13.7785 -12.8546 -11.2922 -12.8912 -12.6667 -18.0273 -18.9893 -14.7442 -13.9357 -12.1455 -10.9874 -11.1072 -9.151001 -10.118 -10.6025 -7.804 -6.565001 -7.415 -9.122001 -8.8435 -9.514 -12.0411 -10.305 -8.868 -8.6695 
-15.5765 -15.6358 -16.8254 -15.9274 -19.3033 -22.3635 -20.6808 -19.3694 -16.7992 -13.7339 -12.9986 -13.2662 -12.7603 -10.6035 -11.3805 -7.804 -8.1425 -11.0135 -12.9992 -9.514 -13.2329 -13.0406 -13.092 -8.868 
-3.691 -2.229 -3.9655 -3.5035 -2.4945 -4.5485 -2.3345 -1.4985 -10.6255 -1.756 -7.2955 -6.0655 
-5.0855 -5.5855 -7.343 -6.275001 -5.861 -5.4845 -3.233 -13.2178 -12.3815 -8.962 -14.0262 
-8.069 -9.4505 -10.757 -10.159 -6.673501 -6.058 -15.2203 -14.9738 -19.5875 -15.9987 
-12.5754 -13.3669 -14.641 -10.7245 -7.4075 -18.3657 -16.9763 -22.1798 -26.6242 
-16.4918 -17.2509 -15.2065 -11.4585 -19.8426 -20.1217 -24.1823 -29.2165 
-4.2085 -4.579 -3.5035 -4.849 -3.1435 -3.7745 0 -5.0075 -4.6555 -4.6195 -1.756 -4.6615 -2.4265 -3.074 -4.849 -1.4985 -3.3755 -2.0935 -4.1885 -1.4985 -4.179 0 
-7.643001 -7.6675 -7.23 -7.0755 -6.393 -3.7745 -5.0075 -6.6225 -8.475 -5.6905 -5.3455 -7.009501 -4.605 -6.6755 -5.3535 -4.057 -4.9855 -5.2235 -5.351501 -5.087 -4.179 
-11.0249 -11.944 -10.1945 -10.2865 -6.393 -7.965 -6.6225 -10.7188 -9.856501 -6.9805 -7.7115 -8.422501 -7.337501 -7.199501 -7.815501 -5.619 -8.366 -6.456 -9.213001 -5.087 
-15.3014 -14.9085 -13.4055 -10.2865 -11.3213 -10.259 -10.7188 -12.1003 -11.2561 -9.4835 -8.998501 -10.688 -7.8335 -9.804501 -9.958501 -8.928 -9.6875 -10.2925 -9.213001 
-18.2659 -18.1195 -13.4055 -15.2148 -13.6153 -14.3553 -12.1003 -13.4999 -13.7591 -10.8715 -11.312 -11.184 -10.5425 -12.0799 -13.8759 -10.0815 -13.5618 -10.2925 
