-4.759 
n/a 
n/a 
n/a 
n/a 
-4.759 
n/a 
n/a 
n/a 
n/a 
-4.759 
n/a 
n/a 
n/a 
n/a 
-4.759 
n/a 
n/a 
n/a 
n/a 
-5.3885 -3.2875 -4.1805 -3.09 -2.5045 -1.4985 -3.237 -4.1805 -2.0935 -1.4985 -5.3885 -3.2875 -2.5045 -3.3235 -2.5045 -3.1435 -4.6465 -4.088 
-7.8685 -7.3435 -6.1565 -5.474 -3.583 -4.1875 -5.522 -5.9945 -2.9725 -7.283501 -7.8685 -5.9605 -3.7105 -3.8485 -5.120501 -6.432 -8.338 
-12.3177 -9.217001 -8.3435 -6.8385 -6.5175 -6.907001 -7.552501 -7.2005 -8.7425 -8.970501 -10.2865 -6.844501 -3.8545 -6.01 -8.811501 -9.7775 
-14.1912 -11.6796 -9.6095 -9.5175 -8.995001 -9.525001 -8.441501 -13.3487 -10.5645 -11.6751 -11.1705 -6.925 -6.012 -8.9565 -12.144 
-16.6538 -12.9456 -12.5473 -12.0668 -11.6774 -10.196 -14.8725 -15.1707 -13.2691 -12.5591 -11.251 -8.594501 -8.958 -12.4078 
-5.3885 -4.1805 -3.922 -5.0125 -1.4985 -3.2875 -2.356 -4.1595 -1.7565 -1.4985 -3.8195 
-9.6705 -7.3555 -9.092501 -6.0935 -4.127 -5.74 -6.923 -4.432 -2.4195 -5.146501 
-10.3005 -12.931 -10.3615 -8.101501 -6.351501 -10.6595 -7.464001 -4.6925 -6.0525 
-16.6514 -14.2 -12.3695 -8.696 -11.565 -10.7095 -7.931001 -8.679001 
-17.9204 -16.208 -12.964 -14.1659 -11.615 -11.1765 -12.0941 
-3.237 -4.076 -4.1155 -2.186 -4.6905 -1.4985 -5.3885 -1.756 -2.8965 -4.6465 -3.8195 -2.186 -5.1035 -1.934 -3.922 -5.3885 -4.297 -4.2215 
-5.562 -7.3285 -5.6685 -6.911 -5.683001 -7.283501 -7.176001 -3.751 -7.2245 -5.7065 -6.1025 -6.552501 -6.408501 -7.349 -9.038 -8.776501 -7.0655 
-8.7445 -8.96 -11.1213 -7.995001 -12.0326 -9.212501 -8.887501 -7.594501 -7.8845 -8.0495 -10.4945 -7.910001 -12.4289 -13.0988 -12.5946 -10.5235 
-10.4855 -14.546 -12.2053 -14.513 -13.9616 -11.2778 -13.2156 -8.12 -9.869 -12.6515 -11.852 -14.2636 -18.1787 -16.6554 -14.3416 
-16.0715 -15.63 -18.7233 -16.442 -16.0269 -15.6059 -13.7411 -10.733 -14.8628 -14.009 -18.2056 -20.0134 -21.7353 -18.4024 
-1.4985 -5.3885 -4.6915 -4.297 -4.4275 -2.5045 -3.8225 -4.1805 -4.1155 -2.9705 -3.5035 -5.3885 -3.2875 -1.756 -2.8965 -5.104 -3.8195 
-7.283501 -8.500501 -8.400001 -9.362501 -5.386 -6.269 -7.512 -7.2735 -6.2935 -6.908 -9.5985 -7.8685 -4.9375 -3.751 -7.9635 -6.79 
-8.950001 -10.575 -14.0901 -9.547001 -9.6675 -10.038 -9.9615 -9.7635 -11.0108 -13.5302 -12.2247 -9.293 -7.185 -8.5585 -9.050501 
-11.1551 -16.7373 -14.2746 -14.1481 -13.6561 -12.7847 -12.7247 -14.5686 -17.633 -16.1564 -13.6492 -11.6811 -10.459 -9.451501 
-17.3174 -16.9218 -18.8757 -18.1367 -16.4028 -15.5479 -17.5298 -21.1908 -20.2592 -17.5809 -16.0373 -14.9551 -10.6235 
