-4.759 
n/a 
n/a 
n/a 
n/a 
-4.759 
n/a 
n/a 
n/a 
n/a 
-4.759 
n/a 
n/a 
n/a 
n/a 
-4.759 
n/a 
n/a 
n/a 
n/a 
-3.456 -4.16 -4.822 -1.7695 -4.3915 -1.7695 -4.23 -3.1385 0 -2.3345 -4.0515 -3.5505 0 -4.1685 -4.6525 -1.756 -4.0515 -5.3435 0 -4.558 -3.277 -2.356 -4.0215 -2.7835 -4.613 -1.756 -4.0515 -3.4005 0 
-8.0915 -8.658501 -4.8595 -5.968 -6.6855 -5.8215 -5.86 -3.1385 -2.3345 -5.045 -6.819 -3.5505 -4.1685 -8.959001 -5.7015 -5.3365 -8.766001 -5.3435 -4.558 -6.1595 -4.9055 -7.118501 -6.8425 -7.619 -6.062 -5.3365 -6.679 -3.4005 
-12.8782 -8.677501 -9.6785 -8.928 -11.2835 -7.2865 -5.86 -5.644 -5.045 -7.777 -6.819 -7.946501 -8.959001 -9.938001 -9.834001 -10.089 -8.766001 -10.2335 -6.1595 -7.1295 -9.285001 -9.120501 -12.3554 -9.3535 -9.299001 -7.7295 -6.679 
-12.8972 -13.7721 -12.6093 -13.7326 -12.7485 -7.2865 -8.158 -7.5495 -7.777 -7.777 -12.1684 -13.2238 -9.938001 -14.1635 -14.6417 -10.089 -14.1244 -11.835 -7.1295 -10.5745 -11.423 -14.6792 -14.0899 -12.7495 -12.1524 -7.7295 
-17.9918 -16.7029 -17.4139 -15.1976 -12.7485 -9.371 -9.603001 -9.314 -7.777 -13.211 -17.4457 -14.2028 -14.1635 -18.9712 -14.6417 -15.5568 -15.7259 -12.805 -10.5745 -12.7125 -16.9817 -16.4137 -17.4859 -15.6029 -12.1524 
-3.1335 -1.7695 -3.1385 -2.186 -2.664 -4.23 -4.9225 -1.756 -2.6165 -2.0935 -2.3335 -3.8685 -1.934 -3.5505 0 -4.795 -5.8615 0 -2.871 -3.535 -2.8195 0 -4.0215 -1.756 -3.4005 -1.7695 -2.985 -3.1385 -2.186 -3.849 -3.1385 -3.1335 0 
-4.809 -5.0525 -5.6995 -3.8555 -8.461 -7.8325 -6.156 -4.2965 -4.7695 -4.488501 -5.971001 -5.1635 -5.483 -3.5505 -4.795 -8.954 -5.8615 -2.871 -5.9125 -6.554 -2.8195 -4.0215 -5.213 -4.910501 -5.559 -4.281 -6.1575 -5.6995 -4.8565 -7.3 -7.4505 -3.1335 
-7.3245 -7.4525 -7.402 -9.7705 -12.1485 -9.481501 -8.709001 -5.972 -7.150001 -7.241 -7.277 -8.987 -5.483 -9.009501 -8.954 -8.954 -8.7995 -5.9125 -9.569 -6.554 -7.1695 -5.213 -7.9815 -6.561 -7.768001 -7.3785 -8.441501 -8.476501 -8.9265 -12.0372 -7.4505 
-9.657001 -9.212001 -13.7164 -13.458 -13.7975 -12.1829 -10.389 -8.682 -10.5865 -8.586 -11.4563 -8.987 -11.5962 -13.2639 -8.954 -12.2616 -12.068 -9.569 -9.569 -11.7972 -9.109001 -7.9815 -9.411 -8.866501 -10.0345 -9.604501 -11.3383 -12.6347 -13.7909 -12.0372 
-11.6497 -15.7288 -17.4039 -15.107 -16.4989 -13.8629 -13.099 -12.5087 -11.9315 -12.8933 -11.4563 -15.4748 -15.8506 -13.2639 -12.2616 -15.5301 -15.7245 -9.569 -14.839 -13.7367 -12.2793 -9.411 -11.7571 -10.6215 -12.2605 -12.4965 -15.4965 -17.4991 -13.7909 
-3.564 -3.1335 -3.757 -4.1685 -4.0215 0 -3.5505 0 -4.421 0 -3.545 0 -1.756 -3.4005 -3.843 -1.7695 -4.4015 -4.23 -3.1385 0 
-5.803 -6.6375 -7.162001 -7.863001 -4.0215 -3.5505 -3.5505 -4.421 -4.421 -3.545 -3.545 -1.756 -4.910501 -6.9005 -5.618 -7.923 -10.2815 -5.86 -3.1385 
-10.022 -9.625 -11.3981 -7.863001 -6.939 -3.5505 -8.202001 -4.421 -8.7815 -3.545 -4.9285 -4.910501 -8.484 -8.702001 -12.3119 -12.726 -11.9115 -5.86 
-13.1907 -13.9799 -11.3981 -11.7243 -6.939 -8.202001 -8.202001 -8.7815 -8.7815 -4.9285 -8.7745 -8.484 -10.2645 -15.4449 -17.1149 -14.356 -11.9115 
-17.5456 -13.9799 -15.2594 -11.7243 -12.7561 -8.202001 -13.0529 -8.7815 -10.5135 -8.7745 -13.0442 -10.2645 -17.0074 -20.2479 -18.7449 -14.356 
-3.1335 -1.7695 -3.711 -2.186 -4.1685 -3.5505 -1.7695 -4.39 0 -4.421 -1.7695 -4.4225 0 -3.5015 -1.7695 -4.1695 0 -4.0215 -2.0935 -1.4985 -4.05 0 -3.4005 -1.7695 -1.4985 -4.23 -3.1385 0 
-4.809 -5.8935 -6.275001 -5.75 -7.6245 -5.7115 -4.907 -4.39 -4.421 -6.3895 -5.08 -4.4225 -3.5015 -4.5585 -5.2185 -4.1695 -4.0215 -5.987 -2.9725 -5.212 -4.05 -3.4005 -5.559 -2.7955 -5.015 -5.86 -3.1385 
-8.7115 -7.9535 -9.867001 -9.468 -8.274 -7.0115 -4.907 -8.5725 -6.3895 -7.7675 -5.08 -9.2225 -4.5585 -6.9225 -5.2185 -9.460001 -5.987 -6.9005 -6.7345 -5.212 -7.345 -5.559 -6.6635 -6.036 -6.8395 -5.86 
-10.281 -11.7185 -13.7908 -9.9735 -10.1496 -7.0115 -9.005501 -11.086 -7.7675 -7.7675 -10.064 -10.5407 -6.9225 -6.9225 -10.1185 -12.0251 -6.9005 -9.307 -6.7345 -9.167001 -9.691 -6.6635 -8.656 -7.932001 -6.8395 
-14.6466 -15.6423 -14.2963 -11.8845 -10.1496 -11.5448 -11.7096 -12.464 -7.7675 -13.5249 -11.5188 -12.9047 -6.9225 -12.1277 -13.1264 -12.9386 -9.307 -9.307 -10.5975 -11.7702 -10.6755 -8.656 -10.316 -7.932001 
