-4.759 
n/a 
n/a 
n/a 
n/a 
-4.759 
n/a 
n/a 
n/a 
n/a 
-4.759 
n/a 
n/a 
n/a 
n/a 
-4.759 
n/a 
n/a 
n/a 
n/a 
-1.4985 -4.677 -1.7565 -4.3055 -7.788001 -2.186 -4.99 -1.934 -7.872 0 -5.7725 0 
-5.4395 -5.666 -6.1225 -10.1035 -10.1855 -5.502 -5.477 -9.579 -7.872 -5.7725 -5.7725 
-6.02 -8.251 -10.5325 -12.501 -13.5015 -5.947001 -13.8446 -9.579 -10.1225 -5.7725 
-8.722501 -13.232 -12.93 -15.817 -13.9465 -14.42 -13.8446 -11.8787 -10.1225 
-13.6965 -15.6295 -16.246 -16.262 -22.4195 -14.42 -16.1443 -11.8787 
-18.69272 -8.7285 0 -5.7725 0 
-28.16942 -8.7285 -5.7725 -5.7725 
-28.16942 -10.9575 -5.7725 
-30.39842 -10.9575 
-30.39842 
-16.79772 -8.7285 0 -5.7725 0 
-21.47772 -8.7285 -5.7725 -5.7725 
-21.47772 -10.9575 -5.7725 
-23.79032 -10.9575 
-23.79032 
-20.04172 0 -5.7725 0 
-20.04172 -5.7725 -5.7725 
-22.29222 -5.7725 
-22.29222 
n/a 
