-4.759 
n/a 
n/a 
n/a 
n/a 
-4.759 
n/a 
n/a 
n/a 
n/a 
-4.759 
n/a 
n/a 
n/a 
n/a 
-4.759 
n/a 
n/a 
n/a 
n/a 
-1.4985 -7.235 -3.9075 -4.1205 -4.928 -2.3345 -6.102 
-8.3795 -8.561 -8.7665 -7.535 -7.485001 -7.76 
-8.897501 -13.7412 -10.259 -8.207001 -9.506001 
-14.1881 -15.2337 -11.0836 -9.75 
-15.6806 -16.0583 -12.6266 
-1.4985 -6.4185 -6.05 -3.152 -7.7085 -1.756 -4.8485 -1.4985 -7.400001 
-6.940001 -13.3451 -8.974 -10.575 -9.449 -6.1355 -6.171 -7.988001 
-14.81 -16.2691 -16.531 -12.3155 -13.8609 -7.410501 -13.3417 
-17.734 -23.8261 -18.2715 -16.7274 -15.1359 -14.7062 
-25.291 -25.5666 -22.6834 -18.0024 -22.4316 
-4.1865 -4.245 -2.229 -4.6085 -1.4985 -3.9075 -7.400001 0 
-7.2875 -7.2375 -6.882 -6.9165 -4.9185 -8.524 -7.400001 
-10.389 -12.3439 -9.515 -10.6375 -8.823 -8.524 
-15.4954 -14.9769 -13.236 -14.542 -8.823 
-18.1284 -18.6979 -17.1405 -14.542 
-4.6085 -1.7565 -8.712001 -3.9075 -5.355 -5.3255 -2.7455 -4.245 0 
-5.187 -10.884 -9.906001 -8.8475 -10.9855 -8.040001 -7.009 -4.245 
-15.4325 -12.078 -15.1014 -14.9554 -13.7 -13.1131 -7.009 
-16.6265 -17.2734 -21.2093 -17.6699 -18.7731 -13.1131 
-21.8219 -23.3813 -23.9238 -22.743 -18.7731 
