-4.759 
n/a 
n/a 
n/a 
n/a 
-4.759 
n/a 
n/a 
n/a 
n/a 
-4.759 
n/a 
n/a 
n/a 
n/a 
-4.759 
n/a 
n/a 
n/a 
n/a 
-5.063 -3.557 -3.6215 -3.091 -4.6515 
-8.0865 -6.8145 -6.012 -6.0835 
-11.9106 -8.580501 -6.732 
-13.6766 -9.992001 
-15.0881 
-5.063 -4.0645 -2.5045 -3.091 -4.6515 
-9.6185 -5.763 -5.2025 -6.0835 
-11.4942 -9.419001 -9.0395 
-15.1502 -13.2798 
-19.011 
-5.063 -4.07 -1.4985 -4.6515 0 
-8.849501 -5.3895 -5.6005 -4.6515 
-9.774 -7.729001 -5.6005 
-10.6495 -7.729001 
-10.6495 
-5.063 -3.557 -3.6215 -1.4985 -4.6515 
-8.0865 -6.8145 -4.094 -5.6005 
-11.9106 -7.1 -6.7545 
-12.1961 -9.4975 
-14.5936 
