-4.759 
n/a 
n/a 
n/a 
n/a 
-4.759 
n/a 
n/a 
n/a 
n/a 
-4.759 
n/a 
n/a 
n/a 
n/a 
-4.759 
n/a 
n/a 
n/a 
n/a 
-3.228 -4.763 -1.7565 -2.9965 -4.184 -4.153 
-7.303 -5.1985 -5.048 -5.8575 -5.8855 
-7.401 -9.6705 -7.624001 -6.35 
-12.1794 -12.2883 -7.7875 
-14.7972 -12.4518 
-4.6285 -4.126 -1.7565 -4.602 -4.153 
-8.9445 -5.221001 -6.552001 -5.112 
-9.6515 -10.3965 -6.637001 
-14.9588 -10.622 
-15.1843 
-1.934 -1.4985 -5.4505 -1.7565 -2.9965 -1.4985 -4.153 
-2.6125 -6.219 -7.109001 -5.048 -5.3215 -5.581 
-6.348001 -7.829 -10.3675 -7.114 -9.428 
-8.7045 -10.411 -12.6691 -11.3987 
-11.5351 -12.7256 -16.9538 
-3.498 -1.7565 -1.4985 -4.602 -4.153 
-4.005 -2.4195 -5.3995 -5.112 
-4.3765 -5.785501 -5.5865 
-7.256001 -5.842 
-7.2775 
