-4.759 
n/a 
n/a 
n/a 
n/a 
-4.759 
n/a 
n/a 
n/a 
n/a 
-4.759 
n/a 
n/a 
n/a 
n/a 
-4.759 
n/a 
n/a 
n/a 
n/a 
-4.834 -3.2825 -3.299 -3.6045 -4.366 -5.3685 -3.59 
-6.4275 -6.358001 -4.5695 -7.776 -9.3725 -9.736 
-9.4665 -7.9645 -8.293501 -13.2567 -14.1332 
-9.929 -11.9849 -13.969 -18.0174 
-14.8534 -17.6604 -18.7297 
-3.59 -2.9705 -4.3845 -3.299 -3.6045 -1.7565 -4.366 -4.5145 0 
-6.172 -7.733001 -8.1255 -4.5695 -4.455 -5.715 -6.601501 -4.5145 
-11.4681 -10.6605 -8.5055 -6.272 -8.684501 -7.996 -6.601501 
-14.3956 -11.0405 -10.0035 -10.1675 -10.111 -7.996 
-14.7756 -12.5385 -14.481 -11.7388 -10.111 
-3.1435 -4.9975 -3.188 -2.229 -3.299 -3.391 -4.366 0 
-7.084001 -8.063001 -4.279 -5.412 -6.241 -8.577001 -4.366 
-10.494 -10.1385 -8.1195 -8.4585 -9.915501 -8.577001 
-12.5695 -14.0766 -10.733 -12.2156 -9.915501 
-16.5076 -16.6901 -14.4901 -12.2156 
-1.4985 -3.59 -2.9705 -4.3845 -3.299 -3.6045 -4.366 -5.678 -1.934 -1.4985 -3.188 0 
-4.268 -6.172 -7.733001 -8.1255 -4.5695 -7.776 -8.843 -7.711 -2.6125 -3.619 -3.188 
-6.6505 -11.4681 -10.6605 -8.5055 -8.293501 -12.7272 -10.186 -8.3085 -4.377 -3.619 
-12.0634 -14.3956 -11.0405 -12.4623 -13.4395 -14.0702 -10.9863 -10.362 -4.377 
-14.9909 -14.7756 -14.9973 -17.6083 -14.7825 -14.8705 -13.0398 -10.362 
