-4.759 
n/a 
n/a 
n/a 
n/a 
-4.759 
n/a 
n/a 
n/a 
n/a 
-4.759 
n/a 
n/a 
n/a 
n/a 
-4.759 
n/a 
n/a 
n/a 
n/a 
-1.934 -2.3615 -4.241 -4.3285 -2.925 -2.674 -5.217 -2.985 -6.818501 -1.934 -4.1855 0 -3.506 -4.748 -3.43 -4.318 -4.5115 
-3.539 -7.085501 -8.132501 -7.2005 -4.1785 -9.303 -6.812 -9.513 -8.258 -5.408 -4.1855 -3.506 -6.397 -8.912001 -7.686 -8.252501 
-8.4805 -11.3514 -11.5789 -8.515501 -11.0817 -10.9658 -14.1828 -10.6755 -11.9688 -5.408 -7.5535 -6.397 -11.2968 -13.5904 -12.2099 
-12.936 -14.7978 -12.8939 -15.5515 -12.7445 -18.3366 -15.3453 -14.3863 -11.9688 -9.68 -10.7305 -11.2968 -15.9752 -18.1143 
-16.3824 -16.1128 -19.9299 -17.2143 -20.1153 -19.4991 -19.0561 -14.3863 -16.2408 -12.9884 -15.6303 -15.9752 -20.4991 
-4.5845 -4.3145 -3.251 -2.5195 -4.241 -4.431 -2.5195 -3.9535 -4.5115 -2.5195 -4.1855 -3.506 -2.855 0 
-8.891001 -6.2885 -5.146 -7.104 -6.247 -7.0135 -8.288 -9.644001 -6.4665 -6.1845 -7.5535 -5.4355 -2.855 
-10.6605 -7.931001 -9.468 -8.9715 -8.6835 -13.216 -14.5365 -11.9056 -10.459 -10.443 -9.807001 -5.4355 
-12.303 -12.6624 -10.5545 -11.548 -15.2402 -19.4645 -16.7981 -15.8981 -15.2017 -12.6965 -9.807001 
-17.0344 -13.7489 -13.131 -18.1047 -21.4887 -21.7261 -20.7906 -20.6408 -17.4552 -12.6965 
-6.144 -4.957 -3.8515 -2.5195 -2.3615 -4.241 -4.431 -1.756 -3.9535 -3.3715 -4.5115 -2.5045 -1.4985 -3.158 -1.7565 -4.1855 0 -3.506 -2.855 0 
-10.0855 -6.1185 -4.4615 -4.4095 -7.085501 -6.247 -6.1095 -5.4855 -7.4185 -7.4025 -6.904 -3.1915 -4.178 -4.71 -6.055501 -4.1855 -3.506 -5.4355 -2.855 
-11.7054 -6.676001 -6.3015 -9.364 -10.078 -7.729 -10.19 -9.031501 -11.9109 -9.732 -7.4655 -6.7915 -5.562 -8.341001 -6.055501 -7.5535 -5.4355 -5.4355 
-12.2629 -8.258 -11.4372 -12.3663 -11.7146 -10.7495 -13.736 -13.5081 -14.2404 -10.318 -11.4945 -8.347501 -9.028 -8.341001 -9.933001 -9.807001 -5.4355 
-13.8449 -13.6315 -14.4395 -14.0029 -14.7351 -14.2955 -18.2126 -15.8376 -14.8264 -14.347 -13.0505 -11.9417 -9.028 -12.4807 -12.1865 -9.807001 
-5.3745 -1.7565 -4.891 -5.84 -2.5195 -2.3615 -3.6205 -1.756 -2.925 -3.9535 -4.697 -1.756 -3.593 -1.7565 -4.5115 -2.5195 -3.506 -2.855 -4.1855 
-6.2675 -7.001501 -10.038 -6.4715 -4.4095 -5.509501 -4.9985 -4.2585 -5.863 -9.0065 -6.527 -6.2615 -4.507 -6.131001 -6.4665 -5.8085 -5.4355 -6.6515 
-9.7705 -12.7883 -10.353 -8.5295 -7.715 -6.8415 -7.494 -7.0775 -10.688 -10.9115 -11.7771 -7.336 -7.116 -7.785501 -10.1 -7.785 -8.401001 
-16.8187 -13.1033 -12.5808 -12.1232 -9.0515 -9.1835 -10.533 -12.0767 -12.593 -16.1616 -12.8516 -10.5325 -9.088501 -11.6332 -12.1993 -11.1143 
-17.1337 -15.3311 -16.1745 -13.4597 -11.4863 -12.2959 -15.5322 -13.9817 -17.8431 -17.2361 -16.0481 -12.505 -13.1114 -13.7325 -15.5286 
