-4.759 
n/a 
n/a 
n/a 
n/a 
-4.759 
n/a 
n/a 
n/a 
n/a 
-4.759 
n/a 
n/a 
n/a 
n/a 
-4.759 
n/a 
n/a 
n/a 
n/a 
-3.1495 -3.974 -1.7695 -4.2485 -1.7695 -4.418 -2.7455 -3.383 -3.818 0 
-8.1245 -5.6775 -6.549 -6.2815 -6.608 -7.1025 -6.9705 -5.4155 -3.818 
-10.4505 -10.757 -8.9445 -11.8728 -10.223 -12.2503 -9.519001 -5.4155 
-15.53 -13.1525 -14.5518 -15.4878 -15.3708 -14.7988 -9.519001 
-17.9255 -18.7598 -18.1668 -20.6356 -17.9193 -14.7988 
-2.3615 -3.4515 -2.645 -4.2595 -1.7695 -5.1225 -1.4985 -5.473 -4.1445 0 
-5.9225 -6.1615 -5.258 -4.663 -5.476 -5.8005 -6.811501 -7.984 -4.1445 
-9.915501 -9.0305 -5.727 -7.1795 -6.094501 -11.8409 -8.8395 -7.984 
-12.9663 -9.451 -8.181001 -7.9255 -12.1763 -13.8689 -8.8395 
-13.3868 -12.184 -8.958501 -14.2471 -14.2043 -13.8689 
-2.3615 -3.974 -2.186 -4.2595 -1.7695 -2.489 -4.621 -1.934 -4.008 0 
-5.7455 -5.62 -5.239 -4.663 -3.1405 -5.579 -5.5115 -6.551 -4.008 
-6.4805 -8.4185 -5.420001 -6.7065 -6.149 -6.4475 -8.889 -6.551 
-9.013 -8.54 -7.399001 -9.88 -7.172 -9.828 -8.889 
-9.1575 -10.702 -10.7571 -10.371 -10.3155 -9.828 
-7.626 -3.074 -3.6065 -3.9755 
-10.66 -6.782001 -5.153 
-14.368 -8.2375 
-15.8235 
n/a 
