-4.759 
n/a 
n/a 
n/a 
n/a 
-4.759 
n/a 
n/a 
n/a 
n/a 
-4.759 
n/a 
n/a 
n/a 
n/a 
-4.759 
n/a 
n/a 
n/a 
n/a 
-2.264 -3.8735 -2.229 -4.675 -3.7575 -1.4985 -4.4505 -3.8935 -2.7415 -3.8535 -2.3345 -4.8625 0 
-6.4265 -5.3655 -6.9995 -7.5085 -5.52 -5.694 -7.643 -6.2305 -5.279 -5.069 -7.049001 -4.8625 
-7.026 -9.925501 -9.696 -9.633 -9.903501 -9.0415 -9.398001 -8.4385 -6.214 -9.366001 -7.049001 
-10.403 -12.622 -11.8625 -14.0997 -13.2082 -10.8747 -11.6898 -8.9615 -10.1465 -9.366001 
-13.0995 -14.7885 -16.3292 -17.4044 -15.0414 -13.1665 -12.2128 -12.894 -10.1465 
-2.9805 -3.074 -4.5715 -2.5685 -1.4985 -4.8625 -2.5195 -4.693 -3.4425 -1.7695 -4.9475 -4.4505 -1.756 -2.9645 -2.4265 
-4.8805 -6.8175 -7.5105 -3.7015 -5.7415 -7.1285 -6.981 -6.604001 -5.2885 -5.884501 -8.5185 -5.5305 -4.5175 -4.692 
-7.838 -9.5035 -8.297001 -7.832 -7.8805 -12.0262 -9.505 -8.639501 -9.655001 -9.659 -10.4265 -8.859 -5.739 
-10.621 -10.398 -12.7963 -9.737 -12.9188 -14.5502 -10.6485 -13.1232 -13.4333 -10.759 -13.755 -9.686001 
-11.5155 -14.8973 -14.7013 -14.8629 -15.4428 -15.6937 -15.1322 -16.9015 -14.5333 -14.0875 -14.582 
-1.756 -2.9805 -4.8275 -1.7695 -1.4985 -3.1385 -2.264 -1.4985 -4.197 -1.7695 -4.6045 -4.4505 -2.0935 -2.985 -3.5205 -2.9645 
-4.3555 -6.674001 -5.604001 -2.7955 -4.2575 -5.179501 -2.9195 -5.2175 -5.6925 -5.082 -9.005001 -6.891 -4.3315 -4.257 -6.2065 
-7.862 -8.7325 -7.836501 -5.4345 -6.2375 -5.646 -6.1495 -6.781 -9.487 -9.352501 -10.3355 -9.131001 -5.5795 -6.8975 
-9.710001 -10.4505 -10.532 -7.43 -6.597 -8.6 -7.969001 -10.0405 -13.7713 -10.6225 -12.5755 -10.342 -6.981501 
-11.428 -13.146 -12.5275 -7.7415 -9.214001 -10.1945 -11.3805 -14.3248 -15.0413 -12.8625 -13.7865 -10.7145 
-4.8215 0 -2.9805 -4.417 -1.4985 -3.1385 -3.0695 -2.4945 -5.5495 -3.9485 -1.4985 -4.1115 -4.675 -1.7695 -4.3245 -4.4505 -1.756 -3.985 -2.4265 -2.3345 -4.2315 0 
-4.8215 -2.9805 -6.758 -5.852 -4.2575 -4.286 -4.2085 -7.365 -8.448501 -4.537 -4.843 -6.957001 -6.6895 -4.714 -8.578 -5.5305 -5.222 -5.673 -4.908 -5.927 -4.2315 
-6.8735 -6.758 -7.673 -9.2635 -5.1225 -5.128 -7.981501 -10.6215 -8.561001 -7.352 -7.203 -8.720501 -9.852 -8.8345 -9.5605 -10.038 -6.638 -7.985 -7.783 -5.927 
-10.7335 -7.673 -10.2485 -10.758 -6.092 -9.294001 -11.9186 -10.77 -11.6998 -8.498501 -8.8085 -12.0948 -14.1561 -9.7615 -14.2738 -10.3155 -8.651501 -9.955501 -7.783 
-11.6485 -10.2485 -11.7818 -11.7275 -9.966001 -13.4567 -12.0671 -13.9088 -12.8463 -9.820001 -12.228 -16.3989 -15.0831 -14.6244 -14.5513 -12.329 -11.1012 -9.955501 
