-4.759 
n/a 
n/a 
n/a 
n/a 
-4.759 
n/a 
n/a 
n/a 
n/a 
-4.759 
n/a 
n/a 
n/a 
n/a 
-4.759 
n/a 
n/a 
n/a 
n/a 
-4.7535 -6.965 -8.052 -3.152 -4.645 -2.3345 -3.499 -1.7565 -4.5375 -4.304 
-12.1617 -16.3636 -10.368 -6.427 -5.881001 -5.5855 -4.306 -5.984001 -6.076 
-21.5603 -18.6796 -13.643 -7.4925 -7.893001 -5.7515 -8.176001 -8.040501 
-23.8763 -21.9546 -14.7085 -9.518001 -8.1575 -9.953001 -8.700001 
-27.1513 -23.0201 -16.734 -9.851501 -10.66 -10.5575 
-4.698 -2.8645 -3.1125 -4.536 -4.7005 -3.4185 -1.7565 -3.1715 -1.7565 -3.499 
-6.5245 -3.5345 -6.011001 -10.733 -8.6315 -4.2475 -4.5595 -4.207 -5.2975 
-7.099501 -6.352 -13.1604 -14.664 -10.533 -7.7935 -6.175 -9.210001 
-10.76 -13.6068 -17.0914 -16.5655 -14.079 -9.4335 -10.4675 
-18.0148 -17.5378 -18.9929 -20.1115 -15.719 -13.6588 
-4.7535 -6.965 -5.8395 -3.499 -2.4945 -4.645 -3.3255 -3.1715 -6.6535 
-12.1617 -10.821 -9.377001 -5.2055 -6.212501 -7.739501 -6.611501 -8.717501 
-16.0177 -14.3585 -11.3485 -6.9405 -8.3925 -10.7495 -12.9241 
-19.5552 -16.33 -13.0835 -8.8505 -11.6603 -17.0621 
-21.5267 -18.065 -14.9935 -12.5467 -17.9729 
-4.7535 -6.965 -5.8395 -3.499 -2.4945 -4.645 -3.3255 -3.1715 -6.6535 
-12.1617 -10.821 -9.377001 -5.2055 -6.212501 -7.739501 -6.611501 -8.717501 
-16.0177 -14.3585 -11.3485 -6.9405 -8.3925 -10.7495 -12.9241 
-19.5552 -16.33 -13.0835 -8.8505 -11.6603 -17.0621 
-21.5267 -18.065 -14.9935 -12.5467 -17.9729 
