-4.759 
n/a 
n/a 
n/a 
n/a 
-4.759 
n/a 
n/a 
n/a 
n/a 
-4.759 
n/a 
n/a 
n/a 
n/a 
-4.759 
n/a 
n/a 
n/a 
n/a 
-1.934 -5.696 -3.436 -4.8525 -5.59 -3.0365 -3.152 -7.674 -4.938 -2.4285 -8.2305 -3.1385 -4.657 -1.934 -2.3615 -5.213 0 
-7.0905 -9.4245 -6.311501 -9.913 -8.2075 -4.453 -9.121501 -10.584 -7.203 -11.6172 -9.6175 -6.756001 -5.156 -3.539 -6.9075 -5.213 
-10.071 -12.4884 -11.8288 -13.5647 -9.3 -9.135 -14.4093 -13.8104 -17.3469 -13.0042 -13.3526 -7.137 -6.843 -8.189501 -6.9075 
-13.2443 -18.0057 -15.4805 -14.6572 -14.0209 -15.0475 -17.4411 -23.9543 -18.7339 -16.7393 -13.7336 -8.828501 -12.3893 -8.189501 
-18.7616 -21.6574 -16.573 -19.3781 -20.0003 -17.8615 -27.585 -25.3413 -22.469 -17.1203 -15.4251 -14.5378 -12.3893 
-4.819 -1.934 -5.696 -3.034 -1.4985 -8.795501 -3.0465 -3.222 -2.3615 -5.213 -3.0365 -7.674 -5.2135 -3.152 -3.8245 -3.2295 -3.0365 0 
-6.636 -7.0905 -8.408501 -3.947 -9.572001 -10.9575 -5.0985 -5.0795 -6.9075 -7.6745 -10.228 -11.695 -7.175 -6.242001 -7.487 -5.5585 -3.0365 
-12.1283 -8.835501 -8.981501 -12.3413 -11.7372 -13.0095 -6.6695 -9.468 -9.076 -15.9122 -17.2518 -14.2509 -9.4785 -9.225 -8.6295 -5.5585 
-13.8733 -9.380501 -17.538 -14.5065 -13.7892 -14.5805 -10.7495 -11.7589 -17.4895 -22.61 -19.3079 -16.5544 -12.4881 -9.778001 -8.6295 
-14.4183 -17.9522 -19.7032 -16.5585 -15.3602 -18.6605 -13.0404 -20.1724 -24.1873 -24.6661 -21.6114 -19.564 -13.0411 -9.778001 
-5.696 -2.186 -1.4985 -3.0835 -3.982 -3.8245 -7.674 -4.9225 
-8.7585 -3.339 -3.535 -6.45 -8.357 -10.129 -10.8475 
-9.749001 -4.8925 -6.702001 -10.6465 -15.6589 -15.8395 
-11.3025 -7.913 -10.7025 -17.9484 -20.8644 
-14.323 -12.2473 -18.0044 -23.1539 
-1.934 -5.696 -3.0835 -2.95 -5.59 -3.511 -2.356 -4.211 -2.3335 -4.2305 -1.7565 -7.674 -3.511 -1.4985 -4.9225 0 
-7.0905 -8.9195 -4.3945 -8.4515 -8.47 -5.258 -8.1125 -5.5735 -6.285 -5.3675 -7.352001 -8.482 -5.473001 -6.040501 -4.9225 
-10.089 -10.5463 -9.611501 -11.6929 -10.061 -11.7951 -10.041 -9.903 -8.7115 -9.459001 -11.315 -12.6755 -9.814501 -6.040501 
-11.8188 -15.7633 -12.9707 -13.2839 -16.7097 -13.7236 -14.7205 -12.3295 -13.1663 -12.9115 -13.0081 -16.8804 -9.814501 
-17.0358 -19.1225 -14.5617 -19.9326 -18.6382 -18.4031 -17.147 -16.7843 -16.6127 -16.324 -18.6854 -16.8804 
