-4.759 
n/a 
n/a 
n/a 
n/a 
-4.759 
n/a 
n/a 
n/a 
n/a 
-4.759 
n/a 
n/a 
n/a 
n/a 
-4.759 
n/a 
n/a 
n/a 
n/a 
-2.857 -3.8085 -3.9355 -1.934 -6.178 
-7.475 -9.331501 -5.415 -8.3865 
-13.6614 -10.4865 -12.6405 
-14.8164 -17.712 
-22.0419 
-2.857 -3.778 -4.4275 -1.934 -9.223001 
-6.5195 -8.714001 -5.6585 -11.117 
-12.2659 -9.588501 -15.7079 
-13.1404 -19.8797 
-23.4316 
-6.178 -1.934 -2.857 -4.7895 -3.845 
-7.908501 -4.104 -8.1555 -9.6975 
-10.168 -9.125501 -13.3307 
-15.1895 -14.5139 
-20.5779 
-7.093 -1.934 -2.857 -4.357 -4.8125 
-9.696001 -4.104 -5.752 -9.418501 
-11.8388 -7.328001 -12.9065 
-15.0628 -15.9571 
-23.6919 
