-4.759 
n/a 
n/a 
n/a 
n/a 
-4.759 
n/a 
n/a 
n/a 
n/a 
-4.759 
n/a 
n/a 
n/a 
n/a 
-4.759 
n/a 
n/a 
n/a 
n/a 
-3.17 -1.7565 -1.4985 -6.102 -2.4945 -3.8245 -1.934 -3.8735 
-4.179 -2.4195 -6.931001 -7.5675 -5.751 -4.7245 -4.885 
-4.497 -7.545501 -8.4785 -9.975 -6.158 -7.5845 
-9.3055 -9.347001 -10.9692 -10.3085 -8.965 
-10.317 -11.8719 -11.3027 -13.1155 
-3.17 -1.7565 -1.4985 -6.102 -3.511 -1.934 -3.8735 -4.179 
-4.179 -2.4195 -6.931001 -8.9125 -4.582 -4.885 -7.913 
-4.497 -7.545501 -10.233 -9.1385 -7.573 -8.424001 
-9.3055 -10.9569 -10.451 -9.886001 -11.5994 
-12.8595 -11.1749 -11.1985 -14.0906 
-3.17 -1.7565 -1.4985 -6.102 -2.4945 -4.657 -1.934 -3.8735 -6.2985 
-4.179 -2.4195 -6.931001 -7.5675 -7.751 -5.156 -4.885 -8.607 
-4.497 -7.545501 -8.4785 -13.086 -8.294001 -7.9125 -10.0185 
-9.3055 -9.347001 -14.0802 -13.629 -11.3511 -13.5858 
-10.317 -14.9829 -14.6232 -16.6861 -17.0244 
-3.17 -1.7565 -5.1875 -2.229 -2.4945 -4.657 -1.934 -3.8735 0 
-4.179 -6.68 -7.694 -5.159 -7.751 -5.156 -4.885 -3.8735 
-9.651501 -8.989 -9.367001 -10.6659 -8.294001 -7.9125 -4.885 
-12.3661 -10.9808 -14.9363 -11.2089 -11.3511 -7.9125 
-14.3579 -16.5501 -15.4793 -14.266 -11.3511 
