-4.759 
n/a 
n/a 
n/a 
n/a 
-4.759 
n/a 
n/a 
n/a 
n/a 
-4.759 
n/a 
n/a 
n/a 
n/a 
-4.759 
n/a 
n/a 
n/a 
n/a 
-3.6885 -3.893 -1.7565 -3.213 -4.8445 
-5.689 -4.1785 -4.667 -8.000501 
-5.7245 -6.162 -9.458 
-7.758501 -11.874 
-13.5881 
-3.3715 -4.816 -1.7565 -4.079 -1.7695 -4.5915 0 
-7.823001 -5.872001 -5.819 -5.261 -5.579 -4.5915 
-9.054001 -10.7261 -8.952001 -8.982 -5.579 
-14.0601 -13.8591 -12.803 -8.982 
-17.1931 -17.7101 -12.803 
-2.674 -3.962 
-4.902 
n/a 
n/a 
n/a 
-4.246 -4.621 -2.356 -3.818 -3.213 0 
-8.056001 -6.687 -6.1855 -5.229 -3.213 
-10.031 -10.9533 -7.1685 -5.229 
-14.2973 -11.9363 -7.1685 
-15.2803 -11.9363 
