-4.759 
n/a 
n/a 
n/a 
n/a 
-4.759 
n/a 
n/a 
n/a 
n/a 
-4.759 
n/a 
n/a 
n/a 
n/a 
-4.759 
n/a 
n/a 
n/a 
n/a 
-3.3255 -9.290001 -2.229 -4.132 -2.4265 -4.3145 -2.5045 -1.8085 -3.6135 -5.4385 -3.1335 0 
-13.5799 -11.142 -5.7435 -6.827 -5.634 -7.3455 -3.3625 -4.4545 -8.967501 -8.05 -3.1335 
-15.4319 -14.6565 -8.185 -10.107 -9.219001 -8.548 -6.4455 -9.788 -12.0182 -8.05 
-18.9464 -17.098 -11.7286 -13.6818 -10.419 -11.8656 -11.986 -12.9277 -12.0182 
-21.3879 -20.6416 -15.3034 -14.8818 -13.7366 -17.4061 -15.1257 -12.9277 
-9.290001 -4.132 -3.2955 -1.7695 -3.6135 -3.4075 -6.331501 -4.2705 
-13.754 -8.5875 -3.9425 -5.829 -7.3865 -10.9575 -11.317 
-18.2095 -9.229 -8.318501 -9.182 -15.4049 -15.943 
-18.851 -13.8776 -11.9065 -17.446 -20.3904 
-23.4996 -17.4656 -20.1705 -22.4315 
-3.3255 -1.4985 -14.1545 -4.7725 -2.4265 -3.8535 -3.4075 -3.1335 
-3.8945 -16.09 -18.4779 -7.513 -5.799 -8.377501 -5.953 
-18.6084 -21.0643 -21.5988 -11.3565 -10.0345 -9.606 
-24.2725 -24.285 -25.4423 -15.592 -11.263 
-27.0498 -28.1285 -29.6778 -16.8205 
-2.4265 -2.7415 -3.4155 -3.0785 -2.0935 -1.4985 -4.248 -3.3255 -1.4985 -4.2245 -1.7565 -10.384 0 
-3.681 -5.3605 -6.1505 -5.116 -2.9725 -5.2845 -7.2155 -3.8945 -5.2345 -5.277 -13.0897 -10.384 
-5.846 -8.606001 -6.745 -6.37 -6.829 -9.3135 -7.9945 -8.530001 -5.753 -17.5304 -13.0897 
-9.277 -9.8065 -8.0755 -10.523 -11.0652 -10.3105 -12.9032 -9.361501 -18.4044 -17.5304 
-10.233 -11.6794 -12.4733 -14.7748 -12.0622 -15.2192 -13.7347 -22.4083 -18.4044 
