-4.759 
n/a 
n/a 
n/a 
n/a 
-4.759 
n/a 
n/a 
n/a 
n/a 
-4.759 
n/a 
n/a 
n/a 
n/a 
-4.759 
n/a 
n/a 
n/a 
n/a 
-3.2615 -5.134 -2.9805 -4.3895 -4.7175 -3.3435 0 
-8.4975 -7.540501 -6.418 -10.382 -8.264501 -3.3435 
-10.1385 -11.4962 -12.4403 -13.993 -8.264501 
-14.0942 -17.5185 -16.0513 -13.993 
-20.1165 -21.1295 -16.0513 
-5.134 -4.47 -6.963 -8.6215 
-10.647 -12.7966 -16.2743 
-18.9736 -22.1079 
-28.2849 
n/a 
-3.2615 -5.134 0 -2.9805 -4.3535 -1.8085 -3.3435 -1.7565 -6.5875 -2.5195 -3.8315 -3.849 -7.758 -9.27 0 
-8.4975 -5.134 -2.9805 -6.7985 -5.576 -4.977 -4.7005 -8.0885 -6.6175 -6.539001 -8.854 -9.9305 -17.6442 -9.27 
-8.4975 -7.540501 -6.7985 -8.0795 -8.889001 -5.805 -11.8713 -8.127501 -9.1355 -12.2521 -15.0667 -19.8167 -17.6442 
-10.1385 -11.8767 -8.0795 -11.6753 -9.998501 -13.7442 -11.9103 -10.275 -15.065 -18.4648 -24.9529 -19.8167 
-14.4747 -13.1577 -11.6753 -12.7848 -17.9377 -13.7832 -14.0578 -16.2045 -21.2777 -28.351 -24.9529 
-3.2615 -5.134 -3.158 0 -2.9805 -4.5295 -9.7665 
-8.4975 -9.132 -3.158 -2.9805 -6.540501 -15.2416 
-12.7913 -9.132 -5.5865 -6.540501 -17.72 
-12.7913 -11.9433 -9.333 -17.72 
-15.6026 -15.6898 -20.5713 
