-4.759 
n/a 
n/a 
n/a 
n/a 
-4.759 
n/a 
n/a 
n/a 
n/a 
-4.759 
n/a 
n/a 
n/a 
n/a 
-4.759 
n/a 
n/a 
n/a 
n/a 
-4.348 -3.9675 -2.186 -1.8085 -4.431 -3.9675 
-8.547001 -5.881001 -3.164 -5.6625 -7.661 
-10.543 -6.940001 -6.7585 -8.2395 
-11.602 -10.1765 -9.7405 
-14.8385 -13.2283 
-4.348 -3.9675 -2.186 -1.8085 -6.288 -3.9675 
-8.547001 -5.881001 -3.164 -8.088 -10.884 
-10.543 -6.940001 -9.642501 -12.8912 
-11.602 -13.8485 -14.5503 
-18.5105 -18.7563 
-7.037 -3.9675 -2.186 -1.8085 -4.431 -3.9675 
-11.7931 -5.881001 -3.164 -5.6625 -7.661 
-13.7066 -6.940001 -6.7585 -8.2395 
-14.7656 -10.1765 -9.7405 
-18.0021 -13.2283 
-4.348 -2.8645 -1.8085 -4.431 -3.9675 0 
-7.0035 -3.9785 -5.6625 -7.661 -3.9675 
-8.0155 -7.559 -8.2395 -7.661 
-11.8838 -10.013 -8.2395 
-14.3378 -10.013 
