-4.759 
n/a 
n/a 
n/a 
n/a 
-4.759 
n/a 
n/a 
n/a 
n/a 
-4.759 
n/a 
n/a 
n/a 
n/a 
-4.759 
n/a 
n/a 
n/a 
n/a 
-7.7025 
n/a 
n/a 
n/a 
n/a 
-6.844 -3.1385 -2.229 -4.4225 -3.6825 
-8.3995 -4.6125 -5.554 -5.3855 
-8.431001 -5.618001 -7.0595 
-8.670501 -7.567501 
-8.6765 
-6.844 -3.1385 -2.229 -4.4225 -3.6825 
-8.3995 -4.6125 -5.554 -5.3855 
-8.431001 -5.618001 -7.0595 
-8.670501 -7.567501 
-8.6765 
-5.1845 -5.8185 -1.756 -4.5845 -4.747 
-10.586 -6.9725 -6.5475 -9.223501 
-11.74 -12.2672 -11.5897 
-17.0347 -17.3094 
-22.0769 
