-4.759 
n/a 
n/a 
n/a 
n/a 
-4.759 
n/a 
n/a 
n/a 
n/a 
-4.759 
n/a 
n/a 
n/a 
n/a 
-4.759 
n/a 
n/a 
n/a 
n/a 
-3.1715 -3.2895 -3.6885 -4.492 -3.458 -3.402 -2.264 -4.388 -3.502 -1.756 -4.109 -3.5455 0 -1.756 -4.547 -1.7565 -5.233 -3.7495 -3.9875 -1.7695 -3.676 -2.229 -4.101 -3.8275 -1.934 -5.2615 
-7.373001 -7.8745 -7.784 -7.604 -8.623501 -3.793 -6.164001 -8.002501 -5.513 -5.2895 -7.7805 -3.5455 -1.756 -5.9165 -5.206501 -6.0185 -9.998001 -7.984001 -4.6185 -5.5605 -4.593 -5.734 -7.710001 -5.2615 -6.5215 
-11.9968 -12.1444 -11.7206 -13.3945 -8.851001 -7.7915 -10.1145 -10.575 -9.4285 -9.443001 -7.7805 -5.364501 -5.9165 -6.2825 -8.09 -11.2659 -14.4703 -9.129001 -9.101 -6.135 -8.7735 -9.137 -9.054501 -8.889 
-16.2667 -16.081 -17.5111 -13.622 -12.9859 -12.144 -12.805 -14.4905 -9.694 -9.443001 -8.844501 -10.3545 -6.2825 -9.882501 -13.6554 -15.7382 -15.6153 -13.7273 -9.349 -10.0005 -12.4039 -10.6803 -12.6846 
-20.2033 -21.8715 -17.7386 -17.7569 -17.3384 -14.8345 -16.7205 -14.756 -9.694 -10.611 -13.9507 -10.7205 -9.882501 -15.4465 -18.1277 -16.8832 -20.2136 -13.9753 -13.3435 -13.9193 -13.9472 -14.3104 
-3.9345 -1.7695 -5.36 -4.177 -3.458 -1.4985 -4.388 -1.756 -1.4985 -3.0435 -4.319 -1.756 -3.074 -1.4985 -4.9175 -2.229 -4.21 -4.3145 -5.2615 -3.9875 -1.7695 -1.4985 -3.676 -2.229 -4.101 -3.8275 0 
-3.94 -8.0375 -9.9405 -4.8925 -4.063 -6.139501 -5.273 -3.0405 -4.4865 -8.465 -5.9975 -4.566 -4.6505 -5.785501 -6.9925 -6.7475 -10.382 -9.610001 -10.4035 -4.6185 -2.7955 -6.125 -4.593 -5.734 -7.710001 -3.8275 
-10.494 -13.0456 -11.1294 -5.488 -8.753 -6.967501 -6.545 -6.0525 -9.304501 -10.674 -8.7655 -5.66 -9.178 -7.3715 -12.0706 -13.4817 -15.6775 -14.9882 -11.0345 -5.601 -7.397501 -6.428 -8.7735 -9.137 -7.710001 
-15.5021 -14.2345 -11.7249 -10.2435 -9.087 -8.660001 -9.277 -11.2015 -12.1519 -13.442 -10.0285 -10.5225 -10.9444 -12.7078 -18.8048 -18.7772 -21.0557 -15.6192 -12.017 -10.7758 -7.8005 -11.4583 -12.4039 -9.137 
-16.691 -14.83 -16.4804 -10.595 -10.1475 -11.4978 -15.1828 -14.0489 -14.9199 -14.705 -14.891 -12.2889 -16.2807 -19.442 -24.1003 -24.1554 -21.6867 -16.6017 -17.1918 -11.1788 -12.9544 -15.0887 -12.4039 
-2.5045 -3.9135 -2.5045 -1.4985 -3.2895 -1.7565 -3.468 -2.4945 -4.517 0 -1.4985 -4.919 -3.458 -1.4985 -4.5085 -3.502 -1.756 -4.109 -3.5455 -1.756 -1.4985 -4.547 -1.7565 -4.9175 -4.328 -4.172 -1.7695 -1.4985 -7.985001 -4.058 -3.8275 -1.934 -5.2615 -2.229 0 
-4.7835 -4.7585 -3.583 -4.862 -4.9075 -5.649 -5.546 -5.476 -4.517 -1.4985 -6.824 -6.0465 -4.063 -5.723001 -8.529501 -5.513 -5.2895 -7.7805 -5.364501 -3.0405 -5.4925 -5.206501 -6.714001 -9.4405 -8.202 -4.8625 -2.7955 -8.8885 -12.4126 -4.954 -5.2615 -6.5215 -6.865001 -2.229 
-4.848 -5.605 -7.251 -5.246 -7.891001 -7.5235 -8.106501 -5.476 -5.965 -6.824 -7.956001 -7.1235 -8.1665 -8.963 -9.6885 -9.4285 -9.443001 -8.844501 -6.5395 -6.7295 -5.726 -9.710501 -10.322 -13.4609 -8.727 -5.4245 -10.0925 -13.5511 -13.3086 -6.3775 -8.889 -8.308001 -6.865001 
-5.676 -8.8335 -7.528 -8.113 -9.922501 -10.2275 -8.106501 -6.8475 -11.5661 -7.956001 -8.292001 -11.8356 -10.3815 -9.872001 -13.7706 -9.694 -10.611 -9.255 -10.341 -6.849 -10.057 -13.5669 -14.3424 -13.9859 -9.0785 -13.3543 -14.8761 -14.4471 -14.7321 -9.243501 -10.7287 -8.308001 
-9.152 -9.0895 -10.2035 -10.2275 -12.7097 -10.2275 -9.1735 -12.5526 -12.6981 -8.292001 -13.1253 -14.0506 -10.415 -13.9803 -14.0361 -11.2742 -11.0215 -13.3541 -10.407 -11.309 -13.9886 -17.5873 -14.8674 -14.3374 -17.2815 -18.1379 -15.7721 -15.8706 -17.5981 -11.0898 -10.7287 
-2.5045 -4.751 -1.4985 -3.468 -3.2895 -1.4985 -5.808 -2.3335 -4.857 -2.9905 -3.458 -2.664 -9.083 -3.502 -1.756 -7.971001 -3.5455 -1.756 -1.4985 -4.547 -1.7565 -3.7495 -2.3335 -3.152 -4.005 -5.547 -4.172 -1.7695 -5.905 -4.058 -3.8275 -1.934 -5.2615 
-5.77 -6.018001 -5.0815 -6.582 -5.6195 -7.153001 -7.6205 -6.4075 -5.9905 -6.3985 -5.7735 -10.398 -12.7595 -5.513 -9.027 -12.1925 -5.364501 -3.0405 -5.4925 -5.206501 -5.262 -5.2015 -4.664001 -5.6565 -6.741 -9.354501 -4.8625 -6.4775 -8.479 -4.954 -5.2615 -6.5215 
-6.186 -9.573501 -7.876 -8.224501 -10.7335 -8.4975 -9.1405 -7.343501 -7.297 -9.207001 -13.2275 -14.8291 -15.5171 -13.381 -14.1595 -14.9975 -6.5395 -6.7295 -5.726 -8.931001 -6.335 -7.037001 -7.222 -8.17 -11.6699 -10.2246 -9.239 -8.71 -7.66 -6.3775 -8.889 
-9.639501 -12.6236 -10.2585 -13.5463 -12.078 -9.633501 -9.146501 -8.613501 -9.9975 -16.7356 -18.3804 -17.3919 -23.6417 -18.7483 -16.3867 -16.2853 -10.341 -6.849 -9.340501 -10.172 -8.212501 -10.126 -9.9005 -13.2537 -12.54 -14.1096 -11.757 -9.25 -8.89 -9.243501 
-12.7208 -15.0061 -15.5803 -14.8908 -13.214 -9.638 -9.990001 -11.4304 -17.5261 -21.8885 -20.7274 -25.5165 -28.7524 -20.9523 -17.6745 -20.0868 -10.407 -10.158 -10.4945 -12.1385 -11.3971 -13.0217 -15.0036 -14.1238 -16.425 -17.4197 -12.2626 -11.897 -13.067 
