-4.759 
n/a 
n/a 
n/a 
n/a 
-4.759 
n/a 
n/a 
n/a 
n/a 
-4.759 
n/a 
n/a 
n/a 
n/a 
-4.759 
n/a 
n/a 
n/a 
n/a 
-3.5455 -1.4985 -4.79 -4.153 0 -1.4985 -5.572 -1.7565 -7.4885 -3.251 -4.935 0 
-3.91 -5.6215 -6.2405 -4.153 -1.4985 -6.6905 -6.718 -9.320001 -9.921 -6.022 -4.935 
-7.7745 -6.6085 -6.2405 -5.544001 -6.6905 -6.853001 -15.0441 -11.9063 -12.7108 -6.022 
-8.191501 -6.6085 -7.490001 -10.107 -6.853001 -15.2535 -17.6304 -14.6961 -12.7108 
-8.191501 -7.614501 -12.2678 -10.1445 -15.2535 -17.8398 -20.4202 -14.6961 
-1.934 -4.79 -4.153 -12.16972 -4.6825 -2.4945 -4.5925 -4.9345 
-7.1915 -6.2405 -17.20532 -16.85222 -7.584001 -6.002501 -7.094 
-8.014501 -19.88722 -21.88782 -19.75372 -11.24 -8.649 
-22.05662 -24.56972 -24.78932 -23.40972 -13.8865 
-26.73912 -27.47122 -28.44532 -26.05622 
-5.5195 -1.7565 -12.16972 -2.4945 -4.7075 -1.934 -4.79 -4.153 
-6.442 -14.87542 -14.66422 -8.859001 -5.1835 -7.1915 -6.2405 
-20.19792 -17.36992 -21.02872 -9.359001 -11.1722 -8.014501 
-22.69242 -23.73442 -21.52872 -15.3281 -11.9952 
-29.05692 -24.23442 -27.49782 -16.1511 
-5.976501 -4.153 -2.8645 -3.849 -2.5045 -10.5065 -3.539 
-6.703001 -6.6785 -5.8645 -6.305 -13.9284 -14.0455 
-9.485001 -10.0815 -9.314 -17.8325 -17.4674 
-12.928 -13.524 -20.8381 -21.3715 
-16.3705 -25.0481 -24.3771 
