-4.759 
n/a 
n/a 
n/a 
n/a 
-4.759 
n/a 
n/a 
n/a 
n/a 
-4.759 
n/a 
n/a 
n/a 
n/a 
-4.759 
n/a 
n/a 
n/a 
n/a 
-3.0415 -3.324 -5.18 -3.013 -2.6165 -3.115 -2.3615 -4.663 0 
-7.443501 -7.877501 -7.7495 -3.724 -5.172501 -4.312 -8.1945 -4.663 
-10.674 -10.6964 -8.4575 -5.910501 -6.4615 -9.986 -8.1945 
-13.4929 -11.4044 -10.9438 -6.798501 -12.8065 -9.986 
-14.2009 -13.8907 -11.8318 -13.6943 -12.8065 
-2.3615 -4.0135 -1.7565 -4.2605 -2.6165 -3.115 -2.3335 -3.335 -4.794 0 
-5.1525 -4.201 -6.4385 -6.9665 -5.172501 -4.7415 -5.6145 -7.4715 -4.794 
-5.2165 -6.974 -9.198501 -9.788 -6.5785 -7.8385 -9.582001 -7.4715 
-7.314 -9.694 -12.0656 -11.287 -9.881001 -11.9504 -9.582001 
-10.0775 -12.5831 -13.5646 -14.5895 -13.9929 -11.9504 
-1.4985 -3.7455 -4.9445 -4.9225 -3.013 -5.651501 -3.5035 -2.3615 -4.0135 -5.8925 -4.683 
-5.021501 -9.255501 -11.117 -8.138 -8.529501 -8.804001 -5.5305 -5.1525 -10.884 -11.8369 
-10.1855 -15.7006 -14.3325 -13.1915 -12.146 -10.772 -9.1505 -12.958 -16.8284 
-17.8118 -18.9161 -19.386 -17.8114 -14.2981 -15.236 -18.1734 -18.9024 
-21.0273 -23.9696 -24.0059 -19.7331 -18.3729 -24.2589 -24.1178 
-3.4765 -5.18 -3.5745 -2.6165 -3.115 -2.3615 -4.2605 -1.7695 -4.397 0 
-9.257001 -8.057 -4.114 -5.172501 -4.312 -5.3675 -6.087 -5.136 -4.397 
-12.3452 -8.436001 -6.212 -6.4615 -8.378 -7.195 -8.644501 -5.136 
-12.7242 -10.8548 -7.5105 -9.4855 -10.0065 -9.2205 -8.644501 
-15.143 -12.1533 -10.341 -11.291 -12.186 -9.2205 
