-4.759 
n/a 
n/a 
n/a 
n/a 
-4.759 
n/a 
n/a 
n/a 
n/a 
-4.759 
n/a 
n/a 
n/a 
n/a 
-4.759 
n/a 
n/a 
n/a 
n/a 
-1.4985 -3.4425 -1.7565 -3.691 -2.186 -13.168 -5.7335 
-4.4545 -4.5535 -4.930501 -5.832 -13.8455 -15.3475 
-5.141 -8.118 -6.787001 -14.6235 -16.7723 
-9.13 -9.575001 -11.949 -16.6006 
-10.4115 -10.9405 -16.5311 
-3.691 -5.6125 -2.186 -13.168 -6.142 0 
-9.568001 -7.2155 -13.8455 -15.9755 -5.1775 
-11.4542 -15.7335 -17.7463 -15.0343 
-19.0502 -21.5336 -17.1321 
-25.7723 -21.5336 
-3.691 -2.229 -3.5085 -5.101 -3.4425 -2.186 -16.9535 
-5.0855 -5.5445 -8.2925 -6.176001 -5.194 -20.0267 
-7.802 -9.6285 -8.366 -8.0235 -22.5151 
-12.4872 -9.659 -9.6085 -26.0392 
-12.5177 -10.707 -27.7712 
-3.691 -2.229 -3.873 -3.4905 -2.186 -13.168 -6.116 -4.8565 0 
-5.0855 -5.8795 -7.058001 -5.4155 -13.8455 -16.603 -8.436501 -4.8565 
-8.453501 -9.689 -8.909 -13.4835 -18.0278 -17.6363 -8.436501 
-13.0622 -10.612 -16.6004 -20.0327 -19.7341 -17.9441 
-13.9852 -18.3034 -23.604 -22.3532 -19.7341 
