-4.759 
n/a 
n/a 
n/a 
n/a 
-4.759 
n/a 
n/a 
n/a 
n/a 
-4.759 
n/a 
n/a 
n/a 
n/a 
-4.759 
n/a 
n/a 
n/a 
n/a 
-3.1015 -2.3585 -2.7765 -4.929 -3.893 -5.007 -3.3255 -4.485 -2.4285 -4.485 -4.085 
-4.9025 -3.3835 -6.465 -9.4975 -8.845501 -7.854001 -7.597501 -6.501 -6.8035 -5.7135 
-5.325 -6.7635 -10.76 -14.682 -11.8431 -9.736001 -8.8415 -7.126 -7.074 
-8.837501 -11.4701 -15.9445 -17.6796 -13.7251 -11.0248 -9.537001 -7.1375 
-14.1037 -16.6546 -18.9421 -19.5616 -15.0139 -11.7203 -9.6485 
-3.1015 -3.587 -4.485 -1.756 -4.485 -4.085 -3.3255 -3.893 0 
-6.8335 -5.672 -5.993 -6.082 -5.7135 -7.6315 -7.150001 -3.893 
-9.4455 -7.0375 -7.181 -7.0115 -9.581 -11.8066 -7.150001 
-11.0656 -7.6675 -7.206 -11.279 -13.9137 -11.8066 
-11.6956 -7.6825 -11.7725 -15.6117 -13.9137 
-3.1015 -2.7295 -2.742 -3.047 -2.8705 -3.893 -3.4155 -3.3255 -3.587 -4.485 -2.4285 -4.485 -4.085 0 
-4.9525 -4.076 -4.9075 -4.8495 -7.326 -5.477 -6.8345 -6.933001 -5.672 -6.501 -6.8035 -5.7135 -4.085 
-6.4395 -5.7905 -7.3145 -9.234501 -9.4575 -8.703 -9.387 -7.668 -7.3925 -7.126 -7.074 -5.7135 
-7.835 -8.0165 -12.0251 -11.8848 -12.9857 -11.9623 -9.819 -9.366501 -7.834 -7.1375 -7.074 
-9.253 -12.9855 -14.6754 -15.413 -16.245 -12.3943 -11.5907 -10.1155 -7.8435 -7.1375 
-8.8855 -3.0465 -3.4155 -2.5195 -3.587 -4.485 -1.756 -4.485 -4.085 
-12.413 -6.9635 -5.650001 -5.632 -5.672 -5.993 -6.082 -5.7135 
-16.33 -7.837501 -8.471001 -7.513 -7.0375 -7.181 -7.0115 
-17.204 -11.0691 -9.395 -8.64 -7.6675 -7.206 
-20.4356 -11.9931 -10.2935 -9.547001 -7.6825 
