-4.759 
n/a 
n/a 
n/a 
n/a 
-4.759 
n/a 
n/a 
n/a 
n/a 
-4.759 
n/a 
n/a 
n/a 
n/a 
-4.759 
n/a 
n/a 
n/a 
n/a 
-3.8585 -1.7695 -3.6045 -1.7565 -4.138 -1.7565 -3.5015 
-5.565001 -5.706 -4.455 -6.081 -5.1845 -4.97 
-9.253 -6.9125 -9.7275 -8.298 -9.7094 
-10.038 -12.633 -12.2837 -12.8385 
-15.7585 -15.1892 -16.8242 
-1.4985 -3.5015 -3.3155 -3.127 -2.186 -4.49 -2.186 -4.4715 -4.127 -1.934 -3.324 -4.617 
-4.737 -5.1555 -6.490001 -4.6745 -5.414001 -7.17 -5.7085 -9.5375 -4.842 -5.885 -7.896 
-5.664001 -8.7155 -7.081501 -6.4045 -7.905001 -10.4945 -10.119 -10.128 -8.918 -10.5535 
-9.31 -9.224 -8.087001 -8.6955 -10.647 -15.3464 -10.6945 -14.239 -13.8849 
-9.915501 -9.599501 -9.8795 -11.5575 -16.0289 -15.9219 -14.8055 -19.2059 
-1.4985 -3.989 -4.11 -2.4945 -3.7855 -1.934 -1.4985 -4.2255 
-5.910501 -8.809501 -6.106 -5.125 -5.059 -2.6125 -5.178 
-9.8065 -10.9435 -8.2945 -5.843 -5.6785 -6.6115 
-11.9601 -13.132 -8.803 -6.478 -8.512501 
-14.1486 -13.6405 -9.469501 -9.144 
-3.9535 -3.7875 -1.934 -3.17 -1.7565 -3.333 -4.196 -3.991 
-7.3745 -6.4675 -4.8605 -4.179 -5.4455 -7.936 -7.245501 
-10.4425 -8.5305 -5.8795 -8.9025 -10.5635 -11.4619 
-12.5055 -10.6345 -10.858 -14.3541 -14.4984 
-14.6095 -15.613 -16.3096 -18.289 
