-4.759 
n/a 
n/a 
n/a 
n/a 
-4.759 
n/a 
n/a 
n/a 
n/a 
-4.759 
n/a 
n/a 
n/a 
n/a 
-4.759 
n/a 
n/a 
n/a 
n/a 
-1.934 -4.5735 -3.5215 -1.4985 -3.898 -1.7565 -5.1845 -3.6885 -1.934 -6.7865 -3.59 -3.251 -3.54 -3.9755 -1.7565 -3.8405 -7.5005 -1.7565 -5.066 -3.7515 -1.7565 -3.8405 -2.3615 -6.2055 -2.7415 -3.8755 0 
-5.86 -6.2465 -4.9585 -5.0465 -4.9795 -6.580501 -7.323501 -5.5135 -9.64 -9.611501 -6.5585 -5.9055 -5.8685 -4.312 -5.905 -12.3434 -10.0855 -6.270501 -7.943501 -4.6045 -5.905 -6.089 -10.0545 -9.058001 -5.065001 -3.8755 
-6.6365 -7.247 -8.2615 -5.3325 -9.765501 -8.634001 -9.102 -13.8283 -12.6076 -12.6024 -9.579 -8.9585 -5.9265 -9.365001 -15.0317 -14.9284 -14.6349 -9.663501 -9.1415 -10.4425 -8.842 -14.2172 -12.907 -11.5067 -5.065001 
-7.536 -10.8388 -8.847501 -9.9375 -10.7625 -9.856501 -17.5166 -16.7959 -15.5985 -15.6229 -12.6642 -8.996 -11.0307 -18.5997 -17.6167 -19.4778 -18.0279 -10.9391 -15.3983 -13.3795 -17.4624 -17.0697 -15.3557 -11.5067 
-11.1994 -11.4248 -13.6177 -10.9459 -11.985 -18.3341 -20.4842 -19.7868 -18.619 -18.7081 -12.7017 -14.1462 -20.2654 -21.1847 -22.1661 -22.8708 -19.3035 -17.1959 -18.3353 -21.9999 -20.3149 -19.5184 -15.3557 
-2.4265 -3.074 -4.1205 -2.3335 -2.4265 -3.768 -2.489 -3.881 -1.934 -1.4985 -4.255 -3.277 -1.7565 -1.4985 -5.1845 -8.753 -3.3155 -5.1845 -2.7415 -3.4625 -4.09 -2.3345 -7.259501 0 
-4.605 -6.0935 -5.9915 -3.913 -4.862 -4.333 -5.4125 -5.05 -2.6125 -4.974 -8.4245 -4.296 -2.4195 -6.5205 -9.245001 -10.784 -8.899 -8.745501 -5.288 -5.654 -4.8155 -8.8135 -7.259501 
-8.0845 -7.5915 -7.2895 -5.9855 -5.2105 -7.5745 -6.1895 -5.829 -5.28 -9.033501 -9.179501 -5.6255 -7.2335 -10.4345 -11.6558 -16.3675 -10.75 -11.4352 -7.337 -6.431 -11.9297 -8.8135 
-8.8795 -8.899 -8.5845 -6.3535 -8.187 -8.4205 -6.795 -8.269 -9.469 -9.370001 -9.465 -10.733 -10.7495 -12.8453 -17.2393 -18.2185 -13.4397 -13.4842 -8.297501 -13.8974 -11.9297 
-10.163 -10.254 -8.772 -10.057 -9.587 -8.783 -9.678801 -12.6572 -9.737 -9.616501 -14.6941 -14.249 -13.1603 -18.4288 -19.0903 -20.9082 -15.4887 -14.4447 -15.8811 -13.8974 
-1.934 -3.5905 -3.8405 -2.8645 -1.4985 -3.54 -5.1845 -4.922 -2.5045 -8.2205 -3.59 -3.898 -1.4985 -5.1845 -1.934 -3.307 -3.8405 -3.228 -2.3615 -3.452 -3.881 -2.3345 -3.7375 
-5.709 -8.3995 -6.226 -4.3545 -4.529 -8.802 -11.4009 -7.0325 -11.6424 -10.66 -7.6785 -5.7695 -6.5205 -7.9875 -6.0465 -8.293 -6.1575 -6.665501 -4.5465 -6.449 -4.5275 -7.0035 
-10.3285 -10.6605 -7.78 -7.8615 -9.677 -15.266 -13.5114 -16.5786 -14.0819 -14.7485 -9.7775 -11.2269 -9.767 -12.4002 -11.8767 -11.1574 -10.3745 -8.9455 -7.5775 -6.722 -10.1765 
-12.5895 -12.2145 -12.041 -13.2141 -16.3112 -17.3765 -23.0575 -19.0181 -18.1704 -16.8475 -15.2349 -14.4734 -14.2831 -18.2304 -14.7411 -15.3744 -12.6545 -12.3011 -7.7965 -12.8628 
-14.1435 -16.4755 -17.3936 -19.8483 -18.4217 -26.9226 -25.497 -23.1066 -20.2694 -22.3049 -18.4814 -18.9895 -20.1133 -21.0948 -18.9581 -17.6544 -16.0101 -12.5201 -14.1321 
-1.934 -4.2235 -3.5215 -8.2205 -5.6655 -2.8645 -4.196 -3.54 -8.753 -1.7695 -4.0545 -1.4985 -5.1845 -3.6885 0 -2.4265 -2.8645 -3.1125 -3.998 -2.3335 -2.3615 -3.452 -2.186 -3.881 -1.934 -1.4985 -3.6115 -6.933001 -3.8405 0 
-6.223 -7.473001 -11.1355 -14.6424 -8.6545 -5.5955 -7.3505 -10.4855 -10.543 -4.4685 -5.291 -6.5205 -7.323501 -3.6885 -2.4265 -4.1435 -3.5345 -6.564 -5.1075 -4.2805 -4.5465 -5.049 -5.3 -5.05 -2.6125 -4.081 -10.543 -8.9175 -3.8405 
-7.9205 -15.4942 -17.5574 -17.6314 -11.4871 -7.993 -14.6426 -12.2755 -13.242 -5.575 -10.468 -8.096001 -7.323501 -6.1715 -4.1435 -4.755 -7.146 -7.491 -6.572001 -6.6225 -5.4745 -6.856 -5.9715 -5.829 -4.958 -10.5745 -12.5275 -8.9175 
-16.0753 -21.9161 -20.5464 -20.464 -13.8846 -15.4613 -16.4326 -14.9745 -14.3485 -10.6875 -12.0435 -8.096001 -9.4615 -7.7005 -4.755 -7.705501 -8.068501 -8.976001 -8.463 -7.1505 -7.23 -7.4545 -6.6685 -8.069501 -12.0369 -12.559 -12.5275 
-22.4972 -24.9051 -23.379 -22.8615 -21.3529 -17.2513 -19.1316 -16.081 -19.461 -12.263 -12.0435 -9.878 -11.3905 -8.351501 -7.705501 -8.078 -9.403001 -10.8526 -9.9805 -8.7985 -8.021 -8.393001 -8.859 -15.7854 -14.0214 -12.559 
