-4.759 
n/a 
n/a 
n/a 
n/a 
-4.759 
n/a 
n/a 
n/a 
n/a 
-4.759 
n/a 
n/a 
n/a 
n/a 
-4.759 
n/a 
n/a 
n/a 
n/a 
-6.666 -4.07 -4.4385 -6.802001 -3.7075 -3.972 -4.201 -2.186 -6.485 -6.651 
-10.862 -7.070001 -12.1901 -11.4045 -7.6125 -7.625 -6.1715 -9.517 -13.8134 
-13.862 -15.1074 -16.7926 -15.3095 -11.9197 -10.275 -14.0323 -16.8454 
-21.8994 -19.7099 -20.6976 -19.6167 -14.5697 -18.3422 -21.3607 
-26.5019 -23.6149 -25.0048 -22.2667 -22.6369 -25.6706 
-4.347 -1.4985 -4.07 -4.877 -3.7075 -1.934 -3.1435 -4.3305 -3.1425 -2.674 -3.1125 -6.4865 -3.7805 -3.277 -3.8515 -2.5195 -1.4985 -3.307 -1.7565 -3.757 -2.229 -4.0325 
-6.1435 -5.664001 -7.375501 -9.105 -6.0775 -4.335 -8.076 -7.2935 -4.2225 -3.6315 -10.6045 -9.807501 -6.184 -6.2745 -4.4615 -3.1695 -4.581 -4.8035 -5.9375 -5.9575 -6.1 
-10.733 -8.741 -11.9239 -11.5894 -7.9655 -9.7705 -11.4276 -8.280001 -4.8755 -10.183 -12.573 -8.800501 -6.743 -6.784 -4.964 -5.8355 -5.081501 -9.186001 -8.0185 -9.7705 
-13.81 -13.3404 -14.4083 -13.4774 -13.788 -13.2679 -12.4141 -9.003 -10.4565 -12.687 -12.592 -9.2445 -7.467 -7.540501 -7.238501 -6.087 -9.500501 -11.3432 -12.2035 
-18.4094 -15.8248 -16.2963 -19.2999 -17.2854 -14.2544 -13.1371 -14.6481 -13.1625 -12.706 -13.0245 -9.897 -8.0225 -9.602501 -7.516 -10.316 -11.7353 -15.5282 
-3.7075 -2.8645 -4.07 -1.934 -4.4385 -1.756 -4.07 -3.2295 -6.485 -3.7805 -3.158 
-6.4255 -7.9395 -6.0205 -5.7805 -5.527 -5.9625 -7.4975 -8.828 -10.1035 -7.127 
-11.9181 -10.1028 -7.941 -6.6085 -9.288 -8.638 -13.3032 -12.8029 -14.0932 
-14.0814 -12.0233 -8.505501 -10.7175 -12.0899 -15.0293 -17.2781 -16.7926 
-16.0019 -12.5878 -12.8383 -13.5194 -18.4812 -19.0042 -21.2678 
-4.347 -6.4865 -3.7805 -3.158 -3.1575 -1.4985 -4.07 -4.4385 -3.3755 -1.7565 -3.7075 -1.756 -5.732 -3.3755 -4.1095 -3.602 
-9.645 -9.807501 -7.127 -6.312 -4.1355 -5.664001 -7.070001 -8.578501 -4.5295 -5.7275 -5.318 -7.603 -5.8985 -8.409 -8.411001 
-10.484 -10.3635 -10.845 -7.3335 -8.1005 -8.080501 -11.4958 -10.2985 -9.366 -6.78 -9.9455 -8.2685 -10.442 -13.2683 
-12.068 -14.8459 -11.8665 -11.6629 -10.3285 -12.9191 -13.2158 -15.3274 -10.675 -11.8357 -9.963 -12.9898 -15.3013 
-16.2062 -15.8674 -16.1959 -13.8909 -15.1671 -14.6391 -18.2447 -16.6364 -15.7307 -11.8532 -14.7969 -17.8491 
