-4.759 
n/a 
n/a 
n/a 
n/a 
-4.759 
n/a 
n/a 
n/a 
n/a 
-4.759 
n/a 
n/a 
n/a 
n/a 
-4.759 
n/a 
n/a 
n/a 
n/a 
-1.934 -3.948 -3.9675 -3.1385 -4.7615 -5.303 -2.5045 -4.121 -3.995 -1.756 -1.4985 -7.298 -3.0695 -3.6955 -1.7695 -5.991 -3.6835 -5.164 
-5.024 -8.141001 -6.7185 -7.607501 -8.753 -7.7235 -6.727 -5.9965 -5.3025 -3.0405 -8.269501 -9.587 -5.826 -4.4705 -6.960501 -9.4135 -5.399 
-9.219501 -11.4382 -11.7241 -10.2335 -11.4889 -9.291 -8.474501 -7.2995 -6.282 -9.788 -10.5975 -12.5245 -6.193501 -10.0885 -9.814001 -10.5655 
-12.8767 -16.4438 -14.3501 -12.9694 -13.0564 -10.661 -9.4905 -8.2235 -13.7071 -12.1872 -13.535 -12.892 -12.2341 -12.9608 -11.0094 
-17.8823 -19.0698 -17.086 -14.5369 -14.4264 -11.677 -10.4125 -15.7496 -16.1063 -15.1247 -13.9025 -18.9326 -15.1064 -14.1562 
-1.934 -3.3715 -4.8775 0 -4.1285 -5.303 -2.186 -6.6 -2.5045 -6.548 -1.756 -1.4985 -5.303 -1.7565 -4.1685 -2.5685 -3.6835 -3.47 0 
-4.622 -6.5115 -4.8775 -4.1285 -8.572001 -7.284 -7.788501 -7.796 -9.363001 -7.6975 -3.0405 -6.057 -6.199 -5.5755 -6.647501 -6.053 -4.658 -3.47 
-7.205 -6.5115 -9.0305 -8.572001 -10.3745 -10.204 -8.699501 -15.2779 -10.205 -8.51 -7.545001 -6.6945 -10.151 -8.0445 -10.159 -7.519 -4.658 
-7.205 -10.382 -13.8448 -10.3745 -13.2945 -11.115 -16.4536 -16.1199 -11.0175 -13.2939 -8.2135 -10.7575 -12.62 -10.7595 -11.7752 -7.519 
-10.4035 -15.4709 -15.6473 -13.2945 -14.2055 -18.8691 -17.2956 -16.9324 -15.8014 -13.9624 -12.5149 -13.2265 -15.335 -12.3757 -11.7752 
-1.8085 -5.277 -1.7565 -5.1845 -4.245 -4.0875 -3.5015 -2.5195 -1.4985 -4.0325 -5.5 -4.153 
-6.415 -6.0465 -6.580501 -7.991 -8.732 -5.143 -5.965 -3.1695 -4.801001 -6.568501 -5.5985 
-6.741 -10.434 -8.729001 -12.7974 -9.280001 -6.9365 -6.817 -6.1935 -6.708 -6.6815 
-11.3113 -12.5825 -13.68 -13.3454 -11.3505 -7.8945 -9.115001 -7.788 -6.836 
-13.4598 -17.5335 -14.228 -15.4159 -12.3085 -9.394 -10.66 -7.9055 
-2.5045 -3.8825 0 -3.995 -3.807 -1.4985 -3.098 -3.668 -1.7565 -2.664 -3.793 -2.3335 -2.8645 -3.7855 -4.3855 -1.7695 -1.4985 -4.454 -1.7565 -3.3435 
-5.282001 -3.8825 -3.995 -7.8125 -4.8745 -4.123 -6.98 -4.660501 -3.9595 -5.457 -5.58 -4.3785 -5.325 -6.525001 -5.225 -2.7955 -5.245501 -5.044 -4.4105 
-5.282001 -8.1115 -7.8125 -8.956 -7.2415 -7.2685 -7.524 -6.070001 -6.9265 -6.1765 -7.298 -6.9475 -6.8155 -6.5435 -5.821001 -6.7535 -5.3135 -7.0945 
-9.630501 -10.6335 -8.956 -10.5535 -9.662001 -7.59 -8.8295 -8.626501 -7.928501 -7.884 -9.691501 -8.023001 -6.83 -7.2805 -9.482501 -6.824501 -7.407001 
-10.662 -10.681 -10.5535 -10.6915 -9.832001 -8.9445 -10.661 -9.555501 -9.428 -10.3605 -10.2665 -8.032001 -7.581 -10.099 -9.526001 -8.851501 
