-4.759 
n/a 
n/a 
n/a 
n/a 
-4.759 
n/a 
n/a 
n/a 
n/a 
-4.759 
n/a 
n/a 
n/a 
n/a 
-4.759 
n/a 
n/a 
n/a 
n/a 
0 -3.8135 -1.7565 -3.5645 -3.5435 -3.522 0 
-3.8135 -4.991 -4.9395 -6.04 -7.403501 -3.522 
-4.991 -8.4005 -7.3195 -10.9354 -7.403501 
-8.4005 -10.564 -12.6731 -10.9354 
-10.564 -16.431 -12.6731 
0 -7.108 -3.7495 -3.802 0 
-6.04 -10.2035 -8.265501 -3.802 
-9.46 -14.3232 -8.265501 
-14.3444 -14.3444 
-14.3444 
-1.4985 -3.802 -1.7565 -1.4985 -3.5645 -3.5435 -3.9245 
-4.846 -6.1895 -2.4195 -4.884 -6.04 -7.604 
-7.2515 -6.6955 -5.7365 -7.422 -10.177 
-7.897501 -10.382 -8.2335 -11.9514 
-11.7878 -12.879 -12.7369 
0 -3.8135 -1.7565 -8.458 -3.9235 0 
-3.8135 -4.991 -6.977 -6.9895 -3.9235 
-4.991 -10.23 -7.7205 -6.5535 
-10.5564 -12.4574 -8.67 
-12.4574 -12.4574 
