-4.759 
n/a 
n/a 
n/a 
n/a 
-4.759 
n/a 
n/a 
n/a 
n/a 
-4.759 
n/a 
n/a 
n/a 
n/a 
-4.759 
n/a 
n/a 
n/a 
n/a 
-1.4985 -4.2605 -1.7565 -3.4945 -3.84 -2.186 -4.157 -2.688 -3.664 0 
-4.8355 -5.676001 -6.691 -7.5435 -6.2295 -5.8055 -7.799 -5.4835 -3.664 
-6.032001 -10.66 -11.2112 -9.351001 -9.772501 -9.455501 -10.8213 -5.4835 
-11.1988 -15.1802 -13.0187 -13.0044 -13.4431 -12.5384 -10.8213 
-15.719 -16.9877 -16.6721 -16.675 -16.526 -12.5384 
-2.4265 -2.742 -2.489 -5.425 -1.756 -3.922 -1.4985 -3.8085 -3.664 -1.934 -2.3615 -5.8085 -4.663 0 
-4.095 -3.301 -7.224501 -6.5065 -5.3165 -4.7665 -5.574 -5.2435 -5.424 -3.539 -8.3085 -9.1625 -4.663 
-4.601 -7.733 -8.235001 -11.0536 -6.0265 -8.9925 -7.5045 -7.593 -6.909 -9.3365 -11.8611 -9.1625 
-9.823501 -9.304501 -12.9865 -11.7636 -10.4577 -11.6682 -9.331 -9.675501 -13.4845 -13.0999 -11.8611 
-11.395 -14.0682 -13.6965 -16.1948 -13.1334 -13.4947 -10.5985 -16.3396 -17.2479 -13.0999 
-1.4985 -3.793 -3.4945 -2.5685 -3.1495 -4.577 -2.742 -3.922 -1.4985 -3.913 -1.7565 -2.688 -3.664 0 
-4.582 -6.6905 -6.237 -4.8995 -6.351501 -6.906 -5.363 -4.7665 -5.0825 -5.2915 -4.2285 -5.4835 -3.664 
-7.561 -9.2545 -7.976501 -8.269501 -7.9665 -9.3225 -6.0155 -8.9235 -6.0025 -7.1855 -7.133501 -5.4835 
-10.6735 -11.519 -10.553 -10.107 -10.6875 -9.7865 -10.27 -9.932501 -7.987 -8.717501 -7.133501 
-12.938 -14.0955 -12.3905 -12.9824 -11.1515 -14.128 -11.279 -11.9938 -9.778501 -8.717501 
-4.248 -3.793 -2.742 -4.4905 -2.688 -3.664 0 
-8.682501 -6.41 -5.818501 -6.338 -5.4835 -3.664 
-11.8665 -9.265501 -7.752 -9.646001 -5.4835 
-14.722 -10.164 -11.2438 -9.646001 
-15.6205 -14.562 -11.2438 
