-4.759 
n/a 
n/a 
n/a 
n/a 
-4.759 
n/a 
n/a 
n/a 
n/a 
-4.759 
n/a 
n/a 
n/a 
n/a 
-4.759 
n/a 
n/a 
n/a 
n/a 
-1.934 -2.7625 -7.231 -3.433 -1.7565 -5.014 -4.2485 -1.756 -4.153 0 
-5.5425 -9.508501 -11.136 -4.1845 -6.112501 -7.1055 -5.4505 -5.8605 -4.153 
-13.036 -13.43 -12.441 -8.695001 -8.2145 -7.968501 -6.5965 -5.8605 
-17.6945 -14.9812 -17.1305 -11.181 -8.578001 -8.646501 -6.5965 
-18.7045 -19.6707 -19.6165 -11.5445 -9.861001 -8.646501 
-3.851 -1.7695 -4.2485 -1.756 -3.741 -3.618 -2.4265 -2.742 -2.489 -6.6185 -1.934 -1.4985 -5.2415 
-4.0015 -6.549 -5.4505 -5.49 -5.4315 -6.1615 -4.095 -3.301 -10.168 -8.804001 -2.6125 -6.224 
-7.392 -7.411 -7.783 -6.533 -7.7395 -7.638 -4.601 -11.4236 -12.3535 -9.625 -8.278 
-8.4125 -9.5065 -8.173501 -8.8905 -9.0755 -8.17 -12.9778 -13.6091 -13.1745 -15.3245 
-10.3675 -10.534 -10.5425 -10.494 -9.526501 -16.7548 -15.1633 -14.4301 -18.874 
-3.433 -1.7565 -1.4985 -5.473 -1.756 -4.767 -3.6615 -2.3615 -2.186 -2.7625 -5.7335 -1.934 -1.4985 -5.2415 
-4.1845 -2.4195 -6.811501 -6.9675 -6.067 -6.8135 -5.8675 -3.5005 -5.8105 -7.6375 -7.786501 -2.6125 -6.224 
-4.6515 -7.645501 -8.0935 -9.1545 -7.8475 -9.390501 -6.447001 -7.9655 -9.288501 -9.6975 -8.571001 -8.278 
-9.1965 -8.996501 -10.281 -9.8835 -10.3535 -10.128 -11.887 -11.5297 -11.5809 -10.612 -14.4175 
-10.4765 -10.674 -11.123 -12.5023 -11.091 -15.568 -15.4512 -13.8221 -12.4954 -16.4585 
-2.3345 -4.0195 -1.7565 -4.2485 -1.756 -5.473 -4.1445 -1.4985 -3.981 -1.7565 -6.6185 0 
-7.024 -4.874001 -5.969 -5.4505 -6.793 -7.984 -5.784 -5.4355 -5.78 -8.847 -6.6185 
-7.6775 -9.175501 -6.668 -8.950001 -9.198 -9.223001 -9.268001 -6.411 -13.5205 -8.847 
-12.7286 -10.3409 -10.0435 -11.7552 -10.451 -12.9246 -10.5435 -14.2901 -13.5205 
-13.894 -13.7164 -13.0563 -13.0082 -14.1526 -14.2001 -18.4226 -14.2901 
