-4.759 
n/a 
n/a 
n/a 
n/a 
-4.759 
n/a 
n/a 
n/a 
n/a 
-4.759 
n/a 
n/a 
n/a 
n/a 
-4.759 
n/a 
n/a 
n/a 
n/a 
-12.16972 -4.023 -4.493 -3.115 -4.269 -3.77 -1.7695 -3.197 -2.9905 -1.934 -4.4155 0 
-16.19272 -9.9755 -8.1565 -8.632 -8.8435 -4.2755 -3.9565 -4.227 -4.5445 -7.992 -4.4155 
-22.14522 -13.639 -13.8235 -13.3727 -9.45 -5.718 -4.7145 -6.5755 -11.1723 -7.992 
-25.80872 -19.306 -18.5642 -13.9792 -11.4997 -7.472001 -7.3545 -13.8969 -11.1723 
-31.47572 -24.0467 -19.1707 -16.0289 -13.2537 -9.607 -14.8659 -13.8969 
-2.4265 -2.186 -3.881 -2.3335 -2.7835 -2.871 -4.4895 -2.5685 -1.4985 -4.023 -3.7865 0 -3.321 -2.9805 -3.423 -3.973 -3.2295 -2.9995 -2.871 -2.5045 -1.8085 -4.508 -2.0935 -3.595 0 
-3.292 -5.3 -6.421 -4.5665 -5.120501 -5.8675 -6.4685 -3.7015 -6.6455 -8.492001 -3.7865 -3.321 -5.175 -4.896501 -5.898 -5.3675 -5.940001 -5.056 -5.6455 -3.3625 -5.0595 -6.536 -4.819 -3.595 
-6.02 -7.328 -8.528001 -6.496 -7.571 -8.4175 -7.127 -9.321 -11.4985 -8.492001 -7.944 -5.175 -7.2155 -7.406501 -8.3 -8.2285 -7.920001 -8.067 -6.451 -6.7405 -7.356501 -9.2805 -4.819 
-7.4605 -9.150001 -10.064 -8.908501 -9.671 -8.838 -13.1681 -14.1524 -11.4985 -13.3177 -9.622001 -7.2155 -9.824 -9.133 -10.1635 -10.7175 -11.526 -9.0885 -10.3675 -8.557 -9.7535 -9.2805 
-9.179501 -10.523 -12.6055 -11.0375 -10.0655 -15.1193 -17.9995 -14.1524 -16.3242 -14.9957 -11.7491 -9.824 -11.6075 -11.0843 -12.6525 -14.3235 -12.5475 -13.1116 -12.2234 -11.1924 -9.7535 
-12.16972 -4.023 -1.7695 -3.659 -4.6255 -1.7695 -4.031 -1.7695 -3.5045 -3.77 
-16.19272 -6.305 -4.3495 -9.599501 -6.1675 -5.6515 -5.8135 -4.661 -8.096001 
-18.47472 -9.5845 -9.726001 -11.5577 -10.459 -8.0415 -9.288 -9.322001 
-21.75422 -15.5366 -11.7774 -15.8492 -13.5012 -11.9144 -13.8466 
-27.70632 -17.588 -16.0689 -18.8914 -17.3741 -16.473 
-2.7835 -2.9805 -2.7765 -3.659 -4.023 -3.7865 0 -2.9805 -2.7765 -2.7765 -1.4985 -4.031 -2.9805 -4.331 0 
-4.6105 -4.8675 -5.365 -9.264001 -8.492001 -3.7865 -2.9805 -4.8675 -6.346001 -5.251 -5.8035 -7.1225 -5.2865 -4.331 
-6.0855 -7.4685 -11.5322 -14.0634 -8.492001 -7.002 -4.8675 -8.618501 -8.35 -9.3085 -8.9245 -9.021 -5.2865 
-8.5015 -13.6819 -16.3316 -14.0634 -12.3757 -9.236 -8.618501 -10.419 -12.6633 -12.5075 -10.8978 -9.021 
-15.1623 -18.4813 -16.3316 -17.9471 -14.6097 -13.3 -10.419 -14.7323 -15.8623 -14.4808 -10.8978 
