-4.759 
n/a 
n/a 
n/a 
n/a 
-4.759 
n/a 
n/a 
n/a 
n/a 
-4.759 
n/a 
n/a 
n/a 
n/a 
-4.759 
n/a 
n/a 
n/a 
n/a 
-2.3615 -2.186 -3.8225 -5.7055 -3.5155 -1.4985 -6.1275 
-3.5005 -5.589 -10.4945 -8.84 -4.496 -7.2845 
-6.926 -13.3136 -13.629 -10.1075 -8.972 
-14.8946 -16.4481 -14.8965 -14.5835 
-18.0291 -17.7156 -19.3725 
-2.3615 -2.186 -3.3785 -2.0935 -2.5685 -6.1275 
-3.5005 -6.258 -5.706 -3.987 -7.1285 
-7.68 -8.408 -7.791 -8.498501 
-9.8805 -9.104 -12.4911 
-10.217 -13.8765 
-2.3615 -3.8465 -2.186 -3.8225 -2.0935 -2.5685 -1.4985 -6.1275 0 
-5.6075 -5.4395 -5.589 -5.9725 -3.987 -3.7015 -7.2845 -6.1275 
-6.398 -8.747001 -6.528 -7.054 -5.0335 -9.5255 -7.2845 
-10.103 -10.411 -7.969 -8.2895 -10.375 -9.5255 
-11.9162 -11.852 -8.836 -13.8512 -10.375 
-2.3615 -3.6505 -2.186 -3.8225 -2.0935 -2.5685 -3.8315 0 
-5.4725 -5.316 -5.589 -5.9725 -3.987 -6.5585 -3.8315 
-6.515 -9.295 -6.528 -7.054 -8.056001 -6.5585 
-10.354 -10.5045 -7.969 -11.642 -8.056001 
-11.6571 -10.7765 -12.8176 -11.642 
