-4.759 
n/a 
n/a 
n/a 
n/a 
-4.759 
n/a 
n/a 
n/a 
n/a 
-4.759 
n/a 
n/a 
n/a 
n/a 
-4.759 
n/a 
n/a 
n/a 
n/a 
-2.9805 -5.4965 -1.4985 -3.1715 -7.209 -1.7565 -6.557 0 
-7.2225 -6.317501 -3.994 -10.281 -8.0185 -7.653501 -6.557 
-7.776 -9.774 -11.9097 -11.0905 -14.1685 -7.653501 
-11.3493 -17.9203 -12.7192 -17.2405 -14.1685 
-19.4956 -18.7298 -18.8692 -17.2405 
-9.634001 -4.168 -3.766 -4.1 -4.1665 0 
-14.0592 -7.857 -7.095 -7.696501 -4.1665 
-17.7482 -10.7495 -11.1221 -7.696501 
-20.6407 -14.7766 -11.1221 
-24.6678 -14.7766 
-2.9805 -5.5235 -4.4715 -3.893 -6.557 -2.229 -3.766 -3.5435 0 
-6.505 -10.718 -8.2185 -11.6408 -9.0895 -5.697001 -6.226501 -3.5435 
-11.7425 -14.465 -16.1119 -14.1733 -12.7651 -8.759001 -6.226501 
-15.4895 -22.3584 -18.6444 -17.8489 -15.8271 -8.759001 
-23.3829 -24.8909 -22.32 -20.9109 -15.8271 
-2.9805 -5.5235 -5.4165 -1.7695 -6.557 -3.1715 -1.7695 -1.8085 -4.099 -4.63 
-6.505 -12.3264 -6.902 -8.764 -8.42 -5.2045 -3.41 -5.138 -8.769 
-13.3509 -13.8119 -14.4105 -10.4945 -10.826 -6.818501 -6.1815 -8.946 
-14.8364 -21.3204 -16.141 -12.9005 -12.44 -9.4525 -8.986501 
-22.3449 -23.0509 -18.547 -14.5145 -15.074 -12.5399 
