-4.759 
n/a 
n/a 
n/a 
n/a 
-4.759 
n/a 
n/a 
n/a 
n/a 
-4.759 
n/a 
n/a 
n/a 
n/a 
-4.759 
n/a 
n/a 
n/a 
n/a 
-1.4985 -5.3745 -3.5435 -4.9985 -1.4985 -12.16972 -4.313 0 -2.9705 -5.197 -1.4985 -3.2895 -1.7565 -6.102 -2.264 -3.524 -4.767 0 
-6.226001 -7.0985 -7.603001 -6.515501 -14.76202 -16.48272 -4.313 -2.9705 -6.655001 -5.8515 -4.862 -4.9075 -7.293001 -8.453501 -4.855 -6.345 -4.767 
-7.318001 -10.1265 -8.113501 -20.37042 -19.07502 -16.48272 -6.978001 -6.655001 -7.158501 -7.389 -5.246 -9.566501 -9.675501 -11.3763 -7.175 -6.345 
-10.1895 -10.5495 -22.23922 -24.68342 -19.07502 -19.14772 -10.6605 -7.158501 -8.587001 -7.451 -9.875501 -12.013 -12.6345 -13.6963 -7.175 
-10.695 -24.67522 -26.55222 -24.68342 -21.74002 -22.83022 -12.4506 -8.587001 -8.658001 -12.3337 -12.316 -14.972 -14.9545 -13.6963 
-3.524 -3.0605 0 -5.3745 -3.5435 -4.9985 -1.4985 -12.16972 -3.2795 -2.9705 -3.807 -4.8715 -1.7695 -1.4985 -5.1875 -3.2895 0 
-5.4645 -3.0605 -5.3745 -7.0985 -7.603001 -6.515501 -14.76202 -15.44922 -5.7935 -5.2845 -7.458 -6.6295 -2.7955 -5.496 -8.589001 -3.2895 
-5.4645 -9.217501 -7.0985 -10.1265 -8.113501 -20.37042 -18.04152 -17.96322 -7.693501 -8.585501 -8.483001 -7.5385 -7.5035 -8.9125 -8.589001 
-12.7841 -11.0305 -10.1265 -10.5495 -22.23922 -23.64992 -20.55552 -19.86322 -11.1911 -9.543501 -9.501 -12.6499 -10.5745 -8.9125 
-14.5971 -14.0585 -10.5495 -24.67522 -25.51872 -26.16392 -22.45552 -23.36082 -12.1491 -10.398 -14.6994 -15.7209 -10.5745 
-3.524 -3.0605 -5.3745 -3.5435 -4.9985 0 -7.586 0 -2.9705 -5.197 -6.102 -3.2895 
-5.4645 -9.217501 -7.0985 -7.603001 -4.9985 -7.586 -7.586 -2.9705 -6.655001 -12.585 -10.61 
-12.7841 -11.0305 -10.1265 -7.603001 -10.7025 -7.586 -9.8485 -6.655001 -14.394 -17.093 
-14.5971 -14.0585 -10.1265 -13.706 -10.7025 -9.8485 -13.654 -14.394 -18.902 
-17.6251 -14.0585 -16.2749 -13.706 -12.965 -13.654 -21.393 -18.902 
-3.524 -3.0605 0 -5.3745 -3.5435 -4.9985 -12.16972 -2.9705 -2.186 -2.664 -3.9235 -1.7695 -4.092 -4.509 -1.4985 -4.1865 -3.2895 0 
-5.4645 -3.0605 -5.3745 -7.0985 -7.603001 -18.25322 -15.14022 -3.89 -3.8555 -5.1895 -5.6555 -6.100501 -7.2295 -6.154 -5.177 -7.6525 -3.2895 
-5.4645 -9.217501 -7.0985 -10.1265 -21.25672 -21.22372 -16.05972 -5.7205 -6.304501 -6.6285 -10.8871 -7.8275 -8.2345 -9.684501 -8.705 -7.6525 
-12.7841 -11.0305 -10.1265 -23.82562 -24.22722 -22.14322 -17.89022 -8.0235 -8.5935 -12.1875 -12.6141 -8.396501 -12.048 -13.2969 -8.705 
-14.5971 -14.0585 -23.82562 -26.79612 -25.14672 -23.97372 -20.19322 -9.940001 -14.5731 -13.9145 -13.1831 -12.256 -15.6604 -13.2969 
