-4.759 
n/a 
n/a 
n/a 
n/a 
-4.759 
n/a 
n/a 
n/a 
n/a 
-4.759 
n/a 
n/a 
n/a 
n/a 
-4.759 
n/a 
n/a 
n/a 
n/a 
-2.5195 -2.3615 -6.4285 -3.599 -4.348 -3.7825 -5.954 -3.3235 0 
-4.4095 -9.017 -9.759001 -6.297501 -8.578501 -10.884 -9.742001 -3.3235 
-11.4842 -12.5993 -12.6855 -10.586 -16.1154 -14.672 -9.742001 
-15.0665 -15.5258 -16.974 -18.1229 -19.9034 -14.672 
-17.993 -19.8143 -24.5109 -21.9109 -19.9034 
-2.5195 -2.3615 -6.4285 0 -6.4285 0 -2.356 -4.5175 -4.4265 -4.1665 -4.4825 -3.9875 -4.1115 0 
-4.4095 -9.017 -6.4285 -6.4285 -6.4285 -2.356 -7.073501 -9.220001 -9.9895 -8.9455 -7.5905 -8.675501 -4.1115 
-11.4842 -9.017 -8.5885 -6.4285 -8.512 -7.073501 -12.1094 -15.774 -15.1015 -12.1519 -12.9407 -8.675501 
-11.4842 -11.4288 -8.5885 -8.512 -13.5003 -12.1094 -18.6634 -20.886 -18.3079 -17.5021 -12.9407 
-13.896 -11.4288 -11.4778 -13.5003 -18.5362 -18.6634 -23.7754 -24.0924 -23.6581 -17.5021 
-1.934 -2.3335 -6.4285 -5.1385 -4.523 -1.7695 -3.7825 -4.0995 -5.3815 
-4.359 -8.940001 -11.136 -9.481501 -5.5405 -4.6465 -8.719501 -8.752501 
-10.5535 -13.8803 -15.479 -10.478 -9.764001 -9.790001 -13.7319 
-15.4938 -18.2233 -16.4755 -14.7015 -14.9901 -15.1006 
-19.8368 -19.2198 -20.699 -19.9276 -20.3007 
-1.756 -3.074 0 -1.4985 -5.954 -3.152 -4.5295 -2.3345 -1.4985 -10.0275 -5.1405 
-4.566 -3.074 -1.4985 -7.1815 -7.788501 -5.7685 -6.043 -3.233 -10.788 -13.259 
-4.566 -4.6505 -7.1815 -8.796 -10.7468 -7.452001 -6.71 -13.052 -14.899 
-5.66 -10.214 -8.796 -11.7689 -12.4303 -8.2425 -17.148 -17.1 
-11.3315 -12.1613 -11.7689 -13.4524 -13.2208 -18.7767 -20.876 
