-4.759 
n/a 
n/a 
n/a 
n/a 
-4.759 
n/a 
n/a 
n/a 
n/a 
-4.759 
n/a 
n/a 
n/a 
n/a 
-4.759 
n/a 
n/a 
n/a 
n/a 
-2.4265 -4.0555 -3.325 -4.628 -6.7145 -4.0965 -2.9705 -5.1605 -1.934 -6.04 0 
-5.285501 -6.2735 -8.272 -8.598001 -10.1345 -6.984 -7.283 -6.4305 -7.1995 -6.04 
-7.6685 -12.1621 -12.0674 -10.1425 -13.022 -9.632001 -8.265 -12.3234 -7.1995 
-13.6181 -15.9575 -13.6119 -13.03 -15.67 -10.8316 -14.3035 -12.3234 
-17.4135 -17.502 -16.4994 -15.678 -16.8696 -16.8701 -14.3035 
-2.4265 -5.677 -1.7695 -1.4985 -4.628 -6.7145 -5.2875 -1.7565 -12.16972 0 
-6.914001 -5.7705 -2.7955 -6.298 -8.598001 -10.4765 -6.936501 -14.87542 -12.16972 
-7.08 -6.2525 -7.614 -9.4995 -12.6472 -12.1255 -20.53762 -14.87542 
-7.647 -10.564 -10.9943 -13.9467 -14.2962 -25.72662 -20.53762 
-12.0513 -13.9443 -15.4415 -15.5957 -27.89732 -25.72662 
-2.3335 -2.186 -5.1605 -3.325 -6.762 -6.7145 -12.16972 -1.934 -6.04 0 
-3.7085 -6.7155 -8.1535 -10.8215 -10.27 -19.64642 -14.10372 -7.1995 -6.04 
-8.185 -9.416 -16.0522 -14.3295 -23.20192 -21.58042 -19.36922 -7.1995 
-10.5325 -17.4371 -19.5602 -27.26142 -25.13592 -26.84592 -19.36922 
-19.2342 -20.9451 -32.49212 -29.19542 -30.40142 -26.84592 
-2.4265 -2.186 -3.325 -1.4985 -9.9545 -2.229 -5.8555 -6.7145 -8.298 0 
-3.292 -5.2405 -3.898 -12.5468 -12.3093 -8.058001 -9.5635 -15.7747 -8.298 
-6.647501 -6.0125 -15.6539 -14.9016 -18.1383 -12.0634 -18.7983 -15.7747 
-7.301001 -18.2784 -18.0087 -20.7306 -22.1437 -21.2982 -18.7983 
-19.4631 -20.6332 -23.8377 -24.736 -31.3785 -21.2982 
