-4.759 
n/a 
n/a 
n/a 
n/a 
-4.759 
n/a 
n/a 
n/a 
n/a 
-4.759 
n/a 
n/a 
n/a 
n/a 
-4.759 
n/a 
n/a 
n/a 
n/a 
-4.6745 -6.3435 -1.4985 -2.871 -1.7565 -1.4985 -3.8655 -2.229 -3.815 -3.8195 -2.7455 -3.5855 -1.7695 -4.6525 -2.3335 -1.7695 -3.047 -1.756 -3.322 0 -4.3315 0 -3.237 -1.756 -5.0825 -4.2085 -3.3435 -4.4565 -1.7695 -3.6605 -4.7425 0 
-9.5825 -7.256001 -4.316 -3.5385 -2.4195 -6.342 -5.1985 -5.9025 -5.729 -6.007 -6.1905 -5.916 -8.021 -7.0255 -5.0415 -3.768 -5.318 -5.0645 -3.322 -4.3315 -4.3315 -3.237 -4.9395 -6.1205 -8.259501 -7.738501 -7.7135 -4.9325 -5.5535 -4.8735 -4.7425 
-11.0405 -8.995001 -6.0265 -3.7675 -7.166501 -7.8455 -9.1505 -7.5695 -7.217 -9.747001 -8.4215 -12.8645 -9.328501 -8.993 -7.368001 -5.579 -7.339001 -5.0645 -8.019 -4.3315 -8.765 -4.9395 -10.647 -9.285501 -12.2955 -12.5099 -8.089001 -7.203 -6.2745 -4.8735 
-13.2778 -11.1525 -6.275001 -8.8675 -8.406501 -12.0757 -11.2325 -9.2665 -11.2558 -12.0348 -15.6174 -14.172 -10.048 -11.6523 -9.424001 -7.7155 -7.339001 -9.7705 -8.019 -8.765 -10.9133 -10.647 -13.812 -13.5529 -17.0669 -12.8854 -10.5435 -8.8245 -6.2745 
-15.3265 -11.5407 -11.4414 -8.974501 -12.8035 -14.1577 -12.9295 -13.4445 -13.5436 -19.2307 -16.9249 -14.8915 -14.5547 -13.7083 -11.8209 -7.7155 -12.4144 -9.7705 -12.8559 -10.9133 -16.6208 -13.812 -18.0794 -18.3243 -17.4424 -15.3399 -12.165 -8.8245 
-4.315 -3.602 -3.047 -1.756 -3.322 -4.3625 -4.251 -1.756 -4.6345 -1.7565 -4.2085 -3.3435 -1.7695 -4.2485 -1.7565 -3.995 -1.756 -3.974 -1.7565 -3.5855 0 
-7.233 -6.837 -5.318 -5.0645 -7.8485 -9.595 -6.3935 -5.8675 -7.2695 -5.647 -7.738501 -5.263 -6.549 -5.5065 -5.423 -5.3025 -5.6235 -4.613 -4.6335 -3.5855 
-10.111 -10.223 -7.339001 -9.1305 -13.5944 -11.8265 -11.1236 -8.2015 -11.8064 -8.889 -9.918001 -10.749 -8.498 -8.389001 -6.429 -10.328 -6.421 -8.8455 -4.6335 
-13.8574 -12.244 -10.381 -15.1054 -15.8259 -16.5566 -13.4576 -13.0544 -15.0484 -10.6605 -15.4118 -12.698 -11.3737 -9.740001 -11.9551 -11.1255 -10.597 -8.8455 
-15.8784 -15.286 -16.7099 -17.3369 -20.556 -18.8906 -18.3105 -16.2964 -16.8199 -16.1543 -17.3608 -15.5737 -12.7247 -15.4573 -12.7526 -15.3015 -10.597 
-4.315 -3.602 0 -1.7695 -3.047 -1.756 -1.7695 -3.322 0 -4.5345 -1.756 -3.8225 -1.756 -5.0825 -4.2085 -3.3435 -3.893 -2.9705 -1.4985 -3.6605 -4.7425 -2.8645 -4.3725 -3.1435 -3.974 -1.756 -2.4265 -2.186 -1.8085 -4.8085 -3.8195 -2.5195 -3.8655 -4.25 -2.4265 0 
-7.233 -3.602 -1.7695 -3.768 -5.318 -3.963 -4.317 -3.322 -4.5345 -5.741 -5.6485 -5.729 -6.1205 -8.259501 -7.738501 -7.2545 -5.486 -4.186 -4.6365 -4.8735 -6.958 -6.1805 -7.4005 -6.011 -5.694 -3.949 -3.292 -3.164 -5.871 -6.085001 -6.264 -5.8255 -8.252001 -6.5405 -2.4265 
-7.233 -4.9645 -3.768 -5.579 -7.339001 -6.5835 -4.317 -8.764501 -5.741 -8.075001 -8.1215 -9.4515 -9.285501 -12.2955 -12.0509 -8.538 -6.037 -7.688001 -6.350501 -7.052001 -10.494 -7.960001 -10.6224 -7.8745 -7.469501 -4.7355 -4.4005 -6.964 -6.8655 -8.4215 -9.344501 -9.899 -10.7577 -6.5405 
-9.125 -7.27 -5.579 -7.445001 -9.545 -6.5835 -9.527 -10.3545 -8.075001 -10.181 -12.024 -12.3105 -13.5529 -16.6079 -13.3344 -9.307 -9.167 -9.39 -9.181001 -10.5035 -12.6001 -11.3529 -12.4859 -9.472 -8.101 -5.92 -8.307501 -7.8865 -9.232 -11.7132 -13.6014 -12.4813 -10.7577 
-11.5625 -9.121 -7.445001 -9.571001 -9.545 -12.4107 -11.3174 -12.6885 -10.181 -14.0835 -14.883 -16.5779 -17.8653 -17.8914 -14.1034 -12.5896 -10.3615 -12.3293 -12.7719 -12.6006 -15.993 -13.2164 -14.0834 -9.965 -9.448501 -9.994 -9.778501 -9.9945 -12.6343 -15.9701 -16.1837 -12.4813 
-3.047 -1.756 -3.322 -3.498 -4.2935 -2.4265 -2.186 -1.8085 -4.3105 -3.815 -3.8195 -2.0935 -3.6605 -4.7425 -1.756 -3.1435 -3.9515 -1.934 -4.9545 0 
-5.318 -5.0645 -7.557501 -8.4585 -6.818001 -3.292 -3.164 -7.376 -7.9265 -5.729 -6.066 -5.4635 -4.8735 -6.0065 -4.1365 -6.0385 -5.5835 -6.759 -4.9545 
-7.339001 -9.663501 -12.7682 -11.2952 -8.389501 -4.4005 -8.7185 -11.2104 -8.758 -7.772501 -10.071 -6.718 -6.103001 -7.659 -6.399 -7.5005 -9.724501 -6.759 
-12.3074 -14.945 -15.6049 -12.8667 -9.425001 -10.3095 -12.7167 -12.0419 -11.0333 -12.0761 -11.4521 -7.878 -7.6945 -8.578501 -7.965 -11.9243 -9.724501 
-17.5889 -17.7817 -17.1764 -13.9022 -15.4418 -14.3077 -13.5482 -14.3172 -15.3369 -13.4572 -12.6121 -9.697001 -8.601001 -9.674001 -12.4368 -11.9243 
