-4.759 
n/a 
n/a 
n/a 
n/a 
-4.759 
n/a 
n/a 
n/a 
n/a 
-4.759 
n/a 
n/a 
n/a 
n/a 
-4.759 
n/a 
n/a 
n/a 
n/a 
-4.142 -3.892 -1.7565 -1.4985 -3.59 -2.186 -4.919 -8.701 
-6.371 -5.131001 -2.4195 -4.268 -5.4475 -7.642 -15.1262 
-7.325 -5.6325 -5.009 -5.9045 -10.7335 -18.5492 
-7.847 -6.899 -6.695001 -10.7595 -21.6407 
-8.569 -8.524501 -11.651 -21.6667 
-3.5455 -3.355 -1.7565 -1.4985 -3.59 -2.186 -1.8085 -3.7685 -5.888 -3.4425 0 
-7.183001 -3.725 -2.4195 -4.268 -5.4475 -3.164 -5.2005 -6.896501 -8.3325 -3.4425 
-7.3065 -4.0515 -5.009 -5.9045 -6.7365 -6.414001 -7.882501 -9.615001 -8.3325 
-7.6545 -6.237 -6.695001 -7.2535 -10.0155 -9.585001 -9.7305 -9.615001 
-9.012501 -7.72 -8.073001 -10.347 -13.3241 -11.4332 -9.7305 
-1.4985 -3.5455 -1.7565 -1.4985 -3.59 -2.186 -1.8085 -4.7 -3.892 0 
-4.554 -5.076 -2.4195 -4.268 -5.4475 -3.164 -6.017 -7.650001 -3.892 
-5.9515 -5.6885 -5.009 -5.9045 -6.7365 -7.3295 -8.6245 -7.650001 
-6.434 -7.179501 -6.695001 -7.2535 -10.064 -9.8105 -8.6245 
-7.251 -8.707001 -8.073001 -10.3215 -12.8226 -9.8105 
-1.4985 -3.5455 -3.5015 -1.7565 -1.4985 -3.59 -2.8645 -3.7685 -5.7495 -3.8195 
-4.554 -8.39 -4.783 -2.4195 -4.268 -5.794 -7.356 -10.907 -10.123 
-9.56 -9.956 -5.715 -5.009 -6.1965 -10.4185 -14.9861 -15.2805 
-10.534 -10.6645 -8.7775 -7.205501 -10.609 -18.0486 -19.3596 
-11.2425 -13.727 -11.2246 -11.8046 -18.2391 -22.4221 
