-4.759 
n/a 
n/a 
n/a 
n/a 
-4.759 
n/a 
n/a 
n/a 
n/a 
-4.759 
n/a 
n/a 
n/a 
n/a 
-4.759 
n/a 
n/a 
n/a 
n/a 
-3.488 -2.855 0 -7.4685 -4.9405 0 -8.151 -8.8255 0 -8.6635 0 
-5.4225 -2.855 -7.4685 -13.0272 -4.9405 -8.151 -17.4861 -8.8255 -7.739501 -7.739501 
-5.4225 -10.9397 -13.0272 -13.0272 -14.4419 -17.4861 -17.4861 -16.7938 -7.739501 
-14.6676 -16.4984 -13.0272 -22.5286 -23.777 -17.4861 -25.4544 -16.7938 
-20.2263 -16.4984 -22.5286 -31.8637 -23.777 -25.4544 -25.4544 
-3.488 -2.855 -5.4405 -8.426001 0 -6.4745 -6.586 
-5.4225 -8.7495 -14.8505 -8.426001 -6.4745 -14.0783 
-12.4774 -18.3083 -14.8505 -15.2935 -14.0783 
-22.0362 -18.3083 -21.718 -22.8973 
-22.0362 -25.1758 -29.3218 
-3.488 -8.619 -4.9405 0 -2.688 -4.247 -5.8085 0 -4.2215 0 
-11.5615 -12.063 -4.9405 -2.688 -4.249001 -9.2675 -5.8085 -4.2215 -4.2215 
-15.9947 -12.2668 -8.532001 -4.249001 -9.267 -9.2675 -9.8325 -4.2215 
-15.9947 -16.1475 -9.4475 -9.267 -9.267 -13.7417 -9.8325 
-19.8754 -17.063 -10.0695 -9.267 -13.7412 -13.7417 
-5.4405 -4.9405 -2.186 -1.8085 -4.3295 -6.586 -2.5045 -3.609 -2.855 
-7.1735 -6.5425 -3.164 -6.561501 -11.9455 -9.353001 -6.7675 -5.382 
-9.407001 -7.4785 -8.186001 -14.7963 -14.7125 -13.769 -8.3525 
-9.976501 -12.9951 -16.7512 -17.5633 -19.1285 -15.354 
-15.6937 -21.5603 -19.5182 -21.9793 -20.7135 
