-4.759 
n/a 
n/a 
n/a 
n/a 
-4.759 
n/a 
n/a 
n/a 
n/a 
-4.759 
n/a 
n/a 
n/a 
n/a 
-4.759 
n/a 
n/a 
n/a 
n/a 
-3.7075 -3.962 -7.423 
-7.553 -12.4836 
-17.56 
n/a 
n/a 
-3.7075 -5.9265 -5.307 -1.7695 -5.829 -5.307 -3.6515 -1.7695 -12.16972 -2.264 -3.7075 -4.4525 -2.95 -3.584 
-8.6105 -8.283501 -8.026501 -7.674001 -8.3645 -10.115 -3.9135 -14.92142 -14.43372 -5.29 -8.927 -8.070001 -6.422 
-11.9519 -11.5216 -14.283 -11.0915 -13.6283 -10.377 -18.00562 -17.18542 -17.45972 -12.0577 -12.7281 -12.0896 
-15.19 -17.7781 -17.7005 -16.3553 -13.8903 -24.46912 -20.26962 -20.21142 -24.22742 -15.8588 -16.7477 
-21.4465 -21.1956 -22.9643 -16.6173 -27.98242 -26.73312 -23.29562 -26.97912 -28.02852 -19.8784 
-3.7075 -4.1555 -1.7695 -10.225 -7.3325 -1.7695 -7.0255 -7.3325 -3.0415 -3.584 -1.4985 -3.7075 -3.4795 
-6.669001 -4.988501 -12.9767 -17.6227 -9.7355 -8.7675 -15.1546 -10.586 -6.5465 -5.0595 -4.6235 -8.02 
-8.8125 -16.5635 -20.3744 -20.0257 -16.7809 -17.205 -18.4081 -14.091 -8.086 -8.095501 -8.9645 
-20.7565 -23.9612 -22.7774 -27.0711 -25.2184 -20.4585 -21.9131 -15.6305 -11.4554 -13.3749 
-28.1542 -26.3642 -29.8228 -35.5086 -28.4719 -23.9635 -23.4526 -18.9999 -16.7348 
-3.7075 -2.742 -4.0415 -2.5195 -7.757 -1.7695 -8.649501 
-6.513 -6.425 -5.8485 -10.1905 -9.911 -11.4012 
-10.354 -7.981 -14.0387 -12.6593 -19.6033 
-12.1194 -16.3562 -16.5075 -22.3516 
-20.4946 -18.825 -26.1998 
