-4.759 
n/a 
n/a 
n/a 
n/a 
-4.759 
n/a 
n/a 
n/a 
n/a 
-4.759 
n/a 
n/a 
n/a 
n/a 
-4.759 
n/a 
n/a 
n/a 
n/a 
-3.5445 -4.5955 -3.251 -4.4895 -1.4985 -5.229 -1.934 -1.4985 -9.479501 -3.333 0 -1.756 -2.9805 -3.251 -3.1125 -4.809 -4.107 0 
-6.694 -7.4235 -6.929501 -5.623 -6.106 -6.852 -2.6125 -10.9315 -9.830501 -3.333 -1.756 -4.3555 -4.429 -4.28 -7.567 -5.658 -4.107 
-9.660501 -11.3324 -7.7965 -10.228 -8.054501 -7.452 -12.4397 -11.2825 -9.830501 -5.1725 -4.3555 -5.9465 -5.4795 -8.682001 -8.679501 -5.658 
-13.5926 -12.1994 -12.4975 -12.5405 -8.513 -17.6204 -12.7907 -11.2825 -11.8014 -7.791501 -5.9465 -7.278501 -10.081 -9.508 -8.679501 
-14.4596 -16.9004 -14.81 -12.999 -18.8816 -17.9714 -12.7907 -13.2534 -14.4204 -9.2845 -7.278501 -11.9634 -10.652 -9.508 
-3.5445 -4.5955 -4.4895 -1.8085 -3.7075 -1.7565 -4.537 -3.9345 -1.7695 -5.3015 -4.7365 
-6.694 -8.8225 -5.734 -4.8725 -4.51 -6.367001 -8.587 -3.94 -8.0015 -9.281501 
-11.4234 -9.8 -8.4115 -5.4405 -8.073501 -10.2865 -8.595 -9.659 -12.2845 
-12.4009 -12.5969 -8.934 -8.830501 -12.2844 -10.3505 -14.4758 -14.0226 
-15.1978 -13.1194 -12.4592 -13.454 -12.3484 -16.2313 -18.8394 

n/a 
n/a 
n/a 
n/a 
-3.1015 -1.4985 -4.6365 -4.832 -3.7075 -2.4285 -3.585 -2.7415 -4.09 -2.3345 -3.5445 -4.5955 
-4.7205 -5.3015 -10.4115 -8.551001 -6.0905 -6.042 -5.775001 -5.289001 -4.8155 -4.8225 -6.694 
-7.9595 -10.7495 -14.1305 -11.2334 -7.807 -8.743501 -7.6435 -5.882 -7.2995 -8.017 
-13.6171 -14.4685 -16.8129 -12.9499 -10.717 -9.989 -8.391001 -8.474501 -11.1346 
-17.3361 -17.1509 -18.5294 -15.8599 -11.9625 -11.2345 -10.621 -12.4252 
