-4.759 
n/a 
n/a 
n/a 
n/a 
-4.759 
n/a 
n/a 
n/a 
n/a 
-4.759 
n/a 
n/a 
n/a 
n/a 
-4.759 
n/a 
n/a 
n/a 
n/a 
-4.0885 -3.522 -5.1845 -4.4615 -3.1385 
-6.997 -9.321 -7.859 -6.835 
-13.499 -12.0487 -8.567 
-16.2267 -12.7567 
-16.9347 
-4.0105 -3.522 0 -4.628 -5.939 -5.1845 -4.4615 -3.1385 
-8.1415 -3.522 -4.628 -5.9615 -7.814 -7.859 -6.835 
-8.1415 -8.1315 -5.9615 -7.8265 -10.27 -8.567 
-13.1446 -9.370001 -7.8265 -10.2695 -11.1382 
-14.3831 -10.2875 -10.2695 -11.1377 
-3.0835 -4.867 -3.1385 -4.4615 -6.899 -5.1845 
-7.389 -8.772 -7.1225 -12.5139 -9.2285 
-11.7256 -13.0478 -15.7899 -14.8434 
-16.0014 -21.7152 -18.1194 
-24.6688 -24.0447 
-4.344 -4.867 -3.1385 -4.4615 -4.628 -5.939 -5.1845 0 
-9.8265 -8.772 -7.1225 -9.571501 -5.9615 -7.814 -5.1845 
-13.7315 -13.0478 -12.8475 -10.1365 -7.8265 -7.814 
-18.0073 -18.7728 -13.4125 -12.0015 -7.8265 
-23.7323 -19.3378 -15.2775 -12.0015 
