-4.759 
n/a 
n/a 
n/a 
n/a 
-4.759 
n/a 
n/a 
n/a 
n/a 
-4.759 
n/a 
n/a 
n/a 
n/a 
-4.759 
n/a 
n/a 
n/a 
n/a 
-2.9325 -2.186 -3.995 -4.7425 0 
-3.8335 -6.5515 -8.2095 -4.7425 
-7.179501 -10.3285 -8.2095 
-12.0559 -10.3285 
-12.0559 
-3.043 -1.4985 -3.995 -4.425 -4.237 0 
-4.41 -4.712 -7.9715 -8.6915 -4.237 
-6.927001 -8.245501 -12.5326 -8.6915 
-11.7315 -12.9076 -12.5326 
-16.3936 -12.9076 
-2.9325 -2.186 -5.202 0 
-3.8335 -7.615001 -5.202 
-8.2745 -7.615001 
-8.2745 
n/a 
-2.9325 -2.186 -4.641 -2.3345 -3.6605 -4.7425 0 
-3.8335 -5.521 -6.063 -5.936 -4.8735 -4.7425 
-6.2655 -6.31 -9.401 -6.9615 -4.8735 
-6.3395 -9.532001 -10.0865 -6.9615 
-9.5415 -10.2295 -10.0865 
