-4.759 
n/a 
n/a 
n/a 
n/a 
-4.759 
n/a 
n/a 
n/a 
n/a 
-4.759 
n/a 
n/a 
n/a 
n/a 
-4.759 
n/a 
n/a 
n/a 
n/a 
-4.95 -1.934 -5.0135 0 -1.4985 -3.9515 -8.531501 -2.186 -1.4985 -3.17 -12.16972 -3.5015 0 
-7.073 -6.138 -5.0135 -1.4985 -5.059 -10.841 -10.6475 -3.339 -3.7115 -16.85272 -15.67122 -3.5015 
-8.352 -6.138 -7.126 -5.059 -12.5921 -12.957 -11.8005 -4.888 -18.00642 -20.35422 -15.67122 
-8.352 -7.7065 -8.889501 -12.5921 -14.7081 -14.11 -13.3495 -19.60272 -21.50792 -20.35422 
-9.913 -9.6025 -17.5754 -14.7081 -15.8611 -15.659 -28.06422 -23.10422 -21.50792 
-4.95 -3.9515 -5.0135 -2.7415 -12.16972 -3.859 -4.1925 -5.473 -3.2875 
-8.668 -8.7565 -7.973001 -16.27702 -16.02872 -6.693501 -8.8195 -7.568 
-9.857 -11.963 -21.73652 -20.13602 -18.86322 -11.7493 -9.938001 
-13.0635 -25.72652 -25.59552 -22.97052 -23.91902 -12.8678 
-26.82702 -29.58552 -28.43002 -28.02632 -25.03752 
-13.266 -3.1715 -3.9515 -8.561001 -2.8645 -4.3105 -3.859 -4.6995 -3.1385 -3.2875 0 
-17.475 -6.3005 -13.7979 -11.7569 -7.808 -9.2295 -9.836 -7.896501 -7.6415 -3.2875 
-20.2446 -16.8325 -16.9938 -16.7004 -13.6296 -15.5487 -13.033 -12.6875 -7.6415 
-31.3146 -20.0284 -21.9373 -22.522 -19.9488 -18.7457 -17.824 -12.6875 
-34.5105 -24.9719 -27.7589 -28.8412 -23.1458 -23.5367 -17.824 
-12.16972 -2.186 -1.8085 -3.859 -4.4665 -3.2875 -1.934 -3.8655 0 
-14.35572 -3.164 -4.7675 -7.0195 -7.0655 -5.248 -4.9135 -3.8655 
-15.33372 -6.392 -10.4505 -8.5455 -7.455 -7.843 -4.9135 
-18.56172 -12.4648 -11.9765 -8.884501 -9.584001 -7.843 
-24.63452 -13.9908 -12.3155 -11.0331 -9.584001 
