-4.759 
n/a 
n/a 
n/a 
n/a 
-4.759 
n/a 
n/a 
n/a 
n/a 
-4.759 
n/a 
n/a 
n/a 
n/a 
-4.759 
n/a 
n/a 
n/a 
n/a 
-12.16972 -8.7475 -9.672501 -12.16972 0 
-20.91722 -18.7598 -21.84222 -12.16972 
-30.92952 -30.92952 -21.84222 
-43.09924 -30.92952 
-43.09924 
-9.9965 -8.505 -3.849 -2.0935 -5.9455 0 
-18.8005 -12.729 -5.268 -8.560501 -5.9455 
-23.0245 -14.148 -12.415 -8.560501 
-24.4435 -21.295 -12.415 
-31.5905 -21.295 
-12.16972 -2.186 -3.849 -2.5045 -5.9455 
-14.35572 -4.8565 -6.305 -8.336 
-17.02622 -7.104 -12.2401 
-19.27372 -13.1689 
-25.33862 
-6.8715 -4.7695 -2.186 -3.849 -8.505 
-12.2664 -6.6975 -4.8565 -12.5146 
-14.1944 -10.228 -13.8031 
-17.7249 -19.1746 
-26.6715 
