-4.759 
n/a 
n/a 
n/a 
n/a 
-4.759 
n/a 
n/a 
n/a 
n/a 
-4.759 
n/a 
n/a 
n/a 
n/a 
-4.759 
n/a 
n/a 
n/a 
n/a 
-4.2335 -3.851 -1.7695 -1.4985 -9.873 -2.925 -3.2955 -5.346 -4.983 0 -2.3615 -4.3 -4.612 -4.174 -4.8095 
-7.716 -4.0015 -2.7955 -12.4653 -12.9266 -5.588 -9.969501 -7.903 -4.983 -2.3615 -6.6695 -6.318 -8.6425 -8.845501 
-7.731 -4.5775 -13.9975 -15.5189 -15.5896 -12.4988 -12.6175 -7.903 -7.523001 -6.6695 -8.352 -10.085 -13.513 
-8.335 -16.3843 -17.0511 -18.1819 -22.5004 -15.1468 -12.6175 -9.995501 -12.1586 -8.352 -12.3774 -15.2071 
-20.228 -19.4379 -19.7141 -25.0927 -25.1484 -15.1468 -14.71 -14.6695 -13.8411 -12.3774 -17.4995 
-1.4985 -4.2335 -3.43 -2.9645 -1.7565 -4.365 -3.638 -3.3255 -5.9865 0 -1.4985 -5.765 -4.8095 -3.851 -1.7695 -2.3615 -4.3 -3.585 -1.4985 -3.3435 -3.599 0 -4.8095 0 -4.54 -2.925 -1.4985 -4.6985 0 
-5.605 -8.011 -6.2145 -3.7825 -5.782001 -5.4795 -6.717 -7.616501 -5.9865 -1.4985 -5.9655 -9.467001 -8.2885 -4.0015 -3.736 -6.6695 -6.535501 -5.022501 -4.6745 -7.634501 -3.599 -4.8095 -4.8095 -4.54 -6.314501 -4.202 -5.1995 -4.6985 
-9.344 -10.564 -6.2995 -7.0985 -6.606 -8.453001 -8.530001 -7.616501 -7.495 -5.9655 -9.706 -13.1432 -8.296 -6.14 -7.888 -8.861 -8.453 -8.6835 -9.120501 -7.634501 -7.641001 -4.8095 -8.7095 -6.314501 -7.261001 -7.369501 -5.1995 
-11.9332 -10.593 -10.2695 -7.5045 -8.990001 -9.651501 -8.530001 -8.826 -12.3854 -9.706 -13.4336 -13.1507 -10.647 -9.822001 -10.6595 -10.4505 -12.2712 -13.2575 -9.120501 -12.2261 -7.641001 -8.7095 -10.7404 -7.261001 -10.292 -7.369501 
-11.9622 -14.563 -10.6755 -9.81 -10.2485 -9.651501 -9.7825 -13.8122 -16.1259 -13.4336 -13.4411 -15.5017 -14.329 -12.5935 -12.249 -14.2687 -16.8452 -13.2575 -14.0423 -12.2261 -11.9254 -10.7404 -11.6869 -10.292 -10.292 
-5.5255 -4.2335 -1.7565 -4.202 -3.759 -1.756 -3.7075 -3.685 -4.079 -1.7565 -4.8095 
-8.3855 -5.8865 -5.847001 -8.7405 -5.259 -5.7245 -8.68 -7.957001 -7.349 -5.881001 
-10.228 -10.9584 -10.4265 -10.3687 -9.865001 -10.2435 -13.3942 -12.5262 -12.1373 
-15.5195 -15.5379 -12.0547 -14.9747 -14.8748 -15.1081 -17.9634 -17.3145 
-20.099 -17.1661 -16.6607 -19.9845 -19.7394 -19.6773 -22.7517 
-3.433 -1.7565 -1.4985 -5.9865 -3.635 -1.7565 -4.2335 -4.178 0 -2.925 -5.1775 -5.6055 -3.519 0 -1.4985 -4.8095 -4.5485 -2.3345 -2.3615 -4.3 -4.612 -4.54 -1.4985 -1.934 -1.4985 -10.488 
-4.1845 -2.4195 -7.71 -10.5279 -4.736 -5.64 -7.695 -4.178 -2.925 -7.7135 -11.1355 -8.685 -3.519 -1.4985 -6.0585 -9.0325 -5.4845 -4.499 -6.6695 -6.318 -9.6545 -5.971001 -5.2355 -2.6125 -13.0803 
-4.6515 -8.4945 -12.6592 -11.6289 -9.715 -9.012 -7.695 -6.915 -7.7135 -13.6439 -14.215 -8.685 -5.4995 -6.0585 -10.092 -9.6595 -7.9805 -8.800501 -8.352 -11.8135 -11.4061 -9.764001 -6.3275 -14.5885 
-10.5225 -13.4857 -13.7602 -16.6079 -13.1874 -9.012 -10.7096 -12.0609 -13.6439 -16.7234 -14.215 -11.8107 -9.9805 -10.092 -10.763 -12.2459 -12.5254 -9.7585 -14.1059 -13.5651 -15.1991 -11.046 -18.5359 
-15.5137 -14.5867 -18.7392 -20.0803 -13.1874 -12.125 -15.8555 -17.9913 -16.7234 -16.7234 -17.3407 -16.2917 -14.136 -10.763 -13.3494 -16.7908 -13.4834 -15.7494 -15.8575 -17.3581 -16.4811 -23.2544 
