-4.759 
n/a 
n/a 
n/a 
n/a 
-4.759 
n/a 
n/a 
n/a 
n/a 
-4.759 
n/a 
n/a 
n/a 
n/a 
-4.759 
n/a 
n/a 
n/a 
n/a 
-3.4605 -4.1375 -2.7765 -3.527 -2.0935 -2.3615 
-7.3125 -6.8145 -6.535 -4.905 -3.854 
-9.786501 -11.3106 -9.732 -7.2235 
-14.4554 -14.5076 -12.1761 
-17.6524 -16.9517 
-3.16 -4.3345 -2.7765 -3.8115 -1.7695 -3.7765 
-6.389 -6.3255 -7.680501 -3.8325 -5.128 
-9.2745 -12.1051 -7.714001 -6.5915 
-15.2195 -12.1386 -10.13 
-15.253 -14.5546 
-3.432 -4.1645 -4.102 -2.8965 -4.484 0 
-8.370501 -8.369 -7.3545 -6.3475 -4.484 
-12.7598 -11.9587 -11.3381 -6.3475 
-16.3495 -15.9423 -11.3381 
-20.3331 -15.9423 
-4.4815 -3.325 -3.4985 -1.7695 -3.769 
-8.425501 -5.6905 -5.6065 -5.104 
-11.2184 -7.9095 -8.776 
-13.4374 -11.3576 
-16.8855 
