-4.759 
n/a 
n/a 
n/a 
n/a 
-4.759 
n/a 
n/a 
n/a 
n/a 
-4.759 
n/a 
n/a 
n/a 
n/a 
-4.759 
n/a 
n/a 
n/a 
n/a 
-1.4985 -9.868501 -3.177 -4.35 -7.9065 -1.7565 -3.818 -6.3765 -4.7715 -1.756 -6.033 -4.7715 -1.756 -7.802001 0 
-10.802 -13.1613 -6.494 -13.3553 -7.9455 -5.537 -8.813001 -6.955 -5.895 -7.2505 -6.728001 -5.895 -8.925 -7.802001 
-14.0948 -16.4783 -16.0369 -13.3943 -12.0878 -9.887501 -9.8345 -8.111 -9.264 -7.737 -7.958501 -13.8552 -8.925 
-17.4118 -26.0212 -16.0759 -17.5366 -16.4383 -10.5075 -10.9905 -10.1635 -9.6225 -9.09 -16.1861 -13.8552 
-26.9547 -26.0602 -20.2182 -21.8871 -17.0583 -11.6635 -13.043 -10.317 -10.9833 -17.4014 -16.1861 
-4.7885 -4.1455 -1.7565 -3.995 -2.186 -3.43 -1.7565 -4.661 -4.35 -1.7565 -9.663 0 -5.132 -1.756 -7.1155 -4.7715 0 
-6.302001 -5.11 -5.423 -5.7465 -4.64 -4.9095 -6.086501 -6.2905 -5.3865 -12.3687 -9.663 -5.132 -6.653501 -8.3025 -9.771001 -4.7715 
-6.596 -7.788001 -7.5575 -7.973001 -5.662001 -7.7175 -8.282001 -6.561501 -16.7235 -12.3687 -15.1624 -6.653501 -9.975501 -10.586 -9.771001 
-10.0995 -8.987 -9.777 -8.5505 -8.604501 -10.2434 -9.632001 -18.2609 -16.7235 -17.8681 -16.6839 -9.975501 -12.377 -10.586 
-12.0171 -10.7575 -10.3125 -11.8192 -11.1208 -11.5934 -21.3314 -18.2609 -22.2229 -19.3896 -20.0059 -12.377 -12.377 
-2.5045 -1.8085 -3.644 -4.2205 -4.412 0 -3.898 -4.7715 0 -5.132 0 -7.1155 -2.4945 -1.4985 -3.681 -2.9705 -2.186 -1.4985 -4.1255 -2.0935 -1.4985 -5.213 -2.229 -3.2295 -3.9785 
-3.3625 -4.899 -8.449 -9.0695 -4.412 -3.898 -8.534 -4.7715 -5.132 -5.132 -7.1155 -9.409 -3.9315 -4.9615 -5.784 -3.89 -3.339 -5.4345 -5.641 -2.9725 -5.7165 -6.6665 -5.650001 -7.725 
-6.603001 -9.391001 -13.4856 -9.0695 -8.948 -8.534 -8.534 -8.652 -5.132 -9.665001 -9.409 -10.704 -6.49 -6.5655 -7.338 -5.027 -8.4895 -7.2165 -6.6455 -7.4585 -6.751501 -10.6465 -9.881001 
-11.5444 -14.4618 -13.4856 -13.5915 -13.8464 -8.534 -12.6401 -8.652 -9.665001 -12.3443 -10.704 -13.2625 -7.969 -8.831 -8.3125 -9.7915 -10.4185 -7.953 -11.4969 -8.229 -10.7595 -14.8775 
-16.6152 -14.4618 -18.0076 -18.4899 -13.8464 -12.6401 -12.6401 -13.4704 -12.3443 -13.6393 -13.2625 -14.7415 -10.2639 -10.7495 -13.524 -12.2161 -11.155 -12.9612 -12.2674 -12.4468 -14.9905 
-1.4985 -3.995 -4.1455 -1.7565 -1.4985 -5.213 -4.0935 -2.645 -4.913 -1.7565 -1.4985 -5.132 -1.756 -7.1155 0 
-4.712 -6.749001 -5.11 -2.4195 -5.7165 -9.076 -6.058 -8.0585 -6.1855 -2.4195 -6.495 -6.653501 -8.3025 -7.1155 
-7.6385 -9.332001 -5.3235 -6.394001 -9.56 -11.1351 -12.4813 -9.529501 -6.9965 -7.384001 -7.989 -9.975501 -8.3025 
-9.605 -9.651001 -9.51 -10.1545 -11.6427 -17.5584 -13.9523 -10.3935 -10.5425 -8.7925 -11.4516 -9.975501 
-10.144 -14.2795 -13.3659 -12.5188 -18.066 -19.0294 -14.8163 -13.9395 -11.951 -12.3915 -11.4516 
