-4.759 
n/a 
n/a 
n/a 
n/a 
-4.759 
n/a 
n/a 
n/a 
n/a 
-4.759 
n/a 
n/a 
n/a 
n/a 
-4.759 
n/a 
n/a 
n/a 
n/a 
-4.5965 0 -8.4235 -3.778 -9.268001 0 -3.0835 -4.0275 -3.9825 -1.934 -5.1845 0 
-4.5965 -8.4235 -10.104 -10.2135 -9.268001 -3.0835 -6.8765 -7.633 -4.624 -6.564 -5.1845 
-13.4102 -10.104 -10.5925 -10.2135 -12.4837 -6.8765 -10.3345 -8.519501 -9.441001 -6.564 
-15.0907 -10.5925 -10.5925 -13.5668 -16.2767 -10.3345 -11.221 -13.6009 -9.441001 
-15.5792 -10.5925 -13.9458 -17.3598 -19.7347 -11.221 -16.3024 -13.6009 
-4.5965 0 -8.4235 -3.778 -9.268001 0 -1.934 -5.1845 -4.0275 -3.685 0 
-4.5965 -8.4235 -10.104 -10.2135 -9.268001 -1.934 -6.564 -10.821 -7.307 -3.685 
-13.4102 -10.104 -10.5925 -10.2135 -11.3342 -6.564 -12.8127 -14.1005 -7.307 
-15.0907 -10.5925 -10.5925 -12.4173 -15.9642 -12.8127 -16.0922 -14.1005 
-15.5792 -10.5925 -12.7963 -17.0473 -22.2129 -16.0922 -16.0922 
-4.5965 0 -8.4235 -3.778 -9.268001 0 -4.0275 -4.609 -1.934 -5.1845 0 
-4.5965 -8.4235 -10.104 -10.2135 -9.268001 -4.0275 -6.966001 -5.7275 -6.564 -5.1845 
-13.4102 -10.104 -10.5925 -10.2135 -13.4277 -6.966001 -9.784 -9.84 -6.564 
-15.0907 -10.5925 -10.5925 -14.5108 -16.3662 -9.784 -13.9747 -9.84 
-15.5792 -10.5925 -14.8898 -17.4493 -19.1842 -13.9747 -13.9747 
-4.5965 0 -8.4235 -3.778 -10.7225 0 -3.0835 -4.0275 -4.5185 -1.934 -5.1845 0 
-4.5965 -8.4235 -10.104 -14.8895 -10.7225 -3.0835 -6.8765 -7.596001 -6.3085 -6.564 -5.1845 
-13.4102 -10.104 -21.7761 -14.8895 -14.0174 -6.8765 -11.2128 -9.141001 -11.7389 -6.564 
-15.0907 -21.7761 -21.7761 -18.1844 -17.8104 -11.2128 -12.7578 -14.7754 -11.7389 
-26.7628 -21.7761 -25.071 -21.9774 -22.1467 -12.7578 -18.3922 -14.7754 
