-4.759 
n/a 
n/a 
n/a 
n/a 
-4.759 
n/a 
n/a 
n/a 
n/a 
-4.759 
n/a 
n/a 
n/a 
n/a 
-4.759 
n/a 
n/a 
n/a 
n/a 
-3.0365 -2.5645 -4.1115 -4.6465 -5.5025 -2.4945 -3.074 -3.333 -1.934 -3.676 -7.1745 -4.6675 -1.756 -9.696501 -3.8745 0 -3.4975 -4.426 -3.8375 -1.756 -3.4975 -8.265 0 -7.9735 -1.756 -4.1385 -3.5455 -10.272 -3.8745 
-6.894 -7.2745 -8.4235 -9.014 -7.4915 -4.4205 -4.8285 -4.374 -4.7985 -11.8975 -12.2618 -6.6045 -12.4611 -13.6638 -3.8745 -3.4975 -7.0055 -6.6895 -5.325 -5.427 -13.2529 -8.265 -7.9735 -9.5175 -5.779 -6.903 -15.3021 -14.1465 
-11.985 -12.0585 -13.0722 -11.2364 -9.52 -5.442 -5.5465 -7.923 -13.6026 -16.9848 -14.1988 -18.0806 -16.4284 -13.6638 -7.009501 -7.0055 -9.586 -8.661501 -9.188001 -15.5836 -13.2529 -17.0247 -9.5175 -13.8089 -8.671 -19.771 -19.1766 
-16.769 -16.7072 -15.2946 -13.2649 -10.5415 -6.5055 -10.3475 -17.0757 -18.6899 -18.9218 -25.6749 -22.0479 -16.4284 -16.7988 -7.4395 -9.586 -12.0068 -13.0531 -19.6074 -15.5836 -22.0126 -18.5687 -13.8089 -16.7009 -22.2562 -23.6455 
-21.4177 -18.9296 -17.3231 -14.2864 -11.605 -11.5985 -19.5002 -22.163 -20.6269 -30.3979 -29.6422 -22.0479 -19.5634 -17.2288 -13.4506 -12.0068 -16.3984 -23.4725 -19.6074 -24.3433 -23.5566 -22.8601 -16.7009 -30.2861 -26.1307 
-3.676 -3.7555 -3.8445 -4.1115 -4.418 0 -6.3655 -4.6085 -1.756 -4.426 -3.8745 -1.934 -4.572 -4.1115 0 -1.756 -3.676 -4.7 0 -5.9205 0 -1.756 -5.0605 -3.8745 -1.934 -4.1385 -3.5455 0 
-7.5305 -7.045 -8.5015 -7.8835 -4.418 -6.3655 -11.8592 -6.1935 -6.5815 -4.673 -6.057 -6.839 -6.439 -4.1115 -1.756 -5.918 -6.9455 -4.7 -5.9205 -5.9205 -1.756 -7.695 -5.172 -6.057 -6.352 -6.903 -3.5455 
-11.1574 -12.1206 -10.5535 -7.8835 -11.7507 -11.8592 -13.4442 -7.9145 -7.4995 -7.642 -8.978001 -8.632 -6.439 -5.537 -5.918 -9.416 -6.9455 -12.4017 -5.9205 -8.834001 -7.695 -8.583 -8.127 -8.952001 -8.9855 -6.903 
-16.233 -14.1726 -10.5535 -15.465 -17.2444 -13.4442 -15.1652 -7.927 -9.7635 -10.7025 -10.718 -8.632 -7.2265 -9.8675 -9.416 -9.416 -16.0978 -12.4017 -8.834001 -14.8986 -8.583 -10.375 -10.2035 -12.1549 -8.9855 
-18.285 -14.1726 -18.135 -20.9587 -18.8294 -15.1652 -15.1777 -10.172 -13.1292 -12.4425 -10.718 -10.4185 -12.3214 -13.2907 -9.416 -18.6529 -16.0978 -15.3152 -14.8986 -15.7866 -10.375 -12.8849 -14.6936 -12.1549 
-3.8445 -1.7695 -3.979 -1.7565 -4.1115 -3.676 -2.229 -1.756 -4.572 -1.7565 -3.676 -4.426 -3.8745 0 
-5.804 -5.528 -6.138 -5.857501 -8.636001 -4.593 -4.366 -5.8855 -8.040501 -4.4345 -7 -4.673 -3.8745 
-10.159 -8.835501 -10.76 -11.2502 -8.905001 -7.735001 -8.359 -9.650001 -11.1241 -8.346001 -8.257 -4.673 
-13.7977 -13.7429 -16.1527 -11.5192 -12.5886 -10.66 -12.4649 -12.6674 -15.0356 -8.3655 -8.257 
-18.7051 -19.1356 -16.4217 -15.2028 -15.5136 -14.7659 -15.4823 -16.5789 -15.0551 -8.3655 
-4.426 -1.7565 -1.4985 -3.6115 -4.7285 -4.1555 -3.147 -3.8445 -5.059 -1.934 -1.4985 -3.4975 -6.6895 -1.756 -8.7665 -3.4975 0 -1.756 -3.4975 -7.156 0 -9.554501 -1.756 -4.1385 -5.059 0 
-5.47 -2.4195 -4.081 -6.5495 -8.4455 -5.77 -7.382 -8.0935 -7.05 -2.6125 -4.3125 -11.6774 -8.457001 -9.951 -12.6642 -3.4975 -1.756 -5.427 -12.1439 -7.156 -9.554501 -11.7219 -5.779 -7.191 -5.059 
-5.9535 -5.180501 -6.670501 -9.978001 -9.541501 -9.8505 -12.0296 -10.001 -7.7055 -5.731 -13.3408 -13.4449 -16.978 -14.3373 -12.6642 -5.486 -5.427 -14.4746 -12.1439 -17.3637 -11.7219 -15.7449 -7.320001 -7.191 
-8.462501 -7.797 -10.054 -11.0524 -13.622 -14.4981 -13.9371 -10.693 -11.351 -15.1369 -15.1083 -21.9659 -21.3643 -14.3373 -14.6527 -7.844 -14.4746 -14.4746 -22.3516 -19.5311 -15.7449 -17.2859 -7.320001 
-10.2375 -11.2985 -11.1648 -15.1329 -18.2696 -16.4056 -14.6291 -15.0271 -20.7569 -16.9044 -23.6293 -26.3522 -21.3643 -16.3258 -17.0107 -17.5324 -14.4746 -24.6823 -24.519 -23.5541 -17.2859 -17.2859 
