-4.759 
n/a 
n/a 
n/a 
n/a 
-4.759 
n/a 
n/a 
n/a 
n/a 
-4.759 
n/a 
n/a 
n/a 
n/a 
-4.759 
n/a 
n/a 
n/a 
n/a 
-4.617 0 -6.1945 -6.7685 -8.402 
-4.617 -6.1945 -10.7025 -10.019 
-11.2057 -10.7025 -13.953 
-15.7137 -13.953 
-18.9642 
-4.617 0 -8.2135 -6.7685 -9.126 
-4.617 -8.2135 -9.6335 -10.209 
-11.0465 -9.6335 -10.2105 
-12.4665 -10.2105 
-13.0435 
-4.617 -8.2135 -6.7685 -12.16972 
-11.0465 -9.6335 -19.81362 
-12.4665 -23.87542 
-26.70842 
n/a 
-11.9925 -6.7685 -8.904 
-19.8228 -10.1725 
-23.2268 
n/a 
n/a 
