-4.759 
n/a 
n/a 
n/a 
n/a 
-4.759 
n/a 
n/a 
n/a 
n/a 
-4.759 
n/a 
n/a 
n/a 
n/a 
-4.759 
n/a 
n/a 
n/a 
n/a 
-14.852 -2.186 -2.871 -1.7565 -1.4985 -5.4805 -4.257 -3.9665 
-15.1265 -4.247 -3.5385 -2.4195 -6.528 -9.809 -7.689 
-16.0766 -4.411 -3.7675 -7.295501 -11.2165 -13.6086 
-16.2406 -4.5655 -9.4175 -12.1236 -15.0161 
-16.3951 -10.8791 -14.4786 -15.9232 
-1.934 -1.4985 -4.1115 0 -2.871 -4.651 -1.7565 -1.4985 -4.2285 -4.1115 -4.9785 -3.9665 
-2.6125 -4.843 -4.1115 -2.871 -7.114 -6.092 -2.4195 -5.319 -5.7285 -8.1245 -7.232501 
-6.0655 -4.843 -7.3415 -7.114 -7.904 -6.3135 -6.081501 -6.5125 -10.4035 -10.485 
-6.0655 -7.7435 -12.0021 -7.904 -8.0735 -10.6857 -7.277501 -11.6399 -12.764 
-8.495001 -12.5639 -12.7921 -8.0735 -12.6409 -11.8817 -12.9731 -14.0004 
-16.6605 -5.9855 -5.623 -1.7565 -5.4805 -4.5605 0 -1.934 -1.4985 -4.1115 0 
-20.3325 -12.7415 -6.8385 -7.0955 -8.990001 -4.5605 -1.934 -2.6125 -4.843 -4.1115 
-25.7236 -13.957 -12.7303 -11.116 -8.990001 -6.5845 -2.6125 -6.0655 -4.843 
-26.9391 -19.8488 -16.7508 -11.116 -10.7035 -7.2575 -6.0655 -6.0655 
-32.8309 -23.8693 -16.7508 -12.8295 -11.3765 -9.908 -6.0655 
-14.852 -1.934 -4.1115 0 -2.4265 -2.186 -2.871 -1.7565 -3.8275 -5.4805 0 
-13.9625 -6.27 -4.1115 -2.4265 -3.292 -4.247 -3.5385 -4.8265 -7.959001 -5.4805 
-16.8797 -6.27 -6.6315 -3.292 -5.5545 -4.411 -8.535501 -10.4765 -7.959001 
-16.8797 -9.637001 -7.1555 -5.5545 -5.691 -9.218 -14.5871 -10.4765 
-20.5661 -10.0765 -8.914001 -5.691 -10.7595 -15.3006 -14.5871 
