-4.759 
n/a 
n/a 
n/a 
n/a 
-4.759 
n/a 
n/a 
n/a 
n/a 
-4.759 
n/a 
n/a 
n/a 
n/a 
-4.759 
n/a 
n/a 
n/a 
n/a 
-1.4985 -4.582 -2.4945 -3.383 -3.818 0 -3.0415 -2.7035 -4.582 -2.4945 -4.9055 0 
-6.146 -6.2175 -4.732 -5.4155 -3.818 -3.0415 -6.0235 -8.3225 -6.2175 -6.66 -4.9055 
-7.507 -8.7135 -6.9355 -5.4155 -6.752501 -6.0235 -12.1873 -10.155 -10.089 -6.66 
-10.0035 -10.634 -6.9355 -7.918 -10.2877 -12.1873 -14.0198 -14.0265 -10.089 
-11.924 -10.634 -9.641001 -11.6048 -16.4515 -14.0198 -17.8913 -14.0265 
-10.1825 -4.685 -3.1435 -6.097 -2.264 -3.135 -1.7565 -1.4985 -4.798 -2.3335 -3.152 -3.0415 -4.2595 -1.7695 -4.305 -1.756 -4.9775 -1.7695 -4.2675 -1.4985 -4.8835 -4.1635 
-15.0197 -7.149501 -8.224 -8.417 -4.988 -3.9195 -2.4195 -5.6545 -6.160501 -4.664001 -5.4325 -6.1875 -4.663 -4.667 -6.206501 -6.3735 -5.224501 -4.8665 -5.025001 -5.37 -10.143 
-17.4842 -12.6814 -10.513 -11.5538 -5.699501 -4.168 -7.078501 -7.484 -8.487 -6.95 -8.047001 -6.5365 -7.3195 -6.5875 -11.8116 -6.4655 -6.7465 -5.5985 -9.734 -10.442 
-23.0161 -14.9704 -13.6498 -12.2653 -5.897 -8.304001 -8.368501 -9.073 -10.9928 -8.2745 -8.1625 -9.4905 -8.4925 -12.4686 -11.9036 -8.0675 -7.241001 -9.948001 -15.07 
-25.3051 -18.1072 -14.3613 -12.4628 -10.103 -9.360001 -9.896001 -11.8292 -12.3173 -8.293 -11.7503 -10.8983 -14.6042 -12.5606 -13.5056 -8.517501 -11.7749 -15.4602 
-3.5445 -2.3335 -4.191 -4.1645 -3.135 -1.7565 -3.277 -2.4945 -3.383 -4.9105 -1.756 -5.9115 -4.5275 -2.3615 -4.87 -2.6165 -4.2675 -1.4985 -4.642 -3.333 0 
-5.749001 -6.892 -8.2875 -7.618501 -3.9195 -4.25 -5.237 -4.732 -7.2005 -6.2585 -7.057 -9.768001 -6.417 -8.764501 -8.471001 -5.4155 -5.025001 -5.695001 -8.053 -3.333 
-9.147501 -11.4753 -12.4529 -8.427 -5.3165 -5.3725 -7.0635 -8.6055 -8.0225 -11.4845 -12.5294 -11.9709 -13.1372 -12.9163 -11.6908 -6.2635 -10.354 -9.113501 -8.053 
-14.3366 -15.6407 -13.2614 -9.6625 -6.112 -7.12 -10.5035 -9.147501 -13.9473 -17.1893 -14.0115 -18.9549 -17.289 -16.1361 -12.5388 -11.7859 -13.7725 -9.113501 
-18.502 -16.4492 -14.4969 -10.506 -7.6115 -10.5855 -11.0455 -15.1725 -19.1943 -18.5588 -20.9955 -23.1067 -20.5088 -16.9841 -18.0612 -15.2044 -13.7725 
-2.5045 -3.135 -1.7565 -1.4985 -3.8585 -3.152 -3.6245 -3.818 0 -4.87 -6.127 -2.7455 -2.985 -4.656 -1.756 -3.5745 -2.6165 -4.2675 -1.4985 -4.8835 -4.4925 0 
-5.304 -3.9195 -2.4195 -4.796 -6.541 -5.786 -5.6965 -3.818 -4.87 -12.3516 -8.877501 -4.943 -7.922 -6.6155 -5.2215 -4.114 -5.4155 -5.025001 -5.37 -9.4215 -4.4925 
-5.917 -4.168 -5.95 -7.6005 -8.741 -7.972 -5.6965 -10.8415 -12.3516 -15.1021 -9.682 -9.650001 -9.421 -9.842 -5.566 -6.762 -6.2635 -9.734 -9.609501 -9.4215 
-6.154 -7.343501 -8.709001 -9.509501 -11.4224 -7.972 -13.3076 -18.3231 -15.1021 -15.9066 -15.0948 -11.3452 -12.6925 -10.085 -8.334001 -7.199 -11.1659 -14.2375 -9.609501 
-9.625501 -9.423501 -10.7824 -12.2333 -11.4224 -15.9707 -20.7892 -21.0736 -15.9066 -21.3194 -16.79 -14.6167 -12.9355 -12.853 -8.927 -12.2398 -15.6694 -14.2375 
