-4.759 
n/a 
n/a 
n/a 
n/a 
-4.759 
n/a 
n/a 
n/a 
n/a 
-4.759 
n/a 
n/a 
n/a 
n/a 
-4.759 
n/a 
n/a 
n/a 
n/a 
-3.1575 -1.4985 -10.6015 -2.186 -5.1605 -2.3345 -1.4985 -3.757 0 -2.8965 -4.088 -3.9675 -4.2245 -4.0675 -4.9295 0 
-4.1355 -13.1938 -12.7875 -6.7155 -6.162 -3.233 -4.5435 -3.757 -2.8965 -5.4645 -9.815001 -9.067 -8.5415 -9.6715 -4.9295 
-16.1166 -15.3798 -17.317 -7.06 -6.7815 -5.679 -4.5435 -6.735001 -5.4645 -11.7231 -15.1029 -13.3686 -14.1689 -9.6715 
-18.3026 -19.9093 -17.6615 -7.629 -9.7865 -5.679 -6.808001 -10.654 -11.7231 -17.011 -19.4045 -18.996 -14.1689 
-22.8321 -20.2538 -18.2305 -10.218 -9.7865 -8.949 -11.695 -16.9126 -17.011 -21.3126 -25.0319 -18.996 
-2.8965 -4.088 -6.785501 -2.3345 -4.445 -1.756 -4.0675 -4.465 -2.3345 -3.757 0 
-5.4645 -11.9777 -7.009501 -6.0405 -5.899 -6.1095 -7.426001 -5.2135 -5.775001 -3.757 
-13.8858 -12.2017 -11.5243 -8.4965 -10.7175 -9.037001 -7.6195 -8.9975 -5.775001 
-14.1098 -16.7165 -13.9803 -13.6058 -13.645 -9.265 -11.6721 -8.9975 
-18.6246 -19.1725 -19.0896 -16.5333 -13.873 -13.422 -11.6721 
-2.8965 -4.0375 -4.846 -2.4945 -5.1605 -2.3345 -5.189 -3.0695 -2.4945 -4.648 -2.3345 -3.757 -1.756 -3.6955 -1.7695 -1.4985 -3.926 -3.4985 -1.7565 -3.757 0 
-7.268 -7.251501 -6.9825 -7.1225 -6.162 -7.660501 -7.3065 -4.2085 -6.1895 -5.442 -5.775001 -4.8735 -5.3915 -4.4705 -2.7955 -5.1875 -6.383 -4.622 -5.584 -3.757 
-9.690001 -8.999001 -10.382 -7.4215 -9.536 -9.379001 -8.066501 -7.1765 -6.574501 -7.1105 -7.533 -9.4775 -6.275 -5.2635 -6.6025 -7.188001 -6.8945 -9.026501 -5.584 
-11.5581 -10.7575 -10.7145 -10.586 -10.42 -10.0075 -9.394 -7.454 -9.373501 -9.605 -12.675 -9.9025 -7.0735 -9.7805 -8.667001 -7.2435 -10.103 -9.026501 
-13.3166 -11.09 -13.879 -11.47 -11.0485 -11.335 -9.505 -10.486 -12.2528 -15.0362 -13.1 -11.1306 -11.6951 -11.8972 -8.714001 -10.2275 -10.103 
-1.934 -2.8965 -4.0375 -4.846 0 -1.4985 -4.445 -3.84 -3.0695 -2.7415 -4.648 -2.3345 -1.4985 -3.7745 -3.5435 -1.756 -2.3345 -3.926 -3.4985 -1.7565 -1.4985 -3.757 
-4.391 -7.268 -7.251501 -4.846 -1.4985 -5.0495 -9.213501 -7.402 -4.6395 -5.5585 -5.442 -3.233 -4.753 -5.717 -4.862 -4.614 -5.988 -6.383 -4.622 -2.4195 -4.5435 
-9.297 -9.690001 -7.251501 -6.6165 -5.0495 -9.5045 -13.0763 -9.676001 -6.992001 -6.6215 -5.5955 -6.228 -6.116 -6.848001 -7.400001 -7.8265 -8.9825 -6.8945 -5.215 -5.456501 
-11.8372 -9.690001 -8.684501 -9.747001 -9.5045 -13.6427 -15.3503 -12.1769 -7.686501 -7.021501 -8.131001 -6.9605 -7.1755 -9.127001 -10.9721 -10.634 -9.2675 -7.224 -8.2755 
-11.8372 -11.2436 -11.9726 -14.5304 -13.6427 -15.9167 -17.8512 -12.8714 -8.161501 -9.765 -8.328501 -7.995 -9.412001 -12.9131 -13.7796 -10.779 -9.443001 -9.033501 
