-4.759 
n/a 
n/a 
n/a 
n/a 
-4.759 
n/a 
n/a 
n/a 
n/a 
-4.759 
n/a 
n/a 
n/a 
n/a 
-4.759 
n/a 
n/a 
n/a 
n/a 
-2.5195 -10.4215 
-13.6146 
n/a 
n/a 
n/a 
-2.5195 -2.7035 -1.7695 -3.6645 
-5.3855 -5.205 -5.332 
-6.3005 -7.964 
-8.4455 
n/a 
-2.5195 -2.7035 -1.7695 -3.6645 0 -9.7495 -9.941501 -8.4165 0 
-5.3855 -5.205 -5.332 -3.6645 -9.7495 -10.204 -10.115 -8.4165 
-6.3005 -7.964 -5.332 -13.862 -10.204 -10.212 -10.115 
-8.4455 -7.964 -16.3765 -14.3165 -10.212 -10.212 
-8.4455 -19.1595 -16.831 -14.3245 -10.212 
-2.5195 -2.7035 -1.7695 -3.6645 
-5.3855 -5.205 -5.332 
-6.3005 -7.964 
-8.4455 
n/a 
