-4.759 
n/a 
n/a 
n/a 
n/a 
-4.759 
n/a 
n/a 
n/a 
n/a 
-4.759 
n/a 
n/a 
n/a 
n/a 
-4.759 
n/a 
n/a 
n/a 
n/a 
-3.531 -3.1635 0 -1.8085 -4.692 -4.264 -5.011 -4.8505 -1.4985 -3.6885 -5.994 -6.064 -1.934 -4.8735 0 
-5.4845 -3.1635 -1.8085 -5.942 -9.972501 -9.589001 -7.9025 -6.1545 -4.992001 -6.4135 -6.397 -7.8255 -5.892 -4.8735 
-5.4845 -5.762 -5.942 -11.9901 -15.4387 -12.6309 -8.591001 -10.13 -6.6115 -6.4295 -8.114 -8.937 -5.892 
-8.603001 -9.616 -11.9901 -17.4563 -18.4806 -13.3194 -12.9075 -11.7495 -6.6235 -8.1715 -8.9945 -8.937 
-12.5574 -15.7731 -17.4563 -20.4982 -19.1691 -17.6359 -14.527 -11.7615 -8.284 -9.005 -8.9945 
-3.531 -3.1635 0 -1.4985 -5.1035 -1.7565 -4.6645 -7.4245 0 -3.251 -1.7695 -2.489 -5.011 -4.907 -3.2615 -3.1435 -4.692 -4.1665 -4.09 -1.8085 -5.923 
-5.4845 -3.1635 -1.4985 -6.0895 -5.786 -6.4255 -12.9686 -7.4245 -3.251 -4.3285 -3.1405 -6.321 -6.8535 -6.886 -5.7295 -7.4735 -9.545501 -8.1055 -5.1625 -7.002 
-5.4845 -5.4855 -6.0895 -6.146 -11.3578 -15.1702 -12.9686 -12.9525 -4.3285 -5.192 -7.335 -7.780001 -8.924001 -9.781 -10.5325 -12.7966 -13.7661 -10.0315 -9.632 
-7.5895 -10.199 -6.146 -11.862 -20.1025 -15.1702 -18.4966 -14.03 -5.192 -8.555 -8.7465 -10.013 -12.1806 -14.6346 -16.4764 -17.0172 -15.6921 -14.501 
-12.737 -10.6675 -11.862 -20.6067 -20.1025 -20.6982 -19.5741 -14.8935 -8.555 -9.526501 -10.9825 -13.4876 -17.0342 -20.5785 -20.697 -18.9432 -20.1616 
-3.531 -3.1635 -2.5045 -4.8735 -3.6135 -4.959 -5.851501 -1.756 -5.0735 -3.9665 -3.6615 -5.851501 -1.756 -4.69 
-5.4845 -5.7845 -6.4305 -9.1245 -9.4445 -10.66 -7.3525 -7.256001 -8.863001 -7.509501 -10.27 -7.3525 -6.1965 
-7.754 -10.494 -11.5815 -15.5269 -15.1839 -12.161 -13.3991 -11.3261 -12.511 -14.6078 -11.771 -12.3396 
-12.7871 -15.645 -17.9839 -21.2663 -16.6849 -18.2076 -17.4692 -14.9741 -19.6093 -16.1088 -16.7581 
-17.9381 -22.0474 -23.7233 -22.7673 -22.7315 -22.2777 -21.1172 -22.0724 -21.1103 -21.0959 
-3.531 -3.1635 -8.690001 -2.7415 -4.69 -6.533 -3.4985 -5.0735 -4.5105 -1.7695 -3.7455 -2.5045 -4.8735 
-5.4845 -12.3917 -11.8307 -6.2025 -10.688 -9.618501 -9.379001 -10.5645 -5.062 -5.423501 -6.23 -6.4305 
-15.7993 -15.5324 -15.2917 -13.0513 -13.7735 -15.701 -15.0464 -11.116 -7.8325 -7.146501 -10.7564 
-18.94 -18.9934 -22.1405 -16.1368 -19.856 -21.3684 -15.5979 -13.8865 -9.636001 -12.3291 
-22.401 -25.8422 -25.226 -22.2193 -25.5234 -21.9199 -18.3684 -15.69 -15.1344 
