-4.759 
n/a 
n/a 
n/a 
n/a 
-4.759 
n/a 
n/a 
n/a 
n/a 
-4.759 
n/a 
n/a 
n/a 
n/a 
-4.759 
n/a 
n/a 
n/a 
n/a 
-4.2095 -3.1405 -1.756 -3.047 -2.857 -4.1215 
-6.780001 -4.618 -4.7285 -5.342 -7.0035 
-8.981501 -7.3865 -7.004 -8.8 
-12.085 -8.6105 -10.688 
-13.309 -12.6025 
-8.184501 -4.651 -3.778 -8.68 -4.651 
-10.8025 -7.987 -12.847 -13.6992 
-14.1385 -17.4616 -17.8662 
-23.6131 -22.4808 
-28.6323 
-3.047 -3.1405 -3.7825 -2.857 -4.1215 
-5.633 -6.9055 -6.226 -7.0035 
-9.604 -8.302 -10.9913 
-11.1733 -13.4867 
-16.358 
-3.047 -3.1405 -1.756 -2.857 -4.1215 
-5.633 -4.618 -4.669 -7.0035 
-6.915 -5.557 -8.974001 
-7.802501 -10.0035 
-12.7218 
