-4.759 
n/a 
n/a 
n/a 
n/a 
-4.759 
n/a 
n/a 
n/a 
n/a 
-4.759 
n/a 
n/a 
n/a 
n/a 
-4.759 
n/a 
n/a 
n/a 
n/a 
-4.384 -5.7475 -4.116 -2.742 -4.567 -3.7965 -4.1375 -5.377 
-11.2643 -11.08 -6.652 -8.419001 -10.688 -8.5655 -8.797501 
-16.5968 -13.616 -12.715 -14.86 -15.457 -13.9949 
-19.1328 -19.679 -19.156 -19.629 -20.8864 
-25.1958 -26.12 -23.925 -25.0584 
-3.937 -1.4985 -4.6865 -2.264 -2.985 -4.9835 0 -2.186 -2.6165 -4.1205 -2.5045 -4.7065 0 0 -6.8465 0 0 
-5.113501 -5.6875 -6.34 -4.3835 -6.8335 -4.9835 -2.186 -3.5105 -5.554 -5.3175 -6.929 -4.7065 0 -5.8385 -5.8385 0 
-9 -7.830501 -8.539001 -8.400001 -6.8335 -7.2275 -3.5105 -6.040501 -6.9215 -9.786501 -6.929 -4.7065 -5.8385 -5.8385 -5.8385 
-11.158 -10.238 -12.8845 -8.400001 -9.205501 -8.54 -6.040501 -7.377501 -11.5167 -9.786501 -6.929 -11.137 -5.8385 -5.8385 
-13.5655 -14.5835 -12.8845 -11.008 -10.5435 -11.5242 -7.377501 -12.2703 -11.5167 -9.786501 -13.7557 -11.137 -5.8385 
-3.0365 -2.186 -4.7065 -1.934 -3.937 -1.4985 -3.213 -2.3335 -2.186 -3.433 -1.7565 -2.3585 -4.116 
-3.66 -6.934 -6.522 -5.479 -5.113501 -4.3955 -5.2465 -3.7085 -5.0505 -4.1845 -4.5045 -7.893 
-8.237 -8.373 -9.0695 -6.851 -6.544001 -5.9605 -6.2065 -6.2295 -5.977 -6.4115 -9.206 
-8.815001 -11.2611 -10.9319 -8.033 -7.798501 -7.0485 -9.106501 -7.3855 -7.9165 -11.3466 
-12.0997 -13.1235 -12.1139 -9.259001 -8.995501 -10.7575 -10.61 -9.433001 -13.3752 
-4.116 -1.7695 -4.3585 -1.7565 -6.494 -9.032001 -6.8465 
-5.911 -6.725501 -6.89 -9.003 -16.746 -15.0341 
-11.6122 -9.698501 -14.9491 -18.821 -22.7481 
-14.5852 -17.9074 -24.7671 -24.8231 
-22.7941 -27.7254 -30.7692 
