-4.759 
n/a 
n/a 
n/a 
n/a 
-4.759 
n/a 
n/a 
n/a 
n/a 
-4.759 
n/a 
n/a 
n/a 
n/a 
-4.759 
n/a 
n/a 
n/a 
n/a 
-3.4775 -4.138 -1.7565 -4.442 -4.3705 -1.756 -5.013 -4.6955 -4.442 -3.074 0 
-7.1665 -5.1845 -5.6725 -7.066501 -5.494 -6.319 -10.5535 -8.375 -7.362 -3.074 
-10.396 -10.702 -8.5 -7.7825 -9.778001 -12.2825 -14.233 -11.3836 -7.362 
-15.9135 -13.5295 -8.8135 -12.6385 -16.8189 -15.962 -17.2416 -11.3836 
-18.741 -13.843 -13.8107 -19.6794 -20.4984 -18.9706 -17.2416 
-3.147 -3.3715 -4.442 -2.4945 -3.7875 -4.5145 -1.756 -4.3705 -3.074 0 
-6.6775 -6.923 -5.9795 -5.3155 -8.423 -5.8105 -5.9015 -7.632 -3.074 
-10.434 -8.1105 -9.726001 -10.8436 -9.759001 -7.219 -8.8255 -7.632 
-11.6215 -12.1844 -15.3369 -12.1796 -10.7365 -9.908 -8.8255 
-15.6954 -17.7953 -16.6729 -13.1571 -13.4255 -9.908 
-3.17 -1.7565 -1.4985 -4.442 0 -5.5365 -4.2335 -2.4945 -10.3 -9.127001 
-4.179 -2.4195 -5.455501 -4.442 -5.5365 -6.135 -5.851 -14.2227 -19.5908 
-4.497 -6.329 -5.455501 -7.7795 -6.135 -8.1765 -18.1798 -23.5135 
-7.8305 -6.329 -9.908001 -8.838501 -8.1765 -20.6801 -27.4706 
-7.8305 -10.674 -11.0856 -11.4602 -20.6801 -29.9709 
-1.934 -3.1015 -1.8085 -3.4795 -4.138 -6.365 -2.4945 -5.5365 -1.756 -12.16972 -4.9545 0 
-5.5245 -5.0505 -6.392 -6.815001 -11.1355 -8.819 -7.849 -7.015 -14.93432 -17.12422 -4.9545 
-7.8125 -6.6635 -10.6735 -14.8139 -13.5895 -14.2443 -8.8655 -20.86752 -19.88882 -17.12422 
-9.182501 -10.733 -18.6724 -17.2679 -19.0148 -15.2608 -22.84922 -25.82202 -19.88882 
-13.316 -18.7319 -21.1264 -22.6932 -20.0313 -29.24452 -27.80372 -25.82202 
