-4.759 
n/a 
n/a 
n/a 
n/a 
-4.759 
n/a 
n/a 
n/a 
n/a 
-4.759 
n/a 
n/a 
n/a 
n/a 
-4.759 
n/a 
n/a 
n/a 
n/a 
-1.4985 -3.729 -2.7415 -4.0835 -2.3345 -5.4175 -10.033 -1.934 -3.941 -1.7565 -3.091 -5.408 -4.284 -2.356 -6.3485 -4.1645 -1.756 -4.834 -3.458 -5.823 -1.7695 -5.829 0 
-4.763 -5.9115 -5.341001 -5.376501 -7.4875 -16.1669 -12.073 -5.245 -5.2205 -4.0655 -7.065001 -8.660501 -6.607 -8.92 -9.021 -5.322001 -6.2725 -7.2335 -9.091001 -8.408001 -8.6995 -5.829 
-6.2665 -7.176 -6.358 -8.4195 -18.8483 -18.2069 -15.384 -5.593 -6.863501 -8.0515 -9.335001 -11.2879 -12.7483 -10.9 -9.913501 -10.586 -8.929 -10.286 -12.668 -15.6286 -8.6995 
-7.748 -8.498501 -9.141001 -21.2655 -20.8883 -21.5179 -15.732 -7.204 -10.4675 -10.3035 -12.0176 -17.4292 -15.5763 -11.8865 -15.4202 -13.2425 -12.0195 -13.7964 -19.8886 -15.6286 
-9.054001 -11.3721 -21.5762 -23.3055 -24.1993 -21.8659 -17.343 -10.7015 -12.8355 -12.9861 -18.1589 -20.2572 -16.7033 -17.5297 -18.1437 -16.333 -15.5299 -21.017 -19.8886 
-2.3615 -2.186 -4.0835 -2.3345 -6.483 -5.228 -5.4175 -6.7085 -2.5045 -1.8085 -5.813 -5.3315 -2.0935 -3.091 -4.0285 -4.284 -2.3615 -2.186 -4.0835 -3.458 -2.5195 -5.823 -1.7695 -5.829 -3.3425 -4.597 -3.2495 -4.335 -1.7565 -4.5655 0 
-3.5005 -5.3675 -5.376501 -8.413501 -7.5245 -7.8955 -7.1765 -8.929001 -3.3625 -6.4995 -8.785501 -7.27 -4.5345 -5.9325 -7.853 -6.981 -3.5005 -5.3675 -6.697001 -7.4255 -8.601 -8.408001 -8.6995 -10.281 -8.0315 -5.86 -7.9455 -4.436 -6.037001 -4.5655 
-7.666501 -7.073501 -8.8625 -8.639501 -8.234 -7.9805 -8.979 -9.097 -8.132 -9.2505 -9.883 -9.07 -7.7495 -8.379 -10.4345 -7.756001 -7.666501 -8.453001 -11.3201 -13.8142 -9.2185 -15.6286 -13.1825 -15.1372 -9.7355 -10.1725 -8.53 -7.673 -6.037001 
-9.4125 -11.0073 -8.910001 -8.9505 -8.304001 -9.169001 -9.110001 -14.5995 -10.451 -9.962 -10.7635 -10.6215 -9.302001 -11.3547 -11.2095 -12.0814 -11.029 -13.3907 -17.7088 -14.4317 -16.7171 -20.1116 -18.0387 -16.8412 -14.1098 -10.9282 -12.3558 -7.673 
-13.5063 -11.0548 -9.189501 -8.989 -9.487 -9.255 -14.6363 -16.9185 -10.578 -10.765 -12.315 -10.738 -12.6955 -12.1297 -15.5349 -15.4439 -15.9667 -19.7794 -18.3263 -21.9303 -21.2001 -24.9678 -19.7427 -21.2155 -14.8655 -14.754 -12.3558 
-2.3615 -3.729 -2.186 -4.0835 -2.3345 -5.845 -5.228 -5.4175 -6.7085 -1.934 -9.309501 -1.7565 -3.091 -3.809 -4.284 -6.942 -5.9185 0 -1.8085 -3.5085 -1.7565 -6.3485 -4.1645 -3.152 -4.75 -1.7695 -3.859 -3.86 -3.213 -4.2225 -3.458 -1.4985 -3.158 -12.16972 
-6.068501 -5.6265 -5.3675 -5.376501 -8.3465 -8.523001 -7.8955 -7.1765 -8.272501 -10.2925 -10.159 -4.0655 -6.28 -6.9505 -8.217001 -7.795001 -5.9185 -1.8085 -4.6755 -4.8005 -8.1105 -9.021 -6.1555 -6.4525 -6.132 -4.462 -8.835501 -7.81 -6.55 -7.219001 -4.063 -4.178 -16.41992 
-6.9685 -8.006001 -7.073501 -10.2135 -10.2645 -9.439501 -7.9805 -8.325 -17.3702 -10.495 -12.4846 -7.0935 -7.5105 -10.533 -8.279 -7.795001 -8.056001 -4.6755 -4.927 -8.8745 -10.235 -10.315 -8.7215 -7.716001 -8.8875 -8.927 -11.5855 -10.862 -9.175501 -8.164001 -7.798 -17.66332 
-9.440001 -10 -12.3583 -10.383 -10.428 -9.51 -8.6405 -17.6485 -17.5727 -12.8206 -15.5126 -8.4905 -10.5535 -10.5705 -8.279 -9.7775 -11.2116 -4.927 -8.5825 -11.2545 -11.639 -12.6265 -10.2435 -10.0035 -13.3685 -12.2497 -15.5014 -14.0292 -10.1765 -10.5535 -21.82832 
-11.5512 -15.3274 -12.5278 -10.5235 -10.4985 -10.3915 -18.1742 -17.851 -19.8983 -15.8486 -16.9096 -10.564 -10.571 -10.5705 -9.927501 -13.2741 -11.4631 -8.578501 -11.414 -13.1891 -14.0881 -13.9125 -12.531 -14.5499 -17.1886 -15.8368 -18.3024 -14.4367 -12.8074 -24.58382 
-2.3615 -3.729 -2.186 -4.0835 -2.3345 -6.483 -5.228 -5.4175 -6.7085 -2.0935 -1.4985 -3.941 -1.7565 -3.091 -3.809 -4.284 -6.942 -10.262 -6.3485 -5.037 -1.934 -1.4985 -3.9195 -2.5195 -5.823 -1.7695 -4.893 0 
-6.068501 -5.6265 -5.3675 -5.376501 -8.413501 -7.5245 -7.8955 -7.1765 -9.057 -2.9725 -5.133 -5.2205 -4.0655 -6.28 -6.9505 -8.217001 -12.834 -16.584 -11.07 -5.1315 -2.6125 -4.9505 -6.8405 -8.601 -8.408001 -7.2275 -4.893 
-6.9685 -8.006001 -7.073501 -8.8625 -8.639501 -8.234 -7.9805 -9.16 -10.323 -6.8475 -5.817501 -6.863501 -7.0935 -7.5105 -10.533 -13.8548 -17.0183 -19.574 -10.8695 -5.5325 -5.8125 -8.283501 -13.2102 -9.2185 -14.1566 -7.2275 
-9.440001 -10 -11.0073 -8.910001 -8.9505 -8.304001 -9.48 -10.4425 -14.198 -7.744 -7.352001 -9.6245 -8.4905 -10.5535 -16.5165 -17.8725 -22.3017 -19.9139 -11.1085 -8.233 -9.504001 -14.8174 -13.8277 -15.2451 -14.1566 
-11.5512 -13.9764 -11.0548 -9.189501 -8.989 -9.772 -11.0435 -14.3175 -15.0945 -9.014001 -10.1065 -10.1055 -10.564 -17.0658 -20.7128 -23.1559 -22.3272 -19.9554 -13.5156 -12.4245 -16.2171 -15.4349 -19.8543 -15.2451 
