-4.759 
n/a 
n/a 
n/a 
n/a 
-4.759 
n/a 
n/a 
n/a 
n/a 
-4.759 
n/a 
n/a 
n/a 
n/a 
-4.759 
n/a 
n/a 
n/a 
n/a 
-9.335501 -1.756 -3.9465 -4.0415 -5.867 -3.4765 -1.4985 -3.8275 -3.498 -1.7565 -4.4905 -1.7695 -4.2615 -1.756 -3.8275 -1.4985 -4.0655 0 
-11.4655 -5.895 -8.3655 -9.498 -8.966001 -4.778 -4.726 -7.671 -4.005 -6.527501 -5.339001 -4.7355 -5.965 -5.858 -5.4605 -6.111 -4.0655 
-15.6045 -10.328 -14.1188 -12.9814 -10.3165 -8.3055 -8.4075 -8.489 -9.896501 -8.662001 -7.707001 -6.606 -10.8872 -7.398 -10.275 -6.111 
-20.0375 -16.0813 -17.6022 -14.3319 -13.844 -12.1468 -9.404 -14.6421 -12.101 -11.2154 -9.5795 -12.2186 -12.4272 -12.4235 -10.275 
-25.7908 -19.5647 -18.9527 -17.8594 -17.6853 -13.1433 -15.7091 -16.8466 -14.6544 -13.0879 -15.2943 -13.7586 -17.4527 -12.4235 
-4.013 -6.009 -1.756 -3.9465 -3.152 -3.074 -4.75 -1.934 -4.0415 -4.991 0 -1.934 -2.664 -4.467 -1.7695 -3.498 -1.4985 -3.8275 0 -2.9805 -2.7415 -4.3895 -1.7695 -4.319 -3.9485 -2.356 -3.277 
-10.048 -7.783501 -5.895 -7.151501 -5.0635 -6.8425 -4.981 -5.927001 -8.800501 -4.991 -1.934 -4.0475 -5.164 -4.6455 -4.8045 -5.105 -4.726 -3.8275 -2.9805 -4.004 -5.707 -5.1055 -4.9595 -7.822001 -4.311 -4.76 
-12.0315 -12.2659 -7.775001 -8.9335 -8.283501 -6.9805 -7.958 -11.4386 -8.800501 -6.3785 -4.0475 -5.562 -5.282 -7.602 -5.6915 -6.6675 -4.726 -6.1635 -4.004 -7.179 -6.4595 -7.293 -8.319 -8.131001 -6.726501 
-16.5139 -14.1459 -9.422501 -12.2203 -8.432501 -10.2435 -14.2828 -11.4386 -9.351501 -8.337 -5.562 -5.5705 -8.0065 -8.0735 -6.898 -6.6675 -6.6115 -6.943501 -7.179 -7.278501 -8.631001 -10.749 -8.828501 -9.794001 
-18.3939 -15.7934 -12.7415 -12.3693 -11.6995 -16.5683 -14.2828 -11.9896 -11.8782 -10.238 -5.5705 -8.146501 -8.4235 -9.1775 -6.898 -8.743501 -7.3865 -10.442 -7.278501 -9.290001 -12.2212 -11.2585 -10.092 
-6.982501 -1.756 -3.9465 -2.4945 -4.779 -1.4985 -4.0415 -7.398 -2.5045 -2.3335 -3.486 -2.95 -2.925 -3.5745 -5.651501 -3.89 -1.7695 -3.498 -1.7565 -1.4985 -3.8275 0 -2.9805 -4.626 -1.7695 -4.866 -3.7015 -1.4985 -3.8275 0 
-8.593 -5.895 -6.920001 -9.111 -5.5795 -4.9725 -12.8361 -9.431 -4.744 -5.3955 -4.563 -5.224 -4.941 -9.1155 -9.668501 -5.015 -4.8045 -4.005 -2.4195 -4.726 -3.8275 -2.9805 -7.777501 -4.685501 -6.125501 -6.1515 -4.3435 -4.726 -3.8275 
-9.663501 -7.5365 -13.7809 -10.3415 -9.273001 -14.1993 -14.8691 -12.2709 -7.074 -6.974 -6.345 -7.274 -8.873 -13.022 -11.771 -8.494 -6.0545 -4.3765 -5.547 -4.726 -6.1635 -7.777501 -7.817001 -8.7115 -7.439001 -6.7685 -6.416 -4.726 
-12.236 -14.6128 -15.0114 -14.035 -18.608 -16.2323 -17.709 -14.6009 -7.6685 -9.191501 -8.571 -11.3045 -14.9597 -15.0332 -15.8082 -10.1598 -7.4215 -6.498 -5.547 -6.6115 -11.4527 -7.817001 -12.0534 -10.1635 -8.015501 -8.9325 -6.416 
-19.3123 -15.8433 -18.7049 -23.37 -20.641 -19.0722 -20.039 -15.1954 -9.526501 -11.4755 -12.7029 -17.5379 -16.4069 -19.0704 -17.474 -11.5268 -9.700001 -6.498 -7.347 -12.0679 -11.4922 -12.0534 -13.5054 -10.7405 -10.341 -8.9325 
-5.2055 -3.982 -3.251 -3.1125 -1.4985 -3.777 -1.7565 -1.4985 -4.92 -1.7565 -5.8295 0 -1.756 -4.064 -5.0775 -2.3335 -1.4985 -4.9845 -1.7565 -5.2055 -3.982 -6.897501 
-6.2635 -7.002 -4.28 -4.8735 -4.588 -4.411 -2.4195 -5.5575 -5.8365 -6.6635 -5.8295 -1.756 -5.6495 -8.5765 -5.344 -3.3515 -5.689 -5.5385 -6.568 -6.2635 -11.6617 
-8.441 -8.019 -6.0445 -6.9285 -4.945 -5.008 -6.098001 -6.159 -7.105 -6.6635 -7.353 -5.6495 -9.039001 -8.7615 -5.866 -7.783 -5.77 -8.859501 -7.1425 -14.6594 
-9.5975 -9.422501 -8.243 -6.9925 -5.645 -8.507501 -6.791 -7.2445 -7.105 -7.848001 -11.7193 -9.039001 -9.2275 -9.227 -9.677 -7.834501 -8.9665 -10.377 -15.7466 
-11.0192 -11.6972 -8.297001 -7.9475 -9.467501 -8.7285 -7.774 -7.2445 -8.2295 -12.3669 -15.1088 -9.2275 -9.645 -13.1176 -9.705001 -11.2234 -10.923 -18.9811 
