-4.759 
n/a 
n/a 
n/a 
n/a 
-4.759 
n/a 
n/a 
n/a 
n/a 
-4.759 
n/a 
n/a 
n/a 
n/a 
-4.759 
n/a 
n/a 
n/a 
n/a 
-5.1845 -5.74 -7.0625 -8.793501 -7.0625 -3.6215 -3.5025 
-5.7465 -13.7451 -15.207 -16.2651 -10.7495 -8.004001 
-13.7934 -22.8128 -25.5479 -21.1837 -16.0552 
-22.8611 -32.2305 -29.2349 -26.4894 
-32.2788 -35.9175 -34.5406 
-6.557 -4.455 0 -3.4605 -2.0935 -3.5435 -7.598001 
-8.3955 -4.455 -3.4605 -5.0435 -5.575 -12.5685 
-8.3955 -6.646001 -5.0435 -8.9945 -15.3558 
-11.4515 -7.900501 -8.9945 -19.1151 
-12.706 -12.5053 -19.1151 
-6.557 -4.8595 -7.165 -4.8595 -3.6215 -3.4605 
-9.778 -12.2805 -11.3115 -8.652 -6.8415 
-17.2602 -17.0924 -14.8759 -11.763 
-22.1811 -19.7974 -17.9869 
-24.8861 -22.9084 
-6.557 -4.455 -3.5435 -3.4605 -2.0935 -4.455 
-8.3955 -7.48 -6.471001 -5.0435 -6.253 
-12.2855 -10.6465 -7.655001 -7.397 
-15.452 -11.8305 -10.7483 
-16.636 -14.9238 
