-4.759 
n/a 
n/a 
n/a 
n/a 
-4.759 
n/a 
n/a 
n/a 
n/a 
-4.759 
n/a 
n/a 
n/a 
n/a 
-4.759 
n/a 
n/a 
n/a 
n/a 
-2.9805 -6.464 -4.33 -4.3315 -1.934 -3.564 -4.085 -2.5045 -1.4985 -3.7515 -1.7565 -3.062 0 -3.2615 -4.282 -1.4985 -4.4385 -11.0905 -2.229 -4.3285 -3.0695 -2.7415 -4.1205 -2.5045 -1.4985 -5.5305 -1.7565 -1.4985 -4.1585 -3.6825 0 
-7.85 -8.321501 -7.7075 -6.2195 -5.3585 -8.1645 -6.2505 -3.1915 -4.705501 -4.6045 -5.24 -3.062 -3.2615 -6.0795 -5.6005 -5.4045 -16.507 -13.3195 -5.7115 -7.917001 -4.6395 -5.631001 -5.3175 -3.583 -6.565001 -6.271 -2.4195 -5.6005 -7.5125 -3.6825 
-8.902 -10.5745 -8.7475 -10.3745 -10.078 -9.995001 -6.653 -5.443 -4.844501 -6.253 -5.24 -6.883 -6.0795 -6.803 -9.06 -18.0818 -18.736 -16.802 -9.109 -9.27 -7.5465 -6.993001 -6.431 -8.252501 -7.1655 -6.76 -6.508 -8.5185 -7.5125 
-10.6745 -12.0423 -13.2303 -15.094 -11.9085 -10.439 -9.316 -5.454 -6.267 -6.253 -8.4805 -9.589001 -6.803 -10.1675 -21.8207 -20.3108 -22.2185 -20.1995 -10.147 -12.358 -9.195001 -7.827001 -10.494 -8.532001 -7.946001 -10.442 -9.0865 -8.5185 
-12.3707 -16.5251 -17.9498 -16.9245 -12.3525 -13.102 -9.3205 -7.126501 -6.267 -8.6575 -10.6735 -10.22 -10.1675 -22.9282 -24.0497 -23.7933 -25.616 -21.2375 -13.235 -14.0065 -9.707001 -12.0086 -10.601 -9.118001 -11.799 -13.2969 -9.0865 
-12.16972 -2.7415 -5.2695 -2.3345 -1.4985 -5.003 -1.7565 -8.845 -3.6825 -8.624001 -12.16972 0 -2.9805 -4.953 -1.934 -1.4985 -3.564 -3.288 -2.5045 -1.4985 -3.7515 -1.7565 -3.062 -4.179 -1.756 -5.7135 -4.33 -1.7695 -1.4985 -4.0695 0 
-14.91122 -6.837 -6.433001 -3.233 -6.6555 -6.762 -11.5507 -13.0719 -13.4035 -21.33212 -12.16972 -2.9805 -6.6215 -6.5965 -2.6125 -4.7165 -6.603 -5.85 -3.1915 -4.705501 -4.6045 -5.24 -8.8105 -5.488 -7.113 -7.780001 -5.538001 -2.7955 -5.1045 -4.0695 
-19.00672 -7.4945 -6.7225 -8.654 -7.393 -17.2468 -15.7776 -22.7929 -26.11162 -21.33212 -15.15022 -6.6215 -8.394001 -7.3465 -5.838 -7.984 -9.099 -6.7135 -5.443 -4.844501 -6.253 -10.5425 -10.001 -10.199 -8.855 -7.909001 -6.372001 -6.4345 -5.1045 
-19.66422 -7.746 -12.5989 -9.067501 -18.036 -21.4737 -25.4986 -35.50102 -26.11162 -24.31262 -18.79122 -8.394001 -8.882501 -10.991 -8.965 -10.218 -10.164 -9.134501 -5.454 -6.267 -12.5977 -11.733 -14.7284 -12.3404 -8.958 -8.587501 -9.751501 -6.4345 
-19.91572 -13.7592 -13.0124 -19.7733 -22.2629 -31.1947 -38.20672 -35.50102 -29.09212 -27.95362 -20.56372 -8.882501 -12.6258 -14.118 -11.2598 -11.4958 -12.585 -9.138 -7.126501 -12.6663 -13.7882 -16.4604 -16.8698 -12.4434 -9.774 -12.155 -9.751501 
-3.034 -2.9805 -2.7415 -3.062 0 -2.9805 -3.43 -4.33 -4.077 -3.962 -1.934 -3.564 -4.017 -3.433 -1.7565 -1.4985 -5.003 -3.43 -2.3345 -8.4455 -1.4985 -6.4655 -1.7565 -4.1585 -3.6825 0 
-4.4605 -4.004 -6.2625 -3.062 -2.9805 -5.2875 -6.660501 -7.840001 -8.9755 -6.377 -5.3585 -7.5795 -7.537001 -4.1845 -2.4195 -6.6555 -7.5085 -4.5865 -10.907 -10.1815 -7.293 -7.847001 -4.9845 -7.5125 -3.6825 
-5.2415 -7.2875 -6.2625 -6.7465 -5.2875 -7.360001 -10.8959 -13.5525 -11.5771 -10.181 -9.489 -10.733 -8.281501 -4.6515 -7.422 -8.311 -7.9245 -13.7384 -12.643 -15.976 -8.514001 -11.6796 -9.5485 -7.5125 
-7.582 -7.2875 -8.068001 -8.8745 -7.360001 -11.6116 -16.6084 -16.1541 -15.3811 -14.3115 -12.7601 -11.4775 -8.663501 -9.9505 -8.9025 -8.6545 -17.3426 -15.4744 -18.4375 -17.197 -12.6174 -16.2436 -9.5485 
-7.582 -8.314001 -10.634 -11.3552 -11.6116 -17.3241 -19.21 -19.9581 -19.5116 -17.5826 -13.5046 -11.8595 -14.0665 -11.5634 -9.301001 -18.1882 -19.0786 -21.2689 -19.6585 -21.3004 -17.1814 -16.2436 
-3.7875 -3.1125 -4.6785 -2.3345 -1.4985 -5.003 -1.7565 -12.16972 -3.0695 -2.7415 -1.4985 -5.5305 -1.7565 -1.4985 -4.1585 -3.6825 0 -7.2935 -4.331 -3.4625 -3.355 -1.7565 -3.564 -4.0805 -3.401 -2.5195 -3.034 -2.9805 -2.7415 -3.062 -3.277 -3.5905 0 
-5.2785 -6.6035 -5.1215 -3.233 -6.6555 -6.762 -14.87542 -15.23922 -4.6395 -4.063 -6.565001 -6.271 -2.4195 -5.6005 -7.5125 -3.6825 -7.2935 -10.6215 -7.641001 -5.9725 -3.725 -4.801 -6.788 -8.141001 -5.304 -6.0135 -4.4605 -4.004 -6.2625 -5.397 -4.7035 -3.5905 
-8.2495 -6.7535 -5.627 -8.654 -7.393 -20.57152 -17.94492 -16.80922 -5.8275 -8.7435 -7.1655 -6.76 -6.508 -8.5185 -7.5125 -10.7665 -10.6215 -13.9315 -10.6465 -5.986001 -7.320001 -7.9635 -11.2443 -9.734 -8.511001 -7.288 -5.2415 -7.2875 -7.2725 -6.258 -4.7035 
-8.3315 -7.234 -9.67 -9.067501 -21.36072 -23.64102 -19.51492 -17.99722 -10.2865 -8.905001 -7.946001 -10.442 -9.0865 -8.5185 -15.0983 -14.0945 -13.9315 -16.937 -10.6685 -9.411501 -10.5425 -12.6666 -12.8373 -13.2388 -9.5425 -7.6515 -7.582 -7.9995 -7.365 -6.258 
-8.7685 -11.395 -9.932 -23.09802 -24.43022 -25.21102 -20.70292 -22.45622 -10.3195 -9.4825 -11.799 -13.2969 -9.0865 -16.2641 -18.4263 -17.4045 -16.937 -16.959 -14.094 -12.88 -15.2456 -14.2596 -16.3421 -14.2703 -10.056 -10.1505 -8.252001 -8.032001 -7.365 
