-4.759 
n/a 
n/a 
n/a 
n/a 
-4.759 
n/a 
n/a 
n/a 
n/a 
-4.759 
n/a 
n/a 
n/a 
n/a 
-4.759 
n/a 
n/a 
n/a 
n/a 
-4.518 -3.7455 -2.186 -3.676 -2.229 -4.518 -3.7455 -3.915 -3.4605 
-4.659 -5.742 -6.1435 -4.593 -5.613 -4.659 -7.318 -5.1545 
-6.713 -10.013 -6.430501 -8.5795 -5.6425 -8.179501 -8.436501 
-10.7025 -10.124 -11.1746 -9.231501 -9.475 -8.641001 
-10.8135 -15.2725 -11.8266 -13.3264 -9.985001 
-4.518 -3.7455 -2.186 -3.676 -4.518 -3.7455 -4.584 -3.5025 
-4.659 -5.742 -6.1435 -8.0985 -4.659 -6.1985 -8.921 
-6.713 -10.013 -11.6692 -8.401501 -7.715 -10.0645 
-10.7025 -15.8699 -11.9722 -12.0631 -12.2714 
-16.5594 -16.1729 -15.6338 -16.6195 
-4.518 -3.7455 -3.676 -2.186 -3.915 -3.16 -3.423 -1.7565 -3.4975 -4.518 -3.7455 
-4.659 -8.507 -5.5015 -6.678 -5.599 -5.6415 -4.9585 -4.91 -7.907001 -4.659 
-8.68 -9.824501 -10.6459 -9.419001 -8.421 -7.03 -9.734 -10.354 -8.014501 
-10.004 -15.0495 -13.3869 -12.2316 -9.844001 -12.7043 -15.178 -10.524 
-15.2584 -17.7905 -16.1995 -13.6546 -15.8143 -18.1483 -15.348 
-4.518 -3.7455 -2.186 -1.4985 -4.494 -3.4605 -2.0935 -1.4985 -3.4975 -4.518 -3.7455 0 
-4.659 -5.742 -3.339 -5.902 -8.272 -5.0435 -2.9725 -4.3125 -7.907001 -4.659 -3.7455 
-6.713 -7.0975 -7.3265 -9.177 -9.06 -5.9525 -5.8615 -8.438001 -8.014501 -4.659 
-7.7515 -11.5454 -9.93 -10.127 -9.672501 -8.461 -10.2864 -8.454 -8.014501 
-12.702 -14.1489 -10.3715 -10.7565 -12.9704 -13.1245 -10.3024 -8.454 
