-4.759 
n/a 
n/a 
n/a 
n/a 
-4.759 
n/a 
n/a 
n/a 
n/a 
-4.759 
n/a 
n/a 
n/a 
n/a 
-4.759 
n/a 
n/a 
n/a 
n/a 
-6.557 -4.6805 -1.7565 -4.1495 -4.7505 -1.756 -4.2465 -4.321 0 
-10.9855 -4.722 -5.9125 -8.367001 -5.869 -5.052 -8.5795 -4.321 
-11.027 -8.711 -10.0065 -9.096001 -9.085501 -9.6815 -8.5795 
-15.016 -12.9564 -10.7355 -12.7713 -14.1658 -9.6815 
-19.2614 -13.6854 -14.4108 -17.8516 -14.1658 
-6.557 -2.186 -2.664 -3.699 -4.455 -3.1715 -2.356 -4.1495 -4.5435 -1.756 -4.441 -4.761 0 
-8.833 -3.8555 -4.654 -8.0635 -7.717 -5.773 -6.086 -6.915 -5.834001 -5.862 -8.790501 -4.761 
-10.4115 -5.2675 -8.8085 -11.9115 -11.2045 -9.558001 -8.64 -7.912001 -8.458501 -10.7149 -8.790501 
-11.8235 -9.3395 -12.9737 -15.399 -14.9895 -12.2824 -9.436001 -10.8033 -13.6202 -10.7149 
-15.8955 -13.6127 -16.4612 -19.184 -17.7139 -13.0784 -12.4345 -15.965 -13.6202 
-1.934 -6.557 -3.6135 -8.410501 0 -3.135 -4.2465 -4.761 -4.4715 -3.333 
-7.536 -10.9855 -13.3534 -8.410501 -3.135 -7.253 -7.7355 -9.252001 -7.962001 
-12.2123 -20.7254 -13.3534 -12.0609 -7.253 -10.7335 -12.5573 -12.8335 
-21.9522 -20.7254 -17.0038 -16.1789 -10.7335 -15.5553 -16.1388 
-21.9522 -24.3758 -21.1218 -19.6594 -15.5553 -19.1368 
-5.1845 -5.74 -2.674 -4.1495 -4.088 0 -4.2235 -4.761 -4.4715 0 
-5.7465 -8.4825 -6.851 -6.746 -4.088 -4.2235 -8.7165 -9.252001 -4.4715 
-8.4875 -12.6987 -9.765 -6.746 -7.722 -8.7165 -13.3751 -9.252001 
-12.7039 -15.6127 -9.765 -11.0294 -13.3878 -13.3751 -13.3751 
-15.6179 -15.6127 -14.2748 -16.6952 -18.0464 -13.3751 
