-4.759 
n/a 
n/a 
n/a 
n/a 
-4.759 
n/a 
n/a 
n/a 
n/a 
-4.759 
n/a 
n/a 
n/a 
n/a 
-4.759 
n/a 
n/a 
n/a 
n/a 
-3.571 -3.135 -4.0145 -4.079 -1.7695 -5.1605 0 
-7.0795 -6.684501 -7.817 -5.261 -7.721001 -5.1605 
-10.5035 -11.0386 -9.436501 -10.7335 -7.721001 
-15.3888 -12.6581 -15.3428 -10.7335 
-17.0083 -18.5644 -15.3428 
-2.925 -4.079 -1.7695 -3.135 -2.8965 -3.818 -3.499 -3.824 0 
-7.8875 -5.261 -4.779 -4.9085 -7.2485 -8.054 -8.06 -3.824 
-9.131001 -7.613 -6.276 -9.4405 -9.589001 -13.2422 -8.06 
-11.747 -9.495501 -11.0738 -11.8202 -15.1122 -13.2422 
-13.6295 -14.5247 -13.4535 -17.3434 -15.1122 
-3.321 -3.135 -1.7565 -3.818 -4.0145 -2.674 -3.2955 -4.8845 -3.602 -4.0145 
-5.9135 -3.9195 -5.817 -7.9385 -6.318 -5.19 -8.598001 -5.5955 -6.67 
-7.037001 -9.592501 -9.861 -10.1385 -10.035 -10.223 -8.902 -6.7255 
-13.0518 -13.6625 -12.1078 -14.0917 -15.1446 -10.696 -9.752001 
-17.1218 -15.9093 -16.061 -19.2013 -15.6176 -11.546 
-4.426 -1.7565 -1.4985 -3.6115 -4.7285 -4.1555 -3.147 0 
-5.47 -2.4195 -4.081 -6.5495 -8.4455 -5.77 -3.147 
-5.9535 -5.180501 -6.670501 -9.978001 -9.541501 -5.77 
-8.462501 -7.797 -10.054 -11.0524 -9.541501 
-10.2375 -11.2985 -11.1648 -11.0524 
