-4.759 
n/a 
n/a 
n/a 
n/a 
-4.759 
n/a 
n/a 
n/a 
n/a 
-4.759 
n/a 
n/a 
n/a 
n/a 
-4.759 
n/a 
n/a 
n/a 
n/a 
-2.4265 -2.229 -3.098 -1.8085 -5.0515 -3.098 -3.433 -7.6355 -3.774 -3.5745 -2.6165 -4.3465 -2.9995 -2.915 -2.7455 -2.3615 0 
-3.3415 -5.0005 -4.5555 -8.040501 -8.091001 -5.6145 -12.2135 -12.6383 -6.88 -4.114 -8.176001 -7.368001 -5.014 -4.0865 -4.1635 -2.3615 
-5.4555 -6.053 -10.634 -11.4382 -10.7025 -14.6424 -17.2163 -15.7443 -7.0405 -8.690001 -9.4635 -9.126501 -6.124 -5.3395 -4.1635 
-6.183 -12.4875 -14.0317 -14.0497 -19.7304 -19.6452 -20.3223 -15.9048 -12.2433 -9.579 -11.2942 -9.857 -7.171 -5.3395 
-12.9089 -15.8852 -16.6432 -23.0776 -24.7332 -22.7512 -20.4828 -21.1076 -13.1323 -11.4403 -12.0247 -11.1114 -7.171 
-2.4265 -2.186 -3.098 -1.8085 -5.942 -3.277 -2.5045 -1.4985 -2.688 -2.743 -5.181 -2.674 -2.6165 -4.4155 -2.9995 -3.509 -2.7455 -2.3615 0 
-3.292 -4.5535 -4.5555 -8.3 -10.784 -5.3265 -3.583 -3.702 -6.2535 -6.565001 -8.123501 -4.447 -6.0315 -7.407001 -6.369 -5.192 -4.1635 -2.3615 
-5.4325 -5.447 -12.0252 -13.4982 -12.8335 -7.17 -5.7095 -7.4195 -7.627001 -10.2535 -9.9945 -7.4745 -8.4455 -9.940001 -7.2695 -6.003 -4.1635 
-6.332 -13.3009 -17.2234 -15.5477 -14.677 -9.487 -9.6875 -7.955501 -12.2159 -12.4479 -13.3368 -8.976001 -10.76 -10.345 -8.6715 -6.003 
-14.2111 -18.4991 -19.2729 -17.3912 -16.994 -13.4808 -10.278 -12.9824 -14.4103 -15.7902 -14.8383 -11.3599 -11.165 -11.8592 -8.6715 
-2.3615 -2.186 -2.664 -4.9985 -3.098 0 -3.433 -8.3865 -5.181 -3.989 -3.5745 -2.6165 -3.6785 -3.6845 -3.779 -2.9995 -3.909 -2.7455 -2.3615 0 
-3.5005 -3.8555 -6.2745 -8.199 -3.098 -3.433 -12.9645 -10.147 -9.649 -7.7635 -4.114 -5.6575 -6.936 -9.2945 -6.5775 -6.9425 -6.49 -4.1635 -2.3615 
-4.8275 -7.217 -9.415501 -8.199 -5.6145 -12.9645 -14.725 -14.944 -14.2665 -8.01 -6.269 -9.095501 -13.0802 -12.1524 -11.0769 -9.062 -7.9815 -4.1635 
-8.139501 -9.892 -9.415501 -10.1 -15.3934 -14.725 -19.522 -19.5615 -14.513 -10.4908 -9.557 -15.4075 -15.9381 -16.6518 -13.1964 -10.259 -7.9815 
-10.3955 -9.892 -11.3701 -19.9613 -17.1539 -19.522 -24.1395 -19.808 -16.9938 -13.7788 -15.9202 -18.2654 -20.4375 -18.7713 -14.3934 -10.259 
-3.1435 -2.664 -4.9105 -4.9595 -3.098 0 -3.433 -2.688 -2.743 -5.181 -3.989 -2.356 -3.7775 -3.4405 -2.6165 -3.6915 -2.9995 -4.4715 
-6.204 -7.5665 -10.3545 -7.6455 -3.098 -3.433 -6.734 -6.2535 -6.565001 -9.649 -6.3465 -5.67 -7.422 -3.7415 -6.3005 -6.473001 -7.194 
-11.4749 -13.1061 -13.0405 -7.6455 -5.6145 -6.734 -10.7649 -7.627001 -12.1816 -12.8495 -9.859 -10.7613 -7.586 -7.087 -7.421 -11.4109 
-17.0145 -15.7921 -13.0405 -10.5124 -9.1125 -10.7649 -12.1384 -14.144 -15.3821 -16.362 -15.5675 -10.9253 -11.4867 -8.334001 -12.9269 
-19.7005 -15.7921 -15.9074 -14.0104 -13.195 -12.1384 -18.6554 -17.3445 -18.8946 -22.0705 -15.7315 -14.826 -12.7337 -13.9747 
