-4.759 
n/a 
n/a 
n/a 
n/a 
-4.759 
n/a 
n/a 
n/a 
n/a 
-4.759 
n/a 
n/a 
n/a 
n/a 
-4.759 
n/a 
n/a 
n/a 
n/a 
-3.17 -3.355 -1.7565 -4.1145 -4.174 -3.5855 -2.911 0 -3.135 -3.5215 -2.4265 -4.174 -3.3365 -2.95 -5.0045 -2.3615 -2.911 -4.1145 -4.078 -4.1145 -2.911 -3.974 -2.4285 -2.6165 -2.186 -4.4985 -2.264 -2.4265 0 
-5.4065 -3.725 -6.695001 -8.7725 -8.699501 -5.981501 -2.911 -3.135 -6.2085 -5.644 -5.370501 -7.154 -4.6045 -7.3025 -5.861001 -5.28 -6.7305 -8.0035 -8.158501 -6.2935 -4.4735 -6.368 -4.3195 -6.006001 -7.089001 -4.548 -4.561 -2.4265 
-6.9365 -8.999001 -12.3148 -13.5426 -11.5203 -5.981501 -7.1225 -6.2085 -7.3925 -8.4515 -8.4855 -9.234001 -10.0265 -9.763 -8.166 -10.3085 -11.9377 -10.2595 -11.3913 -8.7095 -6.944001 -8.758 -6.341001 -10.135 -7.150001 -7.591501 -4.561 
-12.2053 -14.9128 -17.0849 -16.3634 -11.5203 -10.1345 -10.3745 -7.3925 -9.783001 -11.7243 -10.717 -14.2812 -12.11 -12.754 -14.6485 -15.5157 -14.1937 -13.4923 -13.8073 -11.369 -9.482501 -10.703 -10.176 -10.202 -8.9715 -7.591501 
-18.1191 -19.6829 -19.9057 -16.3634 -15.6733 -13.5077 -11.5585 -9.783001 -13.0404 -13.9558 -15.7642 -17.6501 -15.0444 -20.2731 -21.2063 -17.7717 -17.4265 -15.9083 -16.4668 -13.9075 -11.4975 -14.538 -10.24 -12.1607 -8.9715 
-3.135 -4.1145 -2.229 -4.174 -3.76 -2.915 0 -4.8685 -1.7695 -1.4985 -2.911 -3.974 
-7.617001 -6.818501 -7.2145 -9.238001 -7.843501 -2.915 -4.8685 -7.103001 -2.7955 -4.6515 -4.4735 
-9.708 -12.494 -12.4193 -13.4277 -7.843501 -8.73 -7.103001 -8.862 -6.0015 -5.844 
-15.4485 -17.6988 -16.609 -13.4277 -14.2363 -10.9553 -8.862 -12.2618 -6.9805 
-20.6533 -21.8885 -16.609 -19.8205 -16.4616 -12.7143 -12.2618 -13.2408 
-3.17 -1.7565 -4.1145 -2.229 -4.2065 -1.4985 -2.911 -4.5745 -1.7695 -3.135 -2.95 -3.3365 -4.4895 -1.7695 -2.911 -1.756 -4.85 -2.0935 -5.512 0 
-4.179 -6.695001 -6.818501 -7.4945 -4.732 -4.6515 -4.953 -6.2345 -4.779 -4.868 -6.237 -8.7475 -6.086 -4.603 -5.0065 -6.3855 -7.382 -7.8625 -5.512 
-9.959001 -8.594501 -12.774 -8.3815 -7.632 -5.987 -6.491 -9.33 -7.842 -8.944501 -12.4548 -10.2985 -10.2925 -6.315001 -10.1765 -8.982 -13.6838 -7.8625 
-11.9349 -14.763 -13.661 -11.3887 -10.1425 -7.2025 -10.0735 -12.7536 -12.2013 -15.2029 -14.0058 -14.505 -12.2213 -12.3332 -12.7312 -15.3824 -13.6838 
-18.1034 -15.65 -16.6682 -13.8992 -11.358 -11.1436 -13.4225 -17.1129 -18.4597 -16.7539 -18.2123 -16.4338 -18.2395 -14.8879 -19.1316 -15.3824 
-3.17 -1.7565 -1.4985 -5.4085 -2.5045 -3.76 -3.6845 -1.4985 -2.911 -2.0935 -1.4985 -4.297 0 -4.2125 -2.4265 -2.882 -3.6845 -1.4985 -3.3365 -3.4715 -2.911 -2.3615 -3.319 -1.7565 -2.911 -3.1425 -4.8685 -2.264 -1.4985 -4.3395 -1.7565 -1.4985 -4.1145 -1.934 -4.7155 -3.1435 -3.6045 -2.4285 -2.6165 0 
-4.179 -2.4195 -7.439501 -8.21 -3.8195 -6.6785 -4.8155 -4.6515 -4.1005 -2.9725 -5.8385 -4.297 -4.2125 -5.489 -4.4545 -5.8175 -4.8155 -4.3335 -5.0995 -6.2375 -4.669001 -4.9575 -4.165 -5.515 -6.976 -6.41 -4.9965 -2.9195 -5.501 -5.152 -2.4195 -5.3525 -6.838 -5.8875 -6.622001 -6.2975 -5.9415 -4.3195 -2.6165 
-4.497 -8.306001 -10.0575 -9.785 -6.699 -7.652501 -8.119 -5.4695 -5.508501 -7.5905 -5.8385 -8.3725 -5.489 -7.221 -7.159 -6.940001 -7.284 -5.909 -8.102501 -7.772 -8.813001 -5.092 -6.957 -9.0625 -10.4675 -6.515 -5.445 -7.1495 -6.1145 -5.8385 -6.764501 -7.726 -11.5241 -7.776501 -8.928501 -7.9635 -8.266001 -4.3195 
-8.8985 -11.1456 -11.6325 -12.6645 -7.671 -11.2868 -10.304 -6.418 -9.354501 -7.5905 -9.7705 -9.679001 -7.221 -10.3605 -8.3055 -10.146 -9.498 -9.812 -10.2704 -13.7636 -9.0325 -7.839 -9.591001 -12.546 -10.6005 -6.8495 -9.2375 -7.865 -6.8665 -10.9327 -8.759501 -12.8067 -13.4131 -9.9615 -10.6933 -10.8092 -8.266001 
-12.5977 -12.7206 -14.512 -13.6365 -11.3103 -13.4718 -11.2525 -10.6252 -9.354501 -11.6043 -11.1744 -11.7348 -10.3605 -11.507 -11.6589 -12.36 -13.8802 -12.3591 -16.262 -13.9831 -9.3675 -9.835501 -13.1907 -12.679 -10.935 -10.759 -9.6905 -8.841001 -12.0877 -12.9277 -14.1048 -14.6957 -15.5981 -11.7465 -13.539 -10.8092 
