-4.759 
n/a 
n/a 
n/a 
n/a 
-4.759 
n/a 
n/a 
n/a 
n/a 
-4.759 
n/a 
n/a 
n/a 
n/a 
-4.759 
n/a 
n/a 
n/a 
n/a 
-3.5905 -8.828501 0 -10.6015 0 
-12.9442 -8.828501 -10.6015 -10.6015 
-12.9442 -19.8768 -10.6015 
-23.9925 -19.8768 
-23.9925 
-3.5905 0 -8.828501 0 -4.936 0 
-3.5905 -8.828501 -8.828501 -4.936 -4.936 
-12.9442 -8.828501 -14.2113 -4.936 
-12.9442 -14.2113 -14.2113 
-18.327 -14.2113 
-3.5905 -8.828501 0 -9.8175 0 -12.16972 
-12.9442 -8.828501 -9.8175 -9.8175 -12.16972 
-12.9442 -19.0928 -9.8175 -22.06182 
-23.2085 -19.0928 -22.06182 
-23.2085 -31.33712 
-3.5905 0 -8.828501 0 -5.7865 0 0 -4.936 0 
-3.5905 -8.828501 -8.828501 -5.7865 -5.7865 0 -4.936 -4.936 
-12.9442 -8.828501 -15.0618 -5.7865 -5.7865 -4.936 -4.936 
-12.9442 -15.0618 -15.0618 -5.7865 -10.674 -4.936 
-19.1775 -15.0618 -15.0618 -10.674 -10.674 
