-4.759 
n/a 
n/a 
n/a 
n/a 
-4.759 
n/a 
n/a 
n/a 
n/a 
-4.759 
n/a 
n/a 
n/a 
n/a 
-4.759 
n/a 
n/a 
n/a 
n/a 
-3.0365 -2.4945 -3.552 -4.7315 -1.934 -5.1845 -5.74 0 
-3.688 -6.833 -8.429501 -5.9625 -6.564 -5.7465 -5.74 
-7.31 -10.218 -9.340501 -9.0045 -6.819 -5.7465 
-10.223 -10.696 -12.5571 -9.0085 -6.819 
-10.696 -13.9126 -12.5611 -9.0085 
-3.0365 -2.4945 -3.552 -4.7315 -1.934 -6.557 
-3.688 -6.833 -8.429501 -5.9625 -7.536 
-7.31 -10.218 -9.340501 -9.676001 
-10.223 -10.696 -13.2286 
-10.696 -14.5841 
-3.552 -3.468 -1.934 -6.557 
-7.264501 -5.1985 -7.536 
-8.662001 -11.5931 
-15.4174 
n/a 
-1.934 -6.557 -2.674 -3.552 -4.7315 0 
-7.536 -9.433001 -7.217 -8.429501 -4.7315 
-9.927501 -13.9868 -12.4957 -8.429501 
-14.5077 -19.2655 -12.4957 
-19.7864 -19.2655 
