-4.759 
n/a 
n/a 
n/a 
n/a 
-4.759 
n/a 
n/a 
n/a 
n/a 
-4.759 
n/a 
n/a 
n/a 
n/a 
-4.759 
n/a 
n/a 
n/a 
n/a 
-3.929 -2.9805 -2.7415 -4.2215 -1.934 -1.8085 -5.071 -3.3975 -2.9805 -5.163 -3.135 -4.633 -1.934 -3.091 -4.6655 -2.872 -3.2615 -2.3335 -2.9805 -3.098 -5.163 -5.071 -2.3335 -3.6245 -4.444 -4.9765 0 -7.2255 -1.756 -5.2585 -4.5605 0 
-5.378 -4.004 -4.7885 -4.885 -3.2685 -6.182 -8.0985 -6.236501 -6.658 -7.1205 -7.1245 -6.393001 -4.2105 -6.248 -7.149 -5.3645 -5.0495 -4.1515 -5.926001 -7.57 -9.207001 -8.219 -5.5785 -8.009001 -9.752001 -4.9765 -7.2255 -8.103001 -6.4605 -6.8115 -4.5605 
-6.299 -5.7885 -5.2365 -6.5425 -7.901501 -9.206 -11.6555 -10.1345 -8.446001 -9.5745 -8.517501 -8.23 -7.421 -8.366 -9.422501 -6.5935 -6.606 -6.9585 -8.782001 -10.6215 -12.5506 -11.8224 -9.7955 -13.658 -9.752001 -9.9895 -8.103001 -13.2085 -8.148001 -6.8115 
-8.104501 -6.226 -6.9585 -11.8971 -10.13 -12.9784 -15.5535 -11.9225 -11.0284 -11.0607 -10.2865 -11.8867 -9.146001 -10.702 -10.7175 -8.088 -9.369 -9.872001 -11.9835 -13.9651 -16.154 -16.0394 -15.5685 -13.658 -15.3294 -10.366 -13.2085 -14.896 -8.148001 
-8.334001 -7.878001 -12.4671 -14.1256 -14.0272 -16.8764 -17.3415 -14.5049 -12.5146 -12.8297 -13.9432 -13.6117 -11.599 -11.997 -12.212 -10.6595 -12.4427 -13.0735 -15.3271 -17.5685 -20.371 -21.8124 -15.5685 -19.2354 -15.7059 -16.0657 -14.896 -14.896 
-2.4265 -3.074 -5.214 -3.1385 -1.7695 -5.54 -4.065 -4.1135 -4.328 -1.756 -3.5035 -4.5385 0 -5.627 -2.5195 -3.5435 -3.972 0 -4.9925 -1.7695 -3.8455 -4.2695 0 -1.756 -6.4505 -4.065 -4.297 -1.756 -5.4015 
-4.605 -6.8225 -7.3175 -4.6115 -6.4515 -8.842501 -7.334 -5.746 -5.294 -5.3985 -6.5905 -4.5385 -5.627 -6.5885 -5.965 -6.701 -3.972 -4.9925 -5.272501 -4.3865 -6.069 -4.2695 -1.756 -7.706 -10.155 -7.7975 -5.776 -6.955 
-8.158501 -8.7025 -7.449 -8.231001 -9.154 -10.214 -9.495 -6.5975 -8.215 -8.360001 -6.5905 -10.8025 -6.5885 -9.149 -8.67 -6.701 -9.6595 -5.272501 -6.857501 -6.526 -6.069 -5.252501 -7.706 -11.6811 -10.1835 -9.346001 -8.562501 
-10.0125 -8.821 -9.702001 -10.111 -10.2235 -10.227 -10.1015 -9.6715 -10.1465 -8.360001 -13.3729 -11.764 -9.149 -10.147 -8.67 -13.0017 -9.8225 -6.857501 -8.5165 -6.526 -7.1105 -12.4923 -11.6811 -11.7096 -10.191 -10.0935 
-10.0725 -10.6745 -11.5962 -10.2445 -10.2365 -10.255 -10.231 -10.201 -10.1465 -15.5152 -14.3344 -14.3245 -10.147 -10.147 -15.2377 -13.1647 -11.6137 -8.5165 -8.5165 -7.580501 -14.8821 -16.4674 -11.7096 -11.7171 -10.2305 
-3.4765 -3.929 -5.5785 -2.7415 -4.2215 -1.934 -1.8085 -8.1995 -3.3975 0 -2.9805 -5.163 -8.6355 -1.934 -3.091 -5.752 -3.2615 -2.3335 -2.9805 -5.163 -3.098 -5.071 -4.471 -3.115 -4.9765 0 -6.866 0 -1.756 -4.985 -4.5605 -4.732 -1.4985 -3.498 -1.7565 -3.091 -3.3435 0 
-4.589 -9.253 -7.358 -4.7885 -4.885 -3.2685 -9.152 -10.703 -3.3975 -2.9805 -6.658 -12.5095 -9.6925 -4.2105 -8.140501 -8.3795 -5.0495 -4.1515 -6.658 -7.753 -8.0445 -7.551 -6.714 -7.5695 -4.9765 -6.866 -6.866 -1.756 -6.418 -7.668 -8.7325 -5.618001 -4.0295 -4.005 -4.0655 -5.029 -3.3435 
-9.925001 -10.0105 -8.838501 -5.2365 -6.5425 -10.6215 -11.8077 -10.703 -6.236501 -6.658 -12.7367 -13.1285 -11.7925 -8.888501 -10.4945 -10.204 -6.606 -8.019501 -8.8055 -10.281 -9.594501 -9.706 -8.206 -7.5695 -10.821 -6.866 -8.21 -6.418 -8.5975 -12.2456 -9.604501 -6.412001 -4.188 -6.116 -5.5855 -5.029 
-10.7215 -11.564 -9.240001 -6.9585 -14.6171 -13.2772 -11.8077 -13.542 -10.1345 -12.7367 -16.0667 -16.1468 -16.5495 -11.1997 -12.319 -11.7605 -9.9425 -9.935501 -11.4581 -12.1876 -11.9677 -11.3172 -8.206 -13.8058 -10.821 -8.21 -13.2828 -8.5975 -13.3371 -13.1176 -10.4607 -6.6225 -6.153501 -6.8895 -5.5855 
-12.275 -11.9655 -11.3996 -15.1871 -17.2728 -13.2772 -14.6467 -17.44 -16.2132 -16.0667 -18.249 -20.87 -18.8607 -13.0242 -13.8755 -15.097 -12.0461 -12.6485 -13.3647 -14.5608 -13.5789 -11.3172 -15.1639 -13.8058 -12.165 -13.2828 -15.4623 -13.3371 -14.2091 -13.9738 -10.6712 -8.427001 -6.909501 -6.8895 
-2.9805 -2.7415 -4.2215 -1.934 -7.309 -3.3975 -3.0695 -5.2155 -8.6355 -3.5505 0 -2.9805 -5.163 -3.5645 -5.071 -1.8085 -3.628 0 -3.2615 -4.657 -2.356 -5.071 -3.5505 0 -4.3235 -4.9765 0 -6.866 0 -7.792 
-4.004 -4.7885 -4.885 -9.187 -9.824 -5.9895 -7.125 -12.645 -8.796 -3.5505 -2.9805 -6.658 -8.924 -7.150001 -7.7915 -4.0945 -3.628 -3.2615 -9.3625 -6.0505 -7.644 -6.717 -3.5505 -4.3235 -8.8995 -4.9765 -6.866 -6.866 -7.792 
-5.7885 -5.2365 -12.8884 -11.949 -12.4532 -10.6112 -15.6141 -13.7011 -8.1545 -6.726 -6.658 -11.0262 -10.6345 -9.785001 -9.748501 -4.0945 -6.7675 -9.3625 -10.8676 -12.0665 -8.991501 -6.717 -7.769 -8.8995 -8.8995 -10.821 -6.866 -15.4956 
-6.226 -13.3053 -15.6504 -14.5782 -17.0749 -19.1003 -16.6186 -13.7011 -10.5865 -8.489 -11.0262 -12.7367 -14.1055 -10.212 -9.748501 -6.8155 -13.5085 -10.8676 -16.8836 -13.414 -8.991501 -10.411 -10.0345 -8.8995 -15.3762 -10.821 -15.4956 
-14.2884 -16.0673 -18.2796 -19.1999 -25.564 -20.1048 -16.6186 -16.1331 -12.3495 -13.0476 -12.7367 -16.2077 -14.5325 -10.212 -12.7421 -13.6761 -15.0136 -16.8836 -18.2311 -13.414 -12.9009 -12.6765 -10.0345 -15.3762 -15.3762 -19.4506 
