-4.759 
n/a 
n/a 
n/a 
n/a 
-4.759 
n/a 
n/a 
n/a 
n/a 
-4.759 
n/a 
n/a 
n/a 
n/a 
-4.759 
n/a 
n/a 
n/a 
n/a 
-5.5965 -5.6155 -3.098 -4.2705 -2.0935 -1.4985 -3.3435 -3.898 
-12.184 -9.334001 -6.7115 -7.0225 -2.9725 -4.6745 -7.72 
-15.9025 -13.6481 -8.6565 -7.9615 -5.960001 -9.3905 
-20.2166 -15.5931 -9.692 -11.2158 -10.3045 
-22.1616 -16.6286 -13.2069 -15.5603 
-3.4775 0 -3.098 -2.5045 -3.995 0 -1.4985 -4.663 -2.4945 -5.244 -2.0935 -1.4985 -4.454 -1.7565 -3.3435 0 
-3.4775 -3.098 -5.5135 -6.7995 -3.995 -1.4985 -6.307 -6.508 -6.960001 -6.678501 -2.9725 -5.245501 -5.044 -4.4105 -3.3435 
-6.183001 -5.5135 -10.335 -6.7995 -5.7605 -6.307 -7.753 -10.2135 -7.513501 -7.360001 -6.824 -5.3135 -7.0945 -4.4105 
-8.166 -10.335 -10.335 -8.73 -11.0088 -7.753 -11.7311 -10.767 -8.070001 -10.396 -6.8875 -7.407001 -7.0945 
-13.2333 -10.335 -12.2655 -14.0497 -12.4548 -11.7311 -12.2846 -11.3235 -11.6186 -10.423 -8.6225 -7.407001 
-5.42 -4.126 -3.995 -3.098 -4.052 -4.126 0 
-10.598 -8.797501 -7.395 -6.892 -9.072001 -4.126 
-15.2695 -12.6897 -11.6724 -12.2706 -9.072001 
-19.1617 -16.9671 -17.051 -12.2706 
-23.4391 -22.3457 -17.051 
-5.5965 -4.1445 0 -3.098 -1.934 -3.995 -3.898 -1.7565 -3.6835 -4.221 -2.186 -3.768 
-10.204 -4.1445 -3.098 -4.746 -6.139 -8.6695 -4.9795 -4.6675 -6.7425 -6.5045 -4.7835 
-10.204 -7.066501 -4.746 -8.988 -11.7007 -10.647 -7.394 -7.441 -8.5135 -9.678501 
-13.2508 -8.845 -8.988 -14.8829 -13.6782 -13.0615 -10.7751 -9.101501 -11.7921 
-15.0293 -13.3938 -14.8829 -16.8604 -16.0927 -16.4426 -12.4356 -12.4355 
