-4.759 
n/a 
n/a 
n/a 
n/a 
-4.759 
n/a 
n/a 
n/a 
n/a 
-4.759 
n/a 
n/a 
n/a 
n/a 
-4.759 
n/a 
n/a 
n/a 
n/a 
-3.5195 -3.143 -7.6055 -6.384 0 -3.5435 -4.2245 -1.7565 -9.384001 
-5.535 -10.8215 -14.9521 -6.384 -3.5435 -7.4475 -5.277 -12.0897 
-14.4055 -18.1681 -14.9521 -10.7273 -7.4475 -8.671 -16.5304 
-21.7521 -18.1681 -19.2954 -14.6313 -8.671 -20.2876 
-21.7521 -22.5114 -23.1994 -15.8548 -20.2876 
-3.5195 -10.7485 -8.005501 0 -6.8755 -2.229 -3.9655 -4.2245 0 -3.0015 0 
-13.2135 -19.7896 -8.005501 -6.8755 -8.522 -5.5855 -6.7905 -4.2245 -3.0015 -3.0015 
-23.3736 -19.7896 -15.177 -8.522 -12.2691 -8.414001 -6.7905 -7.7795 -3.0015 
-23.3736 -26.9611 -16.8235 -12.2691 -15.0976 -8.414001 -10.4765 -7.7795 
-30.5451 -28.6076 -20.5706 -15.0976 -15.0976 -12.4558 -10.4765 
-3.5195 -3.143 -7.6055 -7.779 0 -6.8755 -5.4135 -4.2245 0 -3.002 0 
-5.535 -10.8215 -10.575 -7.779 -6.8755 -12.77 -8.800501 -4.2245 -3.002 -3.002 
-14.4055 -13.791 -10.575 -15.1619 -12.77 -16.157 -8.800501 -7.705501 -3.002 
-17.375 -13.791 -17.9579 -21.0564 -16.157 -16.157 -12.7047 -7.705501 
-17.375 -21.1739 -23.8524 -24.4434 -16.157 -20.0612 -12.7047 
-3.757 -1.7565 -5.859 -3.5435 -3.0015 
-4.5665 -7.382 -7.315001 -7.545 
-10.155 -9.498501 -11.8719 
-12.5015 -14.3208 
-17.3238 
