-4.759 
n/a 
n/a 
n/a 
n/a 
-4.759 
n/a 
n/a 
n/a 
n/a 
-4.759 
n/a 
n/a 
n/a 
n/a 
-4.759 
n/a 
n/a 
n/a 
n/a 
-2.7295 -3.3875 -4.558 -3.277 -2.5045 -1.8085 -3.8905 
-4.867 -6.7745 -6.1595 -4.9585 -3.3625 -5.690001 
-7.7405 -8.2145 -6.7555 -5.8995 -7.078 
-8.673 -8.627501 -7.8535 -9.29 
-9.098001 -9.684501 -11.4598 
-2.7295 -3.2645 -4.558 -3.277 -2.5045 -2.8705 -5.4435 -3.8905 
-4.7435 -6.633 -6.1595 -4.9585 -5.182 -8.284 -7.6975 
-7.425 -7.723001 -6.7555 -7.515501 -10.411 -10.7025 
-8.337501 -7.975 -9.211 -13.0249 -13.1109 
-8.918 -10.532 -14.9032 -15.7248 
-2.7295 -3.2645 -4.115 -4.2315 -2.5045 -5.4435 -3.8905 
-4.7435 -5.446 -6.436 -5.5285 -8.090501 -7.6975 
-6.7415 -8.0105 -7.64 -11.5221 -10.622 
-9.519401 -9.222501 -13.7802 -14.0536 
-10.7314 -15.4021 -16.3117 
-2.7295 -2.674 -1.7695 -4.6085 -3.277 -2.5045 -2.7295 -4.975 -3.8905 0 
-3.8 -3.787 -7.614501 -9.634001 -4.9585 -4.4295 -6.237 -7.0535 -3.8905 
-4.963 -9.672501 -12.6408 -11.4495 -6.865 -7.6375 -8.084001 -7.0535 
-10.264 -15.0328 -14.4563 -13.356 -9.852 -9.6715 -8.084001 
-15.7315 -16.8483 -16.3628 -16.343 -11.9024 -9.6715 
