-4.759 
n/a 
n/a 
n/a 
n/a 
-4.759 
n/a 
n/a 
n/a 
n/a 
-4.759 
n/a 
n/a 
n/a 
n/a 
-4.759 
n/a 
n/a 
n/a 
n/a 
-3.8655 -3.8185 -1.4985 -4.351 -1.7565 -4.02 -3.959 
-8.0035 -4.662 -5.713 -5.6075 -5.2945 -6.338 
-8.988 -9.645 -5.844501 -9.618 -7.719501 
-14.1964 -10.0595 -10.0125 -12.16 
-14.6109 -14.2837 -12.5545 
-3.8655 -4.3535 -4.02 -3.8565 -4.002 0 
-8.796 -8.6455 -7.0675 -6.251 -4.002 
-13.342 -11.8154 -9.7295 -6.251 
-16.5119 -14.4774 -9.7295 
-19.1739 -14.4774 
-3.8655 -4.3535 -4.02 -5.4075 -3.991 
-8.796 -8.6455 -9.754 -8.295501 
-13.342 -14.5019 -13.0884 
-19.1984 -17.8363 
-22.5328 
-3.8655 -4.3535 -3.641 -3.959 -3.8565 -3.991 0 
-8.796 -8.477501 -8.561001 -6.4485 -7.9125 -3.991 
-13.174 -13.5559 -11.1985 -11.9031 -7.9125 
-18.2524 -16.1934 -16.6531 -11.9031 
-20.8899 -21.648 -16.6531 
