-4.759 
n/a 
n/a 
n/a 
n/a 
-4.759 
n/a 
n/a 
n/a 
n/a 
-4.759 
n/a 
n/a 
n/a 
n/a 
-4.759 
n/a 
n/a 
n/a 
n/a 
-5.1845 -3.8195 -3.655 -3.251 -3.2955 -3.948 -3.7865 -3.5005 -4.6035 0 -3.3195 0 -4.1465 0 -8.403501 0 
-6.896501 -5.969501 -6.7805 -6.03 -7.1505 -7.569 -7.126 -7.9575 -4.6035 -3.3195 -3.3195 -4.1465 -4.1465 -8.403501 -8.403501 
-8.322001 -8.765501 -9.598001 -9.015 -11.0251 -9.6815 -9.382501 -7.9575 -6.773001 -3.3195 -5.874001 -4.1465 -10.4265 -8.403501 
-11.4454 -11.6444 -12.6128 -12.9034 -13.1376 -11.9676 -9.382501 -9.210001 -6.773001 -5.874001 -5.874001 -10.4265 -10.4265 
-14.3243 -14.6592 -16.5012 -15.0159 -15.4237 -11.9676 -10.276 -9.210001 -8.198001 -5.874001 -13.048 -10.4265 
-5.1845 -4.6695 -3.2955 -3.5905 -3.7865 -3.2775 -2.5045 -4.6035 0 -3.3195 0 -4.1465 0 -1.756 -8.403501 -1.934 -5.1845 -3.7805 0 
-7.0515 -8.974001 -7.476501 -8.009501 -7.3805 -3.678 -7.488 -4.6035 -3.3195 -3.3195 -4.1465 -4.1465 -1.756 -9.995001 -10.051 -6.564 -6.988501 -3.7805 
-12.4344 -13.3758 -12.1609 -12.2059 -7.413 -8.032001 -7.488 -6.773001 -3.3195 -5.874001 -4.1465 -5.6545 -9.995001 -10.6515 -14.681 -9.055 -6.988501 
-16.8362 -18.0602 -16.3573 -12.2384 -9.450001 -8.032001 -8.899 -6.773001 -5.874001 -5.874001 -5.6545 -14.8211 -10.6515 -15.2815 -17.172 -9.055 
-21.5206 -22.2566 -16.3898 -14.2754 -9.450001 -8.9385 -8.899 -8.198001 -5.874001 -6.9045 -14.8211 -15.4776 -15.2815 -17.7725 -17.172 
-4.245 0 -3.3195 0 -4.1465 0 -2.4945 -2.5685 -3.2955 -1.934 -5.1845 -4.3225 0 
-4.245 -3.3195 -3.3195 -4.1465 -4.1465 -2.4945 -4.6335 -6.256001 -4.2285 -6.564 -7.6455 -4.3225 
-6.5305 -3.3195 -5.874001 -4.1465 -7.334001 -4.6335 -7.297501 -7.8105 -9.333 -8.929 -7.6455 
-6.5305 -5.874001 -5.874001 -7.334001 -9.011001 -7.297501 -8.191 -13.1318 -11.5738 -8.929 
-8.307501 -5.874001 -9.692 -9.011001 -11.7872 -8.191 -13.6995 -15.3726 -11.5738 
-5.1845 -4.6695 -2.791 -1.4985 -3.7865 -2.0935 -4.6035 0 -3.3195 0 -4.1465 0 -1.756 -8.403501 0 
-7.0515 -8.903501 -4.7765 -4.853 -6.314 -6.857 -4.6035 -3.3195 -3.3195 -4.1465 -4.1465 -1.756 -9.995001 -8.403501 
-12.3639 -11.1248 -8.255501 -6.964 -10.281 -6.857 -6.773001 -3.3195 -5.874001 -4.1465 -5.6545 -9.995001 -9.995001 
-14.5852 -14.6038 -11.0527 -10.6215 -10.281 -9.1745 -6.773001 -5.874001 -5.874001 -5.6545 -14.8211 -9.995001 
-18.0642 -17.401 -14.7102 -10.6215 -12.5985 -9.1745 -8.198001 -5.874001 -6.9045 -14.8211 -14.8211 
