-4.759 
n/a 
n/a 
n/a 
n/a 
-4.759 
n/a 
n/a 
n/a 
n/a 
-4.759 
n/a 
n/a 
n/a 
n/a 
-4.759 
n/a 
n/a 
n/a 
n/a 
-1.4985 -5.1845 -4.9 -2.229 -3.8825 -8.26 -4.0215 0 
-6.5205 -9.603001 -6.4355 -6.318501 -13.0001 -10.322 -4.0215 
-11.6544 -11.5263 -11.3448 -15.7259 -15.0621 -10.322 
-13.5777 -16.4356 -20.7522 -17.7879 -15.0621 
-18.487 -25.843 -22.8142 -17.7879 

n/a 
n/a 
n/a 
n/a 
-8.620501 -2.8645 -3.9205 -3.1495 -3.681 -3.433 -1.7565 -2.985 -5.6495 -3.519 
-10.4765 -6.4875 -7.2285 -5.1675 -6.514 -4.1845 -3.9355 -7.6195 -9.391001 
-14.0995 -9.2355 -8.691 -7.281 -7.509 -5.4825 -9.085501 -11.7884 
-16.8475 -10.8368 -11.0481 -8.48 -8.548 -10.6335 -13.3504 
-18.4488 -13.1939 -12.2471 -9.837501 -14.01 -14.8984 
-4.82 -1.4985 -4.2665 -3.383 -5.075 
-6.049 -5.031 -8.195 -7.1925 
-9.737 -8.830501 -10.749 
-13.7433 -11.5829 
-16.4957 
