-4.759 
n/a 
n/a 
n/a 
n/a 
-4.759 
n/a 
n/a 
n/a 
n/a 
-4.759 
n/a 
n/a 
n/a 
n/a 
-4.759 
n/a 
n/a 
n/a 
n/a 
-1.8085 -4.1985 -4.617 -3.2295 -2.664 -4.1145 -3.391 0 -2.9325 -2.3585 -2.4945 -3.937 -1.7695 -4.1145 -2.186 -4.0515 -1.7695 -3.769 0 
-5.2985 -9.4145 -7.6065 -5.4965 -8.6355 -8.276501 -3.391 -2.9325 -4.072 -3.538 -4.9975 -5.779 -6.501 -6.3365 -5.6745 -6.7335 -5.104 -3.769 
-11.1919 -12.5028 -8.9405 -12.085 -13.1303 -8.276501 -6.755 -4.072 -5.1495 -5.6045 -6.402 -11.3855 -8.8575 -10.7495 -7.861 -9.249001 -5.104 
-14.2802 -13.8368 -16.156 -16.5798 -13.1303 -12.0017 -8.333 -5.1495 -6.054 -7.257501 -12.2567 -13.742 -13.7867 -12.936 -10.1425 -9.249001 
-15.6142 -21.0523 -20.6508 -16.5798 -16.8555 -13.5797 -9.5625 -6.054 -7.513 -13.2922 -14.6132 -18.6712 -15.9732 -15.2175 -10.1425 
-2.871 -4.1985 -3.091 -7.425 -3.391 -4.3895 -4.1645 -3.264 -2.3585 -3.013 -2.9325 -2.0935 -7.425 -7.425 -3.013 -2.0935 -2.5685 0 
-6.5995 -7.509 -10.6605 -11.374 -7.614501 -8.014 -7.9985 -5.3785 -4.239 -5.058001 -6.2745 -9.6705 -8.9795 -10.8415 -5.1945 -3.987 -2.5685 
-10.2645 -15.3911 -14.6095 -15.5975 -12.177 -12.3186 -10.218 -7.474501 -6.509 -8.412001 -14.4579 -11.4856 -12.5406 -13.023 -7.3065 -3.987 
-18.1466 -19.3401 -18.833 -20.16 -16.4816 -14.5381 -12.314 -9.0115 -9.437 -17.1154 -16.273 -15.0467 -14.7221 -15.135 -7.3065 
-22.0956 -23.5636 -23.3955 -24.4646 -18.7011 -16.6341 -13.851 -12.5047 -18.9306 -18.9305 -19.8341 -17.2282 -16.8341 -15.135 
-2.871 -4.1985 
-6.5995 
n/a 
n/a 
n/a 
-1.934 -3.091 -4.1145 -3.391 0 -2.871 -4.1985 -3.824 -2.9905 -1.4985 -3.4635 -3.84 -2.3335 0 -2.9325 -2.3585 -2.674 -3.8535 -1.7695 -4.1145 -2.186 -3.486 -4.1145 -3.074 -3.8535 -1.7695 -3.769 0 
-4.2105 -8.1005 -8.276501 -3.391 -2.871 -6.5995 -8.425 -5.4365 -4.143 -3.6265 -6.2025 -5.628 -2.3335 -2.9325 -4.072 -3.6565 -4.9155 -5.1985 -6.501 -6.3365 -6.475 -7.964 -7.733 -6.4835 -5.1985 -5.104 -3.769 
-9.282001 -12.8017 -8.276501 -6.620501 -6.5995 -10.3545 -8.882 -6.351 -6.018001 -6.235001 -8.495001 -5.628 -5.2325 -4.072 -5.5395 -5.826 -6.3825 -10.7432 -8.8575 -11.5303 -11.6372 -12.4391 -11.7877 -7.9245 -7.977 -5.104 
-14.066 -12.8017 -11.8672 -9.2425 -10.3545 -10.479 -9.613501 -8.4905 -9.514 -8.7045 -8.495001 -9.749001 -6.122 -5.5395 -6.634501 -7.195 -12.1862 -13.0997 -14.5675 -16.6925 -16.1123 -16.4938 -13.2287 -10.9672 -7.977 
-14.066 -16.3924 -14.4892 -13.0545 -10.479 -11.2105 -11.753 -12.2293 -12.1683 -8.7045 -12.935 -10.7671 -7.4795 -6.634501 -7.67 -13.4037 -14.5427 -18.8097 -19.7297 -21.1676 -20.167 -17.9348 -16.2714 -10.9672 
