-4.759 
n/a 
n/a 
n/a 
n/a 
-4.759 
n/a 
n/a 
n/a 
n/a 
-4.759 
n/a 
n/a 
n/a 
n/a 
-4.759 
n/a 
n/a 
n/a 
n/a 
-1.4985 -4.1735 -3.6215 -1.934 -4.2085 -4.351 -2.186 -1.4985 -3.1335 -3.6215 0 
-4.445 -7.528501 -5.679501 -5.906 -7.982 -6.52 -3.339 -4.5045 -5.7895 -3.6215 
-7.991 -8.6075 -10.3383 -10.2085 -10.186 -7.480501 -6.7835 -7.2175 -5.7895 
-8.7395 -13.8595 -14.6408 -12.4125 -11.5957 -11.3998 -9.618 -7.2175 
-14.0373 -18.162 -16.8448 -13.8222 -15.515 -14.2343 -9.618 
-3.6215 -1.7565 -3.1335 -2.186 -3.691 -2.229 -3.6135 -3.6215 -2.0935 -4.351 
-3.936 -4.0965 -4.6915 -6.444 -5.0855 -5.2915 -7.8605 -5.408 -6.6815 
-8.3075 -6.598001 -9.832001 -6.529 -8.0035 -9.670501 -9.938001 -9.088 
-11.5146 -11.9241 -9.936 -10.243 -13.1663 -12.4752 -14.063 
-16.8407 -12.0281 -13.823 -15.4058 -15.971 -16.6002 
-1.4985 -4.4665 -3.6215 -1.934 -3.691 -2.186 -3.1335 -3.6215 -1.934 -5.4075 
-4.729 -8.378 -5.679501 -4.8225 -5.832 -6.2335 -5.7895 -5.679501 -7.756001 
-8.7665 -9.684001 -8.941 -6.714001 -10.4825 -10.2925 -7.803 -12.1883 
-9.788501 -13.2189 -10.451 -11.6035 -14.5415 -12.306 -14.6414 
-13.328 -14.7289 -15.3405 -15.6625 -16.555 -19.1444 
-3.691 -6.718 -7.0655 -2.186 -3.6135 -2.871 -1.7565 -3.1335 -10.8685 
-11.3408 -14.7545 -8.9235 -5.8795 -6.0005 -3.5385 -4.0965 -15.1374 
-19.3773 -16.6125 -12.678 -8.963 -7.9965 -8.177501 -17.1164 
-21.2353 -20.367 -15.7615 -9.764001 -12.6135 -21.6454 
-24.9898 -23.4505 -16.5625 -14.8208 -26.0814 
