-4.759 
n/a 
n/a 
n/a 
n/a 
-4.759 
n/a 
n/a 
n/a 
n/a 
-4.759 
n/a 
n/a 
n/a 
n/a 
-4.759 
n/a 
n/a 
n/a 
n/a 
-1.934 -5.3305 0 -7.359 -6.864 -1.8085 -4.6335 -3.6765 -1.934 -6.864 -3.8195 -7.711 -2.95 -1.7565 -3.091 -4.1 0 
-8.3435 -5.3305 -7.359 -9.5745 -9.481501 -5.878 -10.634 -5.201 -9.2825 -11.4713 -12.5983 -10.111 -4.3785 -4.0655 -6.8005 -4.1 
-8.3435 -10.195 -9.5745 -12.313 -13.5988 -12.5991 -12.1585 -13.4755 -14.078 -20.2501 -14.9983 -11.6913 -6.182 -7.5805 -6.8005 
-13.5804 -10.2025 -12.313 -16.4303 -20.3199 -14.1236 -20.433 -18.271 -22.8568 -22.6501 -16.5786 -13.4948 -9.6155 -7.5805 
-13.5879 -14.5636 -16.4303 -23.1514 -21.8444 -22.3981 -25.2285 -27.0498 -25.2568 -24.2304 -18.3821 -16.9283 -9.6155 
-1.4985 -3.9725 -3.0695 -3.7555 -3.251 -1.4985 -3.966 -3.355 -1.7565 -7.4885 -2.7415 -3.9725 -6.6225 -6.864 -1.934 -5.3305 
-4.88 -6.484 -5.774 -5.7495 -5.0745 -5.2005 -7.291 -3.725 -9.320001 -10.1555 -6.728001 -10.6475 -14.3313 -9.212501 -8.3435 
-7.044001 -9.316501 -8.529 -7.651 -8.0795 -8.518001 -7.4385 -12.0029 -12.1408 -14.142 -13.9234 -18.3563 -16.6798 -15.844 
-10.2225 -12.2425 -10.223 -10.085 -11.6344 -9.234 -16.5244 -14.8237 -16.1273 -21.3374 -21.6322 -20.7048 -23.3113 
-13.1485 -13.9365 -13.0324 -14.4759 -12.3504 -18.5541 -19.3452 -18.8102 -23.3227 -29.0462 -23.9807 -27.3363 
-8.257501 -3.59 -1.7565 -3.135 -3.7575 -3.0465 -3.973 0 
-12.2767 -5.228 -4.6765 -6.9285 -7.324 -7.593501 -3.973 
-13.9147 -8.5635 -8.8065 -11.2976 -12.422 -7.593501 
-17.2502 -12.9399 -13.1698 -16.3956 -12.422 
-21.6266 -17.3032 -18.2678 -16.3956 
-3.929 -5.0955 -1.756 -6.735 0 -1.4985 -3.8315 -6.864 -4.6805 -1.7565 -1.4985 -6.933001 -3.8405 -1.756 -1.4985 -3.3435 -1.7565 -3.1385 -4.5905 -3.4915 -1.7695 -1.4985 -4.2465 -4.6555 -1.7565 -1.4985 -5.1845 -3.59 0 
-9.444 -6.876 -8.306 -6.735 -1.4985 -4.604 -9.4145 -8.916 -5.617 -2.4195 -8.120501 -8.9175 -5.3535 -3.0405 -4.6745 -4.7005 -4.388 -7.4575 -7.318001 -5.051 -2.7955 -5.423 -7.822001 -5.318 -2.4195 -6.5205 -8.539001 -3.59 
-11.3479 -10.7175 -8.306 -8.578 -4.604 -9.826 -10.311 -10.0965 -6.6055 -8.875501 -9.1295 -10.3895 -6.2905 -6.256 -5.03 -7.1315 -8.507 -10.2485 -7.509501 -6.091001 -6.699501 -8.4305 -8.3995 -6.696501 -7.2335 -8.769501 -8.539001 
-15.1894 -10.7175 -10.298 -11.8579 -9.826 -10.5565 -11.4915 -10.6945 -13.9901 -9.694501 -10.7175 -11.3265 -9.486501 -6.844 -7.976 -11.9671 -11.515 -10.7115 -7.771501 -9.280001 -9.343 -8.620001 -8.846001 -12.1821 -9.320001 -8.769501 
-15.1894 -12.7095 -13.5779 -17.0799 -10.5565 -11.737 -12.0895 -18.0791 -14.8091 -11.3113 -11.6545 -14.5225 -9.677 -9.368501 -12.8788 -14.9751 -11.978 -10.9735 -9.922501 -12.1731 -9.4355 -9.087001 -14.5198 -14.2686 -9.320001 
