-4.759 
n/a 
n/a 
n/a 
n/a 
-4.759 
n/a 
n/a 
n/a 
n/a 
-4.759 
n/a 
n/a 
n/a 
n/a 
-4.759 
n/a 
n/a 
n/a 
n/a 
-2.0935 -2.3615 -3.0365 -2.4945 -3.3715 -4.3365 -4.4715 -4.0875 0 
-3.854 -5.891 -3.688 -4.846 -6.935 -8.761 -8.253 -4.0875 
-7.271 -6.443501 -4.8765 -8.266001 -12.0201 -12.7989 -8.253 
-7.801 -7.5735 -8.27 -14.1357 -16.058 -12.7989 
-8.905001 -11.0714 -14.1539 -18.1736 -16.058 
-5.53 -4.961 -2.0935 -2.3615 -5.4015 -1.8085 -3.845 0 
-11.142 -5.8805 -3.854 -6.782001 -7.823 -3.9645 -3.845 
-12.0615 -8.233001 -9.516001 -9.418501 -8.332001 -3.9645 
-14.414 -14.2694 -11.9539 -10.076 -8.332001 
-20.4504 -16.7073 -12.6114 -10.076 
-3.0415 -2.3615 -3.9175 -3.6885 -4.6675 -2.186 -3.6065 
-5.189 -6.698501 -9.1815 -8.989 -7.3735 -5.206 
-9.856501 -12.2341 -14.7458 -12.2118 -10.1145 
-15.6553 -17.7984 -17.9686 -14.9528 
-21.2196 -21.0212 -20.7096 
-2.0935 -2.3615 0 -1.4985 -8.321 -3.264 -3.4515 -5.705 -3.4155 -4.461 0 
-3.854 -2.3615 -1.4985 -9.684501 -11.96 -7.539001 -11.0145 -8.330001 -7.370501 -4.461 
-3.854 -4.913 -9.684501 -13.3681 -16.235 -15.7596 -13.6395 -13.0222 -7.370501 
-6.426 -13.2996 -13.3681 -17.6431 -24.4556 -18.3846 -18.3317 -13.0222 
-14.8928 -16.9832 -17.6431 -25.8637 -27.0806 -23.0768 -18.3317 
