-4.759 
n/a 
n/a 
n/a 
n/a 
-4.759 
n/a 
n/a 
n/a 
n/a 
-4.759 
n/a 
n/a 
n/a 
n/a 
-4.759 
n/a 
n/a 
n/a 
n/a 
-9.1415 -3.5085 -5.831 -3.976 0 -3.1205 -5.2815 
-12.7894 -9.591001 -10.6712 -3.976 -3.1205 -9.166 
-18.8719 -14.599 -10.6712 -7.371 -9.166 
-23.8799 -14.599 -14.0662 -14.0359 
-23.8799 -17.994 -20.7311 
-10.827 -8.703501 -9.1155 -2.186 -3.1205 -5.3975 
-19.5305 -18.0598 -11.9099 -6.274 -8.85 
-28.8868 -20.8542 -15.9979 -12.5605 
-31.6812 -24.9422 -22.2844 
-35.7692 -31.2287 
-3.5085 -3.3435 -2.229 -4.4755 -4.6 -2.186 0 -3.1205 -5.2815 
-7.0035 -5.37 -6.890501 -10.404 -7.406501 -2.186 -3.1205 -9.166 
-9.8715 -10.426 -13.11 -13.2105 -7.406501 -6.274 -9.166 
-14.9275 -16.6455 -15.9165 -13.2105 -11.7495 -12.8765 
-21.147 -19.452 -15.9165 -17.5535 -18.352 
-4.0535 -6.614501 -6.76 -5.915 
-10.9575 -14.424 -12.7265 
-18.767 -20.2772 
-24.6202 
n/a 
