-4.759 
n/a 
n/a 
n/a 
n/a 
-4.759 
n/a 
n/a 
n/a 
n/a 
-4.759 
n/a 
n/a 
n/a 
n/a 
-4.759 
n/a 
n/a 
n/a 
n/a 
-3.676 -2.186 -2.664 -4.494 -4.015 -2.264 -4.2655 -1.4985 -3.0835 -4.4485 -1.7695 -1.4985 -3.676 -2.229 -4.579 -4.3465 -4.248 -2.0935 -1.4985 -3.1385 -1.7695 -3.8185 -2.985 -3.5205 -4.2655 -2.5045 -3.543 -2.985 -4.0165 -1.756 -5.231 -1.4985 -3.5435 -3.737 -1.4985 -3.5035 -5.5245 -2.664 -4.7345 -1.7565 -4.2655 0 
-5.5015 -3.8555 -5.6075 -7.422501 -6.327001 -6.2065 -6.1055 -3.535 -5.488 -5.4235 -2.7955 -6.125 -4.593 -5.884501 -7.9435 -8.559 -6.208 -2.9725 -4.2575 -4.6115 -4.74 -6.213 -4.257 -7.0855 -6.422 -5.323 -6.913 -6.771501 -6.441 -6.73 -6.16 -4.2755 -7.373 -4.7615 -4.4895 -7.119 -7.1425 -6.3565 -5.089 -5.3855 -4.2655 
-7.218 -6.426001 -7.836 -11.0223 -11.4161 -7.83 -8.162001 -5.8 -6.816 -5.788 -7.397501 -6.428 -8.300501 -9.095 -12.514 -10.147 -6.9585 -5.5795 -6.0865 -6.8605 -6.658 -7.1575 -7.472 -8.7565 -9.5765 -7.268 -9.457001 -8.2545 -12.2118 -7.495 -8.429501 -7.915501 -8.39 -7.5205 -8.31 -7.2615 -7.218 -6.994 -7.000501 -5.3855 
-9.8525 -7.995501 -12.5108 -16.1114 -13.0396 -9.901001 -8.882501 -6.9905 -7.0525 -9.740001 -7.8005 -10.9853 -11.925 -13.9129 -14.102 -11.0149 -8.449 -7.0975 -8.554001 -8.2655 -7.561501 -9.321501 -9.123 -12.0362 -11.5663 -9.467501 -10.2195 -14.1767 -12.9768 -9.9835 -12.8839 -8.864 -11.3886 -11.9756 -10.275 -7.265 -7.219 -7.1675 -7.000501 
-11.8616 -13.6391 -17.5999 -17.7349 -15.1106 -10.345 -9.7825 -7.1415 -11.8167 -9.7815 -12.4814 -14.6098 -16.7429 -15.5009 -14.9699 -12.5054 -9.925 -9.306001 -9.896001 -9.240001 -9.4945 -11.1511 -12.5457 -14.026 -13.7658 -10.22 -16.1417 -14.9417 -15.4653 -14.4537 -13.8324 -11.943 -15.8437 -13.9406 -10.6663 -7.266 -7.2295 -7.1675 
-4.9405 -3.676 -2.186 -1.8085 -5.387 -3.59 0 -4.7575 -3.0835 -4.037 -3.5035 -3.468 -4.248 -1.7695 -3.8185 -2.9995 -4.2655 -2.356 -3.72 0 -1.756 -4.241 -2.5195 -1.4985 -4.2655 -5.5675 -4.9295 
-9.235001 -5.5015 -3.164 -6.345 -7.866 -3.59 -4.7575 -7.981 -7.7735 -8.77 -6.759 -7.649501 -5.4485 -4.74 -5.388 -6.728 -6.8905 -6.257501 -3.72 -1.756 -5.463 -6.476 -3.1695 -5.9775 -9.8505 -10.389 
-10.097 -6.3355 -7.4665 -8.109 -7.866 -8.368 -7.981 -12.9536 -13.0415 -12.2891 -11.9085 -8.8255 -8.179501 -7.110001 -8.6575 -9.119 -10.4185 -6.257501 -4.786 -5.463 -7.67 -7.5965 -7.815 -10.6095 -15.0002 
-11.5962 -8.976501 -8.620001 -8.109 -13.1066 -12.2397 -12.9536 -18.2216 -16.5606 -17.4386 -13.0845 -11.9847 -9.972 -9.238501 -11.2885 -12.7996 -10.4185 -7.202001 -8.147501 -7.67 -8.878 -12.7328 -12.7338 -16.1852 
-14.2372 -9.913 -8.620001 -13.4704 -16.9783 -17.2123 -18.2216 -21.7407 -21.7101 -18.6146 -16.2437 -13.7772 -10.365 -11.9765 -14.9691 -12.7996 -12.6846 -10.8205 -9.639501 -8.878 -14.1393 -17.6516 -18.3095 
-7.410501 -3.676 -2.186 -2.6165 -2.664 -2.871 -4.2655 -3.1715 0 -3.4975 -3.9655 -3.5035 -2.229 -3.535 -4.467 -2.186 -4.2655 -3.2645 -2.489 -4.015 -1.756 -3.3875 -2.489 -4.3895 -2.3345 -3.6055 -2.871 -3.7895 -1.756 -4.1 -3.3875 -2.489 -4.93 0 
-11.7135 -5.5015 -3.5105 -4.827 -6.8535 -6.994 -7.3465 -3.1715 -3.4975 -6.154 -7.343 -6.0205 -5.2675 -8.969501 -6.2975 -6.976501 -7.156 -3.7195 -6.143001 -5.684 -5.079 -3.7975 -5.436501 -4.6785 -6.0955 -5.363 -7.3075 -5.179 -6.0495 -6.9635 -3.7975 -5.8135 -4.93 
-13.539 -6.37 -5.13 -9.029 -11.3537 -10.19 -7.3465 -7.3035 -6.154 -10.6795 -10.6172 -8.359501 -10.068 -10.0105 -12.0664 -10.0965 -7.5285 -7.1445 -7.127501 -8.636001 -5.439 -6.1605 -5.869 -8.246 -7.5065 -10.6845 -8.911 -9.6815 -9.935 -7.236001 -7.5825 -5.8135 
-14.4075 -8.6675 -9.281 -14.007 -14.5497 -10.19 -12.5757 -9.384501 -10.6795 -13.9537 -12.9562 -13.9154 -11.3192 -16.4234 -15.1864 -10.5495 -11.3845 -8.29 -9.458 -9.084001 -7.05 -6.74 -8.812 -9.896 -13.1712 -12.288 -13.7819 -13.7984 -10.2075 -10.264 -7.5825 
-16.705 -13.0745 -14.5608 -17.203 -14.5497 -15.5466 -14.6567 -14.726 -13.9537 -16.2927 -18.5121 -15.1666 -17.7321 -19.5434 -15.6394 -14.4055 -12.53 -10.7903 -10.186 -11.0354 -7.1025 -9.456 -10.322 -15.6591 -14.7747 -17.1589 -17.8988 -14.0709 -13.2355 -10.264 
-3.5435 -3.676 -2.229 -2.871 -1.7565 -1.4985 -3.59 -3.676 -2.229 -3.5035 -1.7695 -3.0835 -4.6045 -1.7565 -3.935 -1.7695 -3.5435 0 
-8.083 -4.593 -5.068 -3.5385 -2.4195 -4.268 -7.235001 -4.593 -5.3825 -5.3545 -5.301 -8.872001 -6.599 -6.5585 -5.7105 -5.561501 -3.5435 
-8.6625 -8.225 -5.509501 -3.7675 -5.009 -8.326 -7.566 -8.356001 -7.31 -9.314 -11.8171 -10.419 -12.221 -9.1495 -9.593 -5.561501 
-12.4849 -9.5115 -5.718 -6.2585 -9.204 -8.737 -12.3102 -11.3297 -11.4929 -16.0803 -13.3641 -16.041 -14.812 -13.2002 -9.593 
-13.7714 -9.729 -8.723001 -12.3455 -9.815001 -13.8008 -15.2839 -15.5126 -18.2592 -17.6273 -18.9861 -18.632 -18.8627 -13.2002 
