-4.759 
n/a 
n/a 
n/a 
n/a 
-4.759 
n/a 
n/a 
n/a 
n/a 
-4.759 
n/a 
n/a 
n/a 
n/a 
-4.759 
n/a 
n/a 
n/a 
n/a 
-3.3985 -8.359501 -4.392 -2.5685 -3.188 -4.392 -4.024 
-12.135 -15.0285 -7.312 -6.2315 -7.0935 -8.998001 
-18.4336 -17.9215 -11.5334 -10.9128 -13.1105 
-21.3536 -22.1429 -16.2147 -16.9298 
-25.575 -26.8242 -22.2317 
-3.3985 -10.4045 -5.3895 -3.251 -3.1125 -4.622 -4.33 -3.38 -7.7355 0 
-13.4642 -17.1248 -8.1645 -4.28 -6.2325 -8.2665 -7.567501 -9.59 -7.7355 
-20.5569 -19.8998 -9.055 -7.5225 -9.836 -12.0276 -14.3001 -9.59 
-23.3319 -20.7903 -10.3045 -11.375 -13.3055 -18.7602 -14.3001 
-24.2224 -22.0398 -14.2578 -14.8445 -20.0381 -18.7602 
-3.3985 -2.855 0 -9.054001 -6.371 -2.7415 -4.622 -4.33 -4.3925 -3.7345 -3.9535 0 
-5.2985 -2.855 -9.054001 -15.6826 -8.240001 -5.66 -8.2665 -7.241501 -7.934 -7.056 -3.9535 
-5.2985 -12.5252 -15.6826 -17.5516 -10.703 -8.9835 -11.7016 -11.9336 -11.8073 -7.056 
-15.9573 -19.1538 -17.5516 -20.0146 -14.0265 -12.7332 -16.3937 -15.8069 -11.8073 
-22.5859 -21.0228 -20.0146 -23.3381 -17.7762 -17.4253 -20.267 -15.8069 
-3.3985 -2.855 -9.081 -4.99 -2.7415 -4.622 -4.33 -3.4225 -3.188 -4.338 -1.934 -4.5285 
-5.2985 -12.5522 -14.4616 -7.306001 -5.66 -8.2665 -8.781 -7.1355 -8.025001 -6.2625 -6.908 
-15.9843 -17.9328 -16.7776 -8.51 -8.9835 -13.2411 -12.2182 -12.7769 -10.4345 -11.7067 
-21.3649 -20.2488 -17.9816 -11.9073 -14.2727 -16.6783 -17.8596 -15.1864 -15.8787 
-23.6809 -21.4528 -21.3789 -17.1965 -17.7099 -22.3197 -20.2691 -20.6306 
