-4.759 
n/a 
n/a 
n/a 
n/a 
-4.759 
n/a 
n/a 
n/a 
n/a 
-4.759 
n/a 
n/a 
n/a 
n/a 
-4.759 
n/a 
n/a 
n/a 
n/a 
-1.4985 -4.783 -1.7565 -1.8085 -4.0455 -2.186 -4.617 -2.5195 -4.632501 -1.7695 -4.736 -4.653 -2.5195 -1.4985 -4.1365 0 
-5.9665 -5.727 -3.2595 -5.2965 -5.900001 -5.693501 -6.174 -6.6185 -6.3915 -6.304501 -8.229001 -7.1825 -3.1695 -4.6595 -4.1365 
-6.2415 -6.995 -6.3345 -7.035501 -9.099501 -7.034 -10.5085 -9.242001 -9.4175 -9.581501 -9.859 -7.674 -5.7345 -4.6595 
-7.191 -8.634501 -7.935 -9.3925 -10.5435 -11.6069 -11.4774 -9.2405 -11.4245 -11.308 -10.1 -9.302501 -5.7345 
-8.741 -9.422501 -9.436001 -11.2267 -15.5642 -12.4548 -12.8054 -12.3917 -13.9411 -11.9949 -11.8683 -9.302501 
-4.442 -4.1165 0 -1.934 -3.539 -3.873 -3.2295 -4.1925 -3.602 -1.7565 -9.368501 -4.653 -4.1925 -4.85 0 
-9.171 -4.1165 -1.934 -6.5135 -8.049001 -7.056 -8.7615 -6.19 -4.5195 -9.228001 -11.393 -9.8505 -10.1265 -4.85 
-9.171 -6.303 -6.5135 -11.8487 -11.5254 -13.2242 -10.523 -6.932 -12.555 -12.467 -15.9437 -15.8965 -10.1265 
-12.1593 -11.7109 -11.8487 -15.3251 -17.6936 -14.9857 -11.265 -14.9025 -17.5295 -19.8424 -23.0949 -15.8965 
-17.5672 -17.0461 -15.3251 -21.4933 -19.4551 -15.7277 -19.016 -19.7082 -23.5191 -25.9961 -23.4391 
-4.442 -4.783 0 -2.186 -3.6845 0 -3.2645 -2.489 -4.617 -2.5195 -1.4985 -3.873 -3.518 -2.5045 -4.632501 0 -4.736 -4.8565 -2.645 
-8.93 -4.783 -2.186 -5.7515 -3.6845 -3.2645 -3.7195 -5.6095 -6.174 -3.1695 -4.7405 -8.057 -5.876 -6.186501 -3.881 -3.9815 -7.9935 -7.719 
-8.93 -6.6095 -5.7515 -5.7515 -6.7065 -3.7195 -6.7495 -7.254 -6.427 -6.237 -8.827001 -10.375 -10.211 -6.8075 -6.675 -7.324501 -10.039 
-10.598 -9.658 -5.7515 -9.590501 -7.0075 -6.7495 -8.3465 -7.443 -10.3345 -10.459 -11.2716 -14.4106 -9.747001 -10.0935 -10.976 -10.3155 
-13.6465 -9.658 -9.590501 -10.649 -10.7445 -8.3465 -8.487 -11.5367 -14.7563 -12.9036 -15.3072 -14.4106 -12.6902 -14.4697 -14.3112 
-4.442 -3.4905 -1.756 -3.1435 -3.9005 -3.873 -3.824 -1.7565 -4.632501 -1.7695 -2.998 -4.8565 0 
-8.337501 -4.954 -4.1365 -6.471 -7.621 -8.407001 -5.037 -5.9635 -6.3915 -5.084 -7.0235 -4.8565 
-9.852501 -7.4725 -7.665 -10.0095 -12.7546 -9.524501 -10.309 -8.606501 -8.6155 -8.011001 -7.0235 
-12.371 -11.2998 -11.4087 -15.5255 -13.8721 -14.9514 -12.085 -10.724 -11.5535 -8.011001 
-16.1983 -15.0435 -16.9247 -16.643 -19.299 -16.9329 -14.5915 -13.2145 -11.7615 
