-4.759 
n/a 
n/a 
n/a 
n/a 
-4.759 
n/a 
n/a 
n/a 
n/a 
-4.759 
n/a 
n/a 
n/a 
n/a 
-4.759 
n/a 
n/a 
n/a 
n/a 
-1.8085 -3.4865 -2.9635 -2.264 -3.4225 -4.0965 
-4.572001 -7.264 -5.3015 -6.4965 -4.2 
-8.107 -9.1055 -10.3545 -7.9425 
-9.274 -14.3141 -11.9189 
-14.5174 -15.8785 
-3.766 -4.5075 -1.7565 -2.7455 -5.036 
-8.8505 -7.577001 -4.9365 -7.456501 
-12.0984 -11.1574 -10.9285 
-15.6788 -17.312 
-21.8334 
-3.8755 -3.509 -1.7565 -4.0865 -3.4225 -4.5675 
-7.504001 -4.762 -6.046501 -8.345 -8.896 
-8.337501 -9.3725 -9.850501 -14.1123 
-13.3734 -13.3159 -15.9098 
-17.3168 -19.3752 
-3.4865 -3.277 -1.7565 -3.4225 -4.1265 -3.59 0 
-5.351501 -4.9135 -5.6355 -6.775001 -8.1225 -3.59 
-7.631501 -8.779 -8.59 -10.0255 -8.1225 
-12.0084 -10.5745 -11.8181 -10.0255 
-13.8039 -13.8026 -11.8181 
