-4.759 
n/a 
n/a 
n/a 
n/a 
-4.759 
n/a 
n/a 
n/a 
n/a 
-4.759 
n/a 
n/a 
n/a 
n/a 
-4.759 
n/a 
n/a 
n/a 
n/a 
-4.539 0 -7.14 -9.227 -9.1945 0 -5.1645 0 
-4.539 -7.14 -16.7454 -18.9875 -9.1945 -5.1645 -5.1645 
-12.0676 -16.7454 -26.5059 -18.9875 -14.5352 -5.1645 
-21.673 -26.5059 -26.5059 -24.3282 -14.5352 
-31.4335 -26.5059 -31.8466 -24.3282 
-7.41 -5.924 -7.943501 
-14.4775 -15.0665 
-24.2902 
n/a 
n/a 
-4.539 0 -6.649 -12.16972 -3.5775 -9.782001 0 -5.1645 0 
-4.539 -6.649 -19.20412 -15.74722 -14.3943 -9.782001 -5.1645 -5.1645 
-11.5766 -19.20412 -22.78162 -26.56402 -14.3943 -14.9685 -5.1645 
-24.13172 -22.78162 -33.59842 -26.56402 -19.5808 -14.9685 
-27.70922 -33.59842 -33.59842 -31.75052 -19.5808 
-4.539 0 -7.205 -9.227 -8.2705 0 -5.1645 0 
-4.539 -7.205 -16.7004 -18.0635 -8.2705 -5.1645 -5.1645 
-12.1326 -16.7004 -25.5369 -18.0635 -13.868 -5.1645 
-21.628 -25.5369 -25.5369 -23.661 -13.868 
-30.4645 -25.5369 -31.1344 -23.661 
