-4.759 
n/a 
n/a 
n/a 
n/a 
-4.759 
n/a 
n/a 
n/a 
n/a 
-4.759 
n/a 
n/a 
n/a 
n/a 
-4.759 
n/a 
n/a 
n/a 
n/a 
-2.9805 -2.7415 -4.2215 -1.934 -9.791 0 -7.417 -3.8145 0 
-4.004 -4.7885 -4.885 -10.523 -9.791 -7.417 -8.6715 -3.8145 
-5.7885 -5.2365 -14.2244 -10.523 -10.7025 -8.6715 -8.6715 
-6.226 -14.6413 -14.2244 -11.4345 -10.758 -8.6715 
-15.6244 -14.6413 -15.1359 -11.49 -10.758 
-4.2215 -1.934 -9.791 -1.934 -7.417 -3.8145 
-4.885 -10.523 -12.0216 -8.778501 -8.6715 
-14.2244 -12.7536 -18.8661 -9.205501 
-16.455 -19.5981 -19.2931 
-23.2995 -20.0251 
-2.9805 -2.7415 -4.2215 -1.934 -9.791 -1.934 -1.4985 -3.8145 -1.7565 -7.417 0 
-4.004 -4.7885 -4.885 -10.523 -12.0216 -2.6125 -4.691 -4.711 -9.2345 -7.417 
-5.7885 -5.2365 -14.2244 -12.7536 -12.7001 -5.615 -5.443 -10.7175 -9.2345 
-6.226 -14.6413 -16.455 -13.4321 -15.7026 -6.2495 -11.7509 -10.7175 
-15.6244 -16.8719 -17.1335 -16.4346 -16.3371 -12.1936 -11.7509 
-2.9805 -2.186 -4.2215 -1.934 -9.791 -1.934 -7.417 -3.8145 
-4.1635 -5.737 -4.885 -10.523 -12.0216 -8.778501 -8.6715 
-7.3765 -6.8215 -14.2244 -12.7536 -18.8661 -9.205501 
-8.394501 -16.4743 -16.455 -19.5981 -19.2931 
-18.2043 -18.7049 -23.2995 -20.0251 
