-4.759 
n/a 
n/a 
n/a 
n/a 
-4.759 
n/a 
n/a 
n/a 
n/a 
-4.759 
n/a 
n/a 
n/a 
n/a 
-4.759 
n/a 
n/a 
n/a 
n/a 
-2.3615 -3.8405 -2.186 -3.849 -2.5045 -4.3305 -3.158 
-5.371 -5.629 -4.8565 -6.305 -7.729 -8.8815 
-6.887 -8.028501 -7.104 -11.6331 -12.7294 
-8.485001 -10.322 -12.5619 -16.6335 
-10.597 -15.7799 -17.5623 
-2.3615 -3.852 -2.186 -4.5085 -1.7695 -2.5045 -4.9845 -3.158 
-5.0835 -5.707 -5.704 -4.58 -4.8865 -7.788501 -9.816501 
-6.7345 -9.64 -5.734 -5.027 -10.085 -13.2111 
-10.634 -9.647 -5.9255 -10.1945 -15.5076 
-10.655 -10.008 -11.4206 -15.6171 
-2.3615 -3.8405 -2.186 -3.849 -2.5045 -2.664 -7.8925 -4.9375 -3.8405 
-5.371 -5.629 -4.8565 -6.305 -4.074 -8.986 -13.551 -7.3315 
-6.887 -8.028501 -7.104 -7.8325 -10.8908 -14.8353 -15.945 
-8.485001 -10.322 -8.6195 -15.1361 -16.7401 -17.2293 
-10.597 -11.8375 -16.0217 -20.9854 -19.1341 
-2.3615 -7.806 -2.186 -3.849 -2.5045 -2.871 -3.757 -3.2795 -3.158 
-9.6125 -9.5655 -4.8565 -6.305 -4.7085 -6.1185 -7.184501 -7.443501 
-11.3952 -12.2794 -7.104 -8.8465 -8.616501 -10.071 -11.8513 
-14.1091 -14.5269 -9.84 -12.8111 -12.6288 -15.1602 
-16.3566 -17.2629 -13.6772 -16.8234 -17.718 
