-4.759 
n/a 
n/a 
n/a 
n/a 
-4.759 
n/a 
n/a 
n/a 
n/a 
-4.759 
n/a 
n/a 
n/a 
n/a 
-4.759 
n/a 
n/a 
n/a 
n/a 
-2.9325 -2.186 -3.4625 -5.0775 -3.1015 -1.934 -1.4985 -4.1135 -5.116 -1.756 -3.9225 -3.1385 -2.186 -3.8105 -2.4265 -2.186 -3.768 -1.7695 -4.115 -1.4985 -6.0505 -3.1385 -1.756 -1.4985 -3.4425 -1.7565 -3.873 -1.934 -2.9705 -2.925 -3.511 -2.5045 -1.8085 -4.2775 -3.1715 -2.4285 -1.8085 -3.59 -1.7565 -1.4985 -3.4225 -4.0965 0 
-3.8335 -4.4835 -7.665 -8.8365 -4.8375 -2.6125 -5.4345 -8.227 -6.2415 -5.791 -6.1675 -5.6995 -5.517 -4.9125 -3.292 -4.7835 -4.5885 -4.7185 -4.8635 -7.816501 -9.842001 -4.6325 -3.0405 -4.4545 -4.5535 -5.002 -5.468 -4.051 -4.773 -5.669001 -6.094501 -3.3625 -4.8285 -7.104 -4.7325 -4.126 -4.973001 -5.228 -2.4195 -3.9655 -4.2 -4.0965 
-5.989 -8.212501 -10.1505 -10.76 -5.59 -6.491 -9.824 -9.3025 -8.595 -7.988 -8.46 -8.8745 -6.7475 -5.4655 -4.9545 -5.1875 -7.4155 -5.5065 -11.6695 -11.6762 -12.1108 -5.789001 -6.2695 -5.141 -6.7085 -6.237 -7.3615 -5.348001 -6.617001 -7.717 -6.940001 -5.875 -7.3785 -9.02 -6.609 -7.302001 -6.5275 -6.392 -4.6245 -5.179 -4.2 
-8.682501 -10.523 -12.074 -11.5125 -10.107 -10.0885 -10.9935 -11.7258 -10.9734 -10.0005 -11.811 -9.956501 -7.191 -6.9745 -5.2125 -7.8915 -8.066 -12.5481 -15.5292 -13.945 -13.2673 -8.792001 -7.155 -7.3315 -8.0425 -8.3095 -8.414001 -6.681 -8.338501 -8.658501 -9.636001 -8.404 -9.173 -10.2095 -8.754001 -9.101501 -7.969 -8.289001 -6.037 -5.179 
-11.346 -12.4465 -12.8265 -16.0295 -13.8309 -11.2782 -13.4168 -14.1042 -12.9859 -13.6385 -12.893 -10.327 -8.0835 -7.0845 -7.898 -8.524501 -15.132 -16.4078 -17.798 -15.1015 -16.2703 -10.057 -8.957 -8.76 -9.2325 -9.7915 -9.2115 -8.4495 -9.248 -11.6429 -12.3498 -10.0955 -10.2435 -12.3545 -10.8225 -9.911 -9.831501 -8.855 -6.037 
-3.4775 -3.9225 -4.91 -5.116 -1.756 -3.458 -3.1385 -2.4265 -2.186 -3.4625 -4.463 -2.3335 -5.799 -3.1385 -1.756 -2.985 -3.8245 -3.8195 -2.7765 -2.489 -4.1205 -2.5045 -4.2775 -3.355 -1.756 -3.59 -1.7565 -3.4225 -4.0965 0 
-7.2995 -8 -8.811001 -6.2415 -5.54 -6.106501 -5.6295 -3.292 -4.4835 -6.162 -6.849 -8.7755 -8.39 -4.6325 -4.2025 -6.332 -6.509501 -6.429 -3.495 -4.6245 -5.3175 -6.0845 -7.201 -5.5415 -5.4585 -5.228 -5.6355 -4.2 -4.0965 
-11.7254 -10.564 -9.916 -9.693501 -8.082001 -8.279501 -6.243001 -5.8555 -6.8905 -8.347 -13.5214 -10.389 -9.693001 -6.0665 -7.922501 -8.7225 -9.196501 -6.769001 -5.811501 -5.589 -8.013 -9.354 -9.101 -10.3815 -6.907 -8.6315 -7.05 -4.2 
-14.2894 -11.669 -13.4336 -12.3281 -10.111 -8.7635 -9.129001 -8.2895 -9.061001 -15.324 -15.1349 -11.692 -10.752 -9.224001 -9.848001 -11.5567 -9.533501 -8.867001 -6.442 -8.255 -11.5111 -11.3932 -14.078 -10.761 -11.0053 -9.696 -7.05 
-15.3944 -15.1866 -16.0682 -14.3571 -10.581 -11.7897 -11.5696 -9.961 -16.166 -16.9375 -16.4379 -12.751 -13.9095 -11.4349 -12.8676 -11.8937 -11.6925 -9.511001 -9.1 -11.8383 -13.5503 -16.3702 -14.4575 -14.8593 -12.0698 -9.696 
-3.1015 -3.4005 -1.8085 -5.5255 -4.9225 -2.4945 -4.463 -2.3345 0 -3.8245 -1.934 -4.088 -1.7565 -8.836 -4.9225 -2.4945 -4.3285 -1.7695 -4.794 -3.5015 -2.4285 -3.59 -2.0935 -2.3615 -3.634 
-7.127 -5.8575 -7.419001 -11.653 -6.9525 -5.506001 -6.173 -2.3345 -3.8245 -4.7245 -5.7545 -5.4975 -11.5417 -13.9311 -6.9525 -5.63 -6.210001 -7.645 -9.203501 -5.765 -5.918 -5.627 -3.854 -4.7085 
-10.7025 -12.2192 -14.3571 -13.683 -9.848001 -7.489501 -6.173 -6.3795 -4.7245 -8.138 -7.210001 -16.3979 -16.6368 -15.9611 -10.66 -7.507 -12.6793 -12.2471 -11.656 -8.376 -8.007501 -7.6455 -6.2635 
-17.0642 -19.1573 -16.3871 -16.5785 -11.8235 -7.489501 -10.5578 -7.221 -8.138 -9.7135 -18.271 -21.493 -18.6668 -19.6686 -12.537 -14.3061 -17.2814 -14.6996 -14.267 -10.0575 -10.341 -10.4855 
-24.0023 -21.1873 -19.2826 -18.554 -11.8235 -11.8691 -11.3993 -10.341 -9.7135 -20.8207 -23.3661 -23.523 -22.3743 -21.5456 -19.3361 -18.9082 -19.7339 -17.3106 -15.9485 -12.6524 -13.181 
-2.9325 -2.186 -3.4625 -5.7045 -1.934 -4.1135 -4.328 -1.756 -3.9225 -3.1385 -2.186 -2.3335 -2.7835 -3.0365 -2.186 -2.9995 -4.656 -1.7695 -4.115 -5.799 -3.1385 -1.756 -1.4985 -3.5015 -2.925 -3.511 -2.5045 -1.8085 -4.2775 -3.355 -1.7565 -1.4985 -3.5045 -2.4285 -1.8085 -4.2775 -4.1265 
-3.8335 -4.4835 -6.7995 -6.695 -5.8155 -5.746 -5.294 -5.791 -6.1675 -5.6995 -3.9765 -4.5665 -4.4665 -3.66 -5.3555 -6.5525 -5.675 -4.7185 -10.368 -8.39 -4.6325 -3.0405 -4.737 -6.155 -5.669001 -6.094501 -3.3625 -4.8285 -7.201 -3.725 -2.4195 -4.4045 -5.8505 -4.126 -4.8285 -7.884 
-5.989 -7.652 -7.3425 -10.6465 -7.3265 -6.5975 -8.622 -7.988 -8.46 -7.0255 -5.7105 -6.195 -4.811501 -5.7115 -7.654 -7.4955 -8.3855 -11.2393 -13.3208 -9.693001 -5.789001 -6.381 -6.943501 -8.232 -7.717 -6.940001 -5.875 -7.4545 -7.584 -4.0515 -5.518001 -6.514501 -8.1005 -7.0445 -8.019001 
-8.763 -8.281501 -11.6912 -12.1575 -8.163 -10.0035 -10.858 -10.0005 -9.4175 -8.6885 -7.3175 -6.566 -5.9125 -7.666501 -8.664001 -10.525 -15.0875 -14.1921 -14.6238 -10.762 -8.3655 -8.4735 -8.336 -10.181 -8.658501 -9.636001 -8.1125 -7.709001 -7.7645 -7.052001 -7.9115 -8.356001 -11.31 -10.674 
-9.6785 -12.6002 -13.2022 -12.994 -11.822 -12.3793 -12.8705 -11.245 -10.5865 -10.4505 -7.615 -7.6165 -7.8475 -8.726001 -11.8541 -17.227 -18.0403 -15.4951 -15.6928 -13.3385 -9.964001 -9.6505 -10.2175 -10.6415 -11.6429 -12.0583 -8.495501 -7.8675 -10.597 -8.718 -9.712001 -11.7237 -14.9395 
