-4.759 
n/a 
n/a 
n/a 
n/a 
-4.759 
n/a 
n/a 
n/a 
n/a 
-4.759 
n/a 
n/a 
n/a 
n/a 
-4.759 
n/a 
n/a 
n/a 
n/a 
-4.613 0 -5.692 -12.16972 -8.827001 0 -5.943501 0 
-4.613 -5.692 -18.01812 -20.99672 -8.827001 -5.943501 -5.943501 
-9.3885 -18.01812 -26.84512 -20.99672 -15.1053 -5.943501 
-22.05342 -26.84512 -26.84512 -27.27502 -15.1053 
-30.88042 -26.84512 -33.12342 -27.27502 
-4.613 0 -5.692 -8.8155 -9.1005 0 -5.943501 0 
-4.613 -5.692 -10.8415 -18.1232 -9.1005 -5.943501 -5.943501 
-9.3885 -10.8415 -20.1492 -18.1232 -15.3658 -5.943501 
-14.8768 -20.1492 -20.1492 -24.3885 -15.3658 
-24.1845 -20.1492 -26.4145 -24.3885 
-4.613 0 -5.692 -9.566501 -9.1005 0 -5.943501 0 
-4.613 -5.692 -15.4149 -18.6922 -9.1005 -5.943501 -5.943501 
-9.3885 -15.4149 -24.5406 -18.6922 -15.3658 -5.943501 
-19.4502 -24.5406 -24.5406 -24.9575 -15.3658 
-28.5759 -24.5406 -30.8059 -24.9575 
-4.613 0 -5.692 -8.945001 -9.1005 0 -5.943501 0 
-4.613 -5.692 -11.136 -18.3015 -9.1005 -5.943501 -5.943501 
-9.3885 -11.136 -20.4925 -18.3015 -15.3658 -5.943501 
-15.1713 -20.4925 -20.4925 -24.5668 -15.3658 
-24.5278 -20.4925 -26.7578 -24.5668 
