-4.759 
n/a 
n/a 
n/a 
n/a 
-4.759 
n/a 
n/a 
n/a 
n/a 
-4.759 
n/a 
n/a 
n/a 
n/a 
-4.759 
n/a 
n/a 
n/a 
n/a 
-4.1865 -4.8015 -2.8645 -3.2495 -3.8745 -1.934 -2.4265 
-7.914001 -7.5955 -5.3035 -7.1485 -6.057 -4.6645 
-10.5535 -9.699 -9.415001 -8.2185 -9.082001 
-12.657 -13.8105 -10.689 -11.5147 
-16.7685 -15.0845 -13.9852 
-3.0365 -2.4945 -3.2495 -3.8745 -1.934 -1.4985 -3.4985 -1.756 -1.4985 -4.1355 -1.7565 -3.8735 0 
-3.688 -4.891 -7.1485 -6.057 -2.6125 -4.798 -4.7925 -3.0405 -5.2415 -6.009501 -5.112 -3.8735 
-5.0435 -8.757501 -8.2185 -6.350501 -5.8135 -6.285501 -6.309 -7.0235 -6.321001 -8.690001 -5.112 
-9.005501 -9.639501 -8.4445 -10.4731 -7.3595 -7.473001 -9.8715 -8.0885 -8.916 -8.690001 
-9.7585 -9.755501 -12.7415 -12.0191 -8.762001 -11.3255 -10.3995 -11.0893 -8.916 
-1.934 -1.4985 -4.1865 -4.8925 -3.0365 -2.4945 -3.2495 -3.8745 
-2.6125 -5.177 -9.239 -7.576 -3.688 -4.891 -7.1485 
-6.116 -9.865001 -12.1375 -8.029 -5.0435 -8.757501 
-11.439 -12.8687 -12.5905 -9.222501 -9.005501 
-14.4427 -13.3217 -13.784 -13.2623 
-3.0365 -2.4945 -3.2495 -3.2795 -1.7565 -3.8745 -3.5445 -4.1865 -4.1355 
-3.688 -4.891 -7.0745 -4.4575 -6.2305 -7.606 -7.805 -7.5675 
-5.0435 -8.895 -8.717501 -7.1445 -8.8675 -12.1023 -11.8914 
-8.972 -9.828 -11.4891 -9.719001 -13.6658 -16.1887 
-9.8915 -12.8396 -14.0636 -14.5899 -17.7522 
