-4.759 
n/a 
n/a 
n/a 
n/a 
-4.759 
n/a 
n/a 
n/a 
n/a 
-4.759 
n/a 
n/a 
n/a 
n/a 
-4.759 
n/a 
n/a 
n/a 
n/a 
-1.934 -4.9755 -3.3195 -2.7765 -2.489 -4.7925 -3.222 -4.7115 -1.756 -7.2205 0 -4.013 -1.4985 -5.43 -3.6185 -1.756 -4.282 -3.458 -3.3195 -4.7115 -2.4945 -3.908 -5.177 0 -4.2125 -3.4295 -1.7695 -3.8755 -4.718 0 -1.756 -4.976 -5.0665 -3.5445 0 -1.4985 -3.7865 0 0 -3.3195 -2.882 -2.489 -4.552 -2.5045 -1.8085 -4.433 -3.594 0 -1.8085 -4.062 -3.594 0 -1.756 -5.6105 -3.594 0 
-6.249 -8.407001 -6.3525 -3.495 -5.7645 -5.2095 -8.160501 -6.395 -8.344 -7.2205 -4.013 -4.7555 -6.599501 -7.195001 -5.2365 -5.693 -5.5125 -7.0965 -6.3465 -7.1285 -4.928 -7.722 -5.177 -4.2125 -7.9475 -4.784 -5.558 -7.792 -4.718 -1.756 -5.947 -8.6575 -8.1945 -3.5445 -1.4985 -4.853 -3.7865 0 -3.3195 -6.736 -3.631 -5.8315 -5.362 -3.3625 -6.7215 -7.0395 -3.594 -1.8085 -5.134 -5.1235 -3.594 -1.756 -6.7615 -9.113001 -3.594 
-10.5745 -11.9714 -6.816501 -6.2235 -6.0075 -9.135 -9.109501 -8.6285 -8.344 -9.783001 -4.7555 -9.2935 -7.615001 -8.635 -9.342501 -7.0925 -8.307 -9.436001 -7.921 -9.279 -8.262 -7.722 -8.322001 -7.9475 -8.851 -8.062 -8.434 -7.792 -5.900001 -5.947 -8.908 -9.992001 -8.1945 -4.002 -4.853 -4.853 -3.7865 -3.3195 -6.736 -7.4735 -6.923 -6.087 -6.131 -7.614 -8.136001 -7.0395 -6.1055 -5.134 -6.828001 -5.1235 -4.857 -6.7615 -9.788 -9.113001 
-14.1389 -12.4354 -9.246 -6.3145 -9.721001 -9.6805 -9.783501 -8.6285 -9.892 -9.877001 -9.2935 -9.6525 -9.3395 -9.856501 -9.766001 -9.644501 -9.84 -9.835501 -9.826 -9.9145 -8.262 -9.584001 -9.8715 -8.851 -9.921 -8.735001 -8.434 -8.7145 -9.814501 -8.908 -9.995 -9.992001 -8.376 -7.630001 -4.853 -4.853 -5.8535 -6.736 -7.4735 -9.755 -7.1755 -6.756001 -9.777 -8.447001 -8.136001 -9.349501 -8.3865 -6.828001 -6.828001 -6.564 -10.007 -9.788 -9.788 
-14.6029 -14.8649 -9.281 -9.773001 -9.842 -9.8745 -9.783501 -9.901501 -9.8955 -9.903001 -9.6525 -9.7895 -9.857 -9.860001 -9.864 -9.8625 -9.864 -9.8655 -9.923501 -9.9145 -9.887 -9.929001 -9.936001 -9.921 -9.927501 -8.735001 -9.203501 -9.9375 -9.9385 -9.995 -9.995 -10.0085 -9.93 -7.630001 -4.853 -7.212501 -9.047001 -7.4735 -9.755 -9.809 -7.9935 -9.837001 -9.883 -8.447001 -9.6025 -9.900001 -8.4845 -6.828001 -8.0115 -10.064 -10.066 -9.788 
-4.6035 -8.266001 -6.9465 -8.6835 -1.934 -1.4985 -3.158 -4.9755 -3.7555 -1.4985 -5.2655 -4.5515 0 -7.945 -4.2735 -3.0695 -2.8645 -5.939 -3.3715 -12.16972 -3.9035 0 -4.4635 -6.744 -1.756 -3.5715 -4.4305 -2.4945 -3.074 -3.4975 -4.4695 -4.6035 -4.5355 
-13.8921 -15.4581 -15.4605 -10.971 -2.6125 -4.178 -7.7395 -10.0645 -4.843 -5.9285 -5.723 -4.5515 -7.945 -12.5939 -6.6625 -4.5495 -7.427 -8.278 -16.83122 -16.07322 -3.9035 -4.4635 -12.1457 -8.646001 -5.945 -6.734 -7.391 -4.4205 -7.292001 -8.2795 -8.8345 -8.5555 
-21.0842 -23.9721 -18.4612 -11.8702 -5.265 -8.3835 -13.0977 -11.152 -8.24 -6.2805 -5.723 -13.5275 -12.5939 -14.9829 -7.811 -8.854501 -9.211 -22.15672 -20.73472 -16.07322 -8.7945 -12.1457 -14.0477 -13.0124 -8.701 -10.228 -8.944 -8.742001 -12.3856 -13.2699 -12.9317 
-29.5982 -26.9728 -19.1382 -14.5793 -8.936501 -13.9979 -14.1852 -14.549 -8.516001 -6.2805 -15.6238 -18.1764 -14.9829 -16.1314 -12.3902 -11.0473 -23.24452 -26.06022 -20.73472 -20.96422 -16.7175 -14.0477 -18.4141 -15.7684 -12.3902 -11.9326 -13.7149 -14.0554 -17.376 -17.3671 
-32.5989 -27.6498 -21.8473 -18.2508 -14.6849 -15.0854 -17.5822 -14.825 -8.516001 -16.6267 -20.2727 -20.5654 -16.1314 -20.7106 -14.583 -25.08082 -27.14802 -26.06022 -25.62572 -28.88722 -18.6195 -18.4141 -21.1701 -19.4576 -14.0948 -16.7035 -19.0283 -19.0458 -21.4732 
-4.6035 -4.3625 -10.7545 -8.881001 -3.7555 -4.9105 -3.3585 -2.0935 -4.245 -4.9755 0 -1.756 -3.8935 -3.3715 -5.6755 -3.9795 0 -8.411 -9.833 0 -4.4635 -6.967 0 -1.756 -7.3165 -9.833 -2.4945 -3.135 -1.7565 -1.4985 -2.8965 -4.4695 -3.4975 -4.3625 -1.934 -4.6035 
-8.233001 -15.9574 -18.988 -12.0645 -9.754001 -7.9335 -5.1005 -6.567 -9.296 -4.9755 -1.756 -5.5145 -6.4485 -9.4195 -8.404 -3.9795 -8.411 -19.0464 -9.833 -4.4635 -10.8025 -6.967 -1.756 -9.092001 -17.8971 -12.3275 -4.575 -3.9195 -2.4195 -3.928 -6.7405 -7.0075 -6.792 -6.201 -6.647 
-20.2135 -24.1909 -23.0336 -18.2776 -12.8728 -9.818001 -9.594501 -10.5135 -9.296 -6.805 -5.5145 -7.8495 -13.3355 -12.4992 -8.404 -13.4647 -19.0464 -19.0464 -14.2965 -10.8025 -10.8025 -8.745501 -9.092001 -20.1442 -20.3916 -14.408 -5.097 -4.168 -4.976501 -8.004001 -9.366501 -8.839001 -8.25 -11.569 
-28.447 -28.2365 -29.0321 -21.3964 -14.7573 -14.6556 -13.6854 -10.5135 -11.2325 -9.56 -7.8495 -14.7405 -16.4152 -12.4992 -18.5644 -24.1001 -19.0464 -23.5099 -20.6355 -10.8025 -12.581 -16.2401 -20.1442 -22.6387 -22.4721 -14.93 -5.465 -5.909 -8.637001 -10.6085 -11.2622 -10.703 -14.2168 
-32.4926 -34.235 -32.1509 -23.2809 -19.5949 -18.7465 -13.6854 -12.45 -13.9875 -12.3408 -14.7405 -17.8202 -16.4152 -22.6596 -29.1998 -24.1001 -23.5099 -29.8489 -20.6355 -12.581 -20.0756 -27.2923 -22.6387 -24.7192 -22.9941 -15.298 -7.403 -9.186001 -11.3281 -12.5042 -13.1262 -16.6698 
-4.6035 -5.702 -6.129 -2.9965 -5.29 -1.934 -1.4985 -3.158 -4.9755 -3.8935 -5.2655 -4.5515 -2.0935 -4.245 0 -4.3915 -4.2735 0 -4.4635 -6.4805 0 -3.5715 -4.4305 -2.4945 -4.4695 -3.4975 -4.169 -1.7565 -4.6035 -3.6445 -3.0695 -2.674 -3.9955 -3.3715 -5.6755 -4.8815 0 
-10.287 -12.6118 -9.7155 -5.374001 -7.552501 -2.6125 -4.178 -7.7395 -9.390501 -8.672501 -5.723 -5.679 -6.567 -4.245 -4.3915 -6.7165 -4.2735 -4.4635 -6.964 -6.4805 -3.5715 -6.734 -7.391 -6.5845 -7.0075 -6.612 -6.0465 -6.3015 -8.7405 -6.8595 -4.343 -5.6325 -6.7795 -9.4195 -6.754001 -4.8815 
-17.1968 -16.1983 -12.637 -7.645 -8.2335 -5.265 -8.3835 -12.4237 -14.3811 -9.259001 -6.57 -7.067 -6.567 -8.7735 -6.7165 -6.7165 -7.685 -6.964 -6.964 -9.6555 -6.734 -10.228 -11.8892 -10.3415 -8.887 -8.0305 -11.6287 -10.8645 -12.4589 -7.77 -6.925 -7.5385 -10.304 -9.884501 -6.754001 
-20.7833 -19.1198 -14.908 -8.307 -11.0356 -8.936501 -13.3239 -17.4143 -14.9676 -9.651 -7.1745 -7.067 -11.6479 -9.921 -6.7165 -9.4025 -9.443001 -6.964 -9.7885 -9.8505 -10.228 -14.8778 -15.6462 -12.221 -9.728001 -14.3635 -16.1917 -14.5829 -13.3694 -10.1225 -9.223001 -10.621 -10.4445 -9.884501 
-23.7048 -21.3908 -15.57 -11.1371 -14.7071 -14.0109 -18.3145 -18.0008 -15.3596 -10.307 -7.1745 -12.5413 -12.7954 -9.921 -9.4025 -9.462501 -9.443001 -9.7885 -9.8535 -13.7951 -14.8778 -18.6348 -17.5257 -13.062 -16.601 -18.9265 -19.9101 -15.4934 -15.7219 -12.4205 -12.5219 -10.7615 -10.4445 
