-4.759 
n/a 
n/a 
n/a 
n/a 
-4.759 
n/a 
n/a 
n/a 
n/a 
-4.759 
n/a 
n/a 
n/a 
n/a 
-4.759 
n/a 
n/a 
n/a 
n/a 
-3.0835 -4.584 0 -4.1865 -3.5905 -3.9765 
-7.693501 -4.584 -4.1865 -8.2945 -8.4915 
-7.693501 -9.0625 -8.2945 -13.6697 
-12.5356 -13.7239 -13.6697 
-17.197 -19.0991 
-3.94 -3.522 0 -6.029 -1.934 -8.863001 -3.288 
-6.281 -3.522 -6.029 -7.6645 -11.8034 -12.735 
-6.281 -10.038 -7.6645 -17.9999 -15.6754 
-13.3238 -11.7695 -17.9999 -21.8719 
-15.0553 -22.1049 -21.8719 
-4.0105 -4.867 0 -5.1845 -3.8475 -2.229 -6.4085 -4.8135 
-9.665001 -4.867 -5.1845 -8.566501 -5.5625 -8.438 -8.136001 
-9.665001 -11.015 -8.566501 -10.4011 -12.5213 -10.0645 
-15.9926 -14.397 -10.4011 -17.3599 -14.1478 
-19.3746 -16.2316 -17.3599 -18.9864 
-3.0835 -3.473 -8.863001 -3.8475 -6.4085 -4.8135 
-6.9355 -13.27 -13.2945 -11.1415 -8.136001 
-17.5193 -17.7015 -20.5885 -12.869 
-21.9508 -24.9955 -22.316 
-29.2448 -26.723 
