-4.759 
n/a 
n/a 
n/a 
n/a 
-4.759 
n/a 
n/a 
n/a 
n/a 
-4.759 
n/a 
n/a 
n/a 
n/a 
-4.759 
n/a 
n/a 
n/a 
n/a 
-3.595 -4.267 -1.7695 -5.6055 -4.673 0 
-8.859001 -6.9425 -6.012001 -10.784 -4.673 
-11.8087 -11.6866 -11.5089 -10.784 
-16.5528 -17.1835 -11.5089 
-22.0497 -17.1835 
-2.925 -3.849 -1.7695 -3.613 -3.091 -3.6825 
-5.966001 -5.4415 -4.563 -6.731501 -6.0125 
-7.773 -8.313001 -6.881001 -8.883501 
-11.2147 -10.2085 -9.058001 
-13.1102 -12.3855 
-2.9805 -4.673 -5.2545 -1.7695 -3.613 -1.4985 -3.6825 0 
-6.696 -9.5625 -7.1575 -4.563 -4.5455 -4.87 -3.6825 
-11.8459 -9.828 -10.1105 -5.1665 -6.796 -4.87 
-12.1114 -12.8852 -10.491 -7.4635 -6.796 
-15.1686 -13.2657 -12.788 -7.4635 
-3.595 -4.5915 -3.613 -1.4985 -3.97 0 
-8.480501 -8.176001 -4.5455 -5.476 -3.97 
-12.6512 -9.488501 -9.2215 -5.476 
-13.9637 -14.7023 -9.2215 
-19.1775 -14.7023 
