-4.759 
n/a 
n/a 
n/a 
n/a 
-4.759 
n/a 
n/a 
n/a 
n/a 
-4.759 
n/a 
n/a 
n/a 
n/a 
-4.759 
n/a 
n/a 
n/a 
n/a 
-5.1845 -5.74 0 -4.693 -3.4425 -1.7565 -6.219 -5.447 0 -3.641 -5.4885 0 -3.502 -3.641 -4.693 -3.8195 -1.7565 -5.749 -4.066 -3.325 -5.965 -3.1715 0 
-5.7465 -5.74 -4.693 -6.604001 -4.5535 -8.448501 -7.665 -5.447 -3.641 -9.901001 -5.4885 -3.502 -5.219 -7.811 -6.1555 -4.542 -6.925001 -10.1555 -6.5505 -9.632501 -8.389 -3.1715 
-5.7465 -9.424001 -6.604001 -7.574501 -10.7495 -8.863501 -7.665 -7.5095 -9.901001 -9.901001 -7.897 -5.219 -8.292001 -9.532001 -7.107 -9.135 -11.5725 -12.7574 -13.5074 -10.752 -8.389 
-9.4385 -11.6504 -7.574501 -14.1495 -11.1645 -8.863501 -10.1749 -15.2579 -9.901001 -12.3875 -9.8015 -8.292001 -10.1635 -10.0265 -10.2535 -13.8853 -14.1744 -19.7143 -14.6269 -10.752 
-11.6619 -12.6209 -14.1495 -14.5645 -11.1645 -11.4786 -17.9233 -15.2579 -12.3875 -14.292 -14.0807 -10.1635 -10.53 -13.1396 -15.0038 -16.4872 -21.1313 -20.8338 -14.6269 
-5.1845 -5.74 0 -4.02 -5.4885 0 -4.693 -5.7725 0 -3.502 -3.641 -5.749 -3.152 -3.325 -1.4985 -3.1715 -1.7565 -5.965 0 
-5.7465 -5.74 -4.02 -10.784 -5.4885 -4.693 -8.145 -5.7725 -3.502 -5.219 -9.281 -8.863501 -6.104 -3.898 -3.994 -4.207 -7.106 -5.965 
-5.7465 -9.5915 -10.784 -10.784 -9.328501 -8.145 -8.145 -9.863001 -5.219 -10.27 -12.7037 -10.7575 -6.6895 -6.3585 -4.613 -9.014 -7.106 
-9.5935 -17.0027 -10.784 -14.624 -13.2267 -8.145 -11.9963 -12.221 -10.27 -13.6927 -14.5977 -11.343 -9.655001 -7.759 -9.454 -9.014 
-17.0125 -17.0027 -14.624 -18.5222 -13.2267 -11.9963 -14.3543 -17.272 -13.6927 -15.5867 -15.1832 -14.3085 -11.1215 -13.0088 -9.454 
-6.557 0 -4.693 -3.4425 -1.7565 -6.219 -5.447 0 -3.641 -5.4885 0 -5.2375 -4.693 -3.4425 -1.7565 -5.749 -4.066 -3.325 -5.965 -3.1715 
-6.557 -4.693 -6.604001 -4.5535 -8.448501 -7.665 -5.447 -3.641 -9.901001 -5.4885 -5.2375 -8.58 -6.604001 -4.5535 -6.925001 -10.1555 -6.5505 -9.632501 -8.389 
-10.2595 -6.604001 -7.574501 -10.7495 -8.863501 -7.665 -7.5095 -9.901001 -9.901001 -10.5865 -8.58 -9.6645 -7.574501 -9.4725 -11.5725 -12.7574 -13.5074 -10.752 
-12.1705 -7.574501 -14.1495 -11.1645 -8.863501 -10.1749 -15.2579 -9.901001 -15.077 -14.643 -9.6645 -10.073 -12.8725 -14.2546 -14.1744 -19.7143 -14.6269 
-13.141 -14.1495 -14.5645 -11.1645 -11.4786 -17.9233 -15.2579 -15.077 -19.1335 -15.7275 -10.073 -15.3598 -17.6546 -16.8565 -21.1313 -20.8338 
-6.557 0 -4.693 -3.4425 -1.7565 -5.7725 -5.447 0 -3.641 -5.4885 0 -3.502 -3.641 -4.693 -3.8195 -1.7565 -5.749 -4.066 -3.325 -1.4985 -3.4985 -1.7565 -5.965 -3.1715 
-6.557 -4.693 -6.604001 -4.5535 -6.929 -5.839 -5.447 -3.641 -9.901001 -5.4885 -3.502 -5.219 -7.811 -6.1555 -4.542 -6.925001 -10.1555 -6.5505 -3.898 -4.798 -4.622 -7.106 -8.389 
-10.2595 -6.604001 -7.574501 -9.2665 -6.9695 -5.839 -7.5095 -9.901001 -9.901001 -7.897 -5.219 -8.292001 -9.532001 -7.107 -9.135 -11.5725 -12.7574 -7.037 -5.8625 -5.425 -10.6415 -9.1485 
-12.1705 -7.574501 -10.2865 -9.291 -6.9695 -8.6745 -15.2579 -9.901001 -12.3875 -9.8015 -8.292001 -10.1635 -10.0265 -10.2535 -13.8853 -14.1744 -13.2439 -8.4865 -5.8915 -11.6869 -12.684 
-13.141 -10.2865 -10.338 -9.291 -10.111 -17.1933 -15.2579 -12.3875 -14.292 -14.0807 -10.1635 -10.53 -13.1396 -15.0038 -16.4872 -14.6609 -14.6934 -8.4975 -12.6274 -13.7294 
