-4.759 
n/a 
n/a 
n/a 
n/a 
-4.759 
n/a 
n/a 
n/a 
n/a 
-4.759 
n/a 
n/a 
n/a 
n/a 
-4.759 
n/a 
n/a 
n/a 
n/a 
-2.872 -2.985 -4.1 -3.5745 -2.6165 -3.956 -2.0935 -1.8085 -3.469 -2.95 0 
-5.521501 -7.1315 -7.4855 -4.114 -6.193 -6.03 -3.385 -4.362 -4.7535 -2.95 
-9.366501 -9.948 -7.6035 -7.364 -8.028501 -6.9535 -5.1655 -4.91 -4.7535 
-10.6745 -10.075 -11.3815 -8.8985 -9.008 -7.892 -5.2885 -4.91 
-10.7415 -14.1094 -12.916 -10.2185 -9.811001 -7.984 -5.2885 
-3.6705 0 -2.3335 -3.5745 -2.6165 -3.228 -3.469 0 
-3.6705 -2.3335 -5.4845 -4.114 -6.226501 -6.183001 -3.469 
-5.122 -5.4845 -5.701 -7.002 -6.842 -6.183001 
-8.1075 -5.701 -8.369 -7.325 -6.842 
-8.1545 -8.369 -8.710501 -7.325 
-2.872 -1.4985 -3.973 -2.186 -2.6165 -3.469 0 
-4.035 -5.697001 -6.499001 -3.5105 -5.7985 -3.469 
-8.127001 -7.731501 -7.955501 -7.125 -5.7985 
-9.3335 -9.3535 -12.0364 -7.125 
-10.5755 -13.5492 -12.0364 
-2.872 -1.4985 -4.493 -3.4405 -2.6165 -2.489 -2.0935 -3.469 -3.8405 0 
-4.035 -6.927 -8.623 -3.7415 -3.82 -5.168 -5.214 -5.8625 -3.8405 
-9.34 -10.025 -8.869 -7.954 -6.699 -7.629001 -7.8485 -5.8625 
-12.6936 -10.315 -13.4897 -10.6875 -8.437 -10.4155 -7.8485 
-12.9836 -14.9357 -16.2232 -12.4255 -11.2443 -10.4155 
