-4.759 
n/a 
n/a 
n/a 
n/a 
-4.759 
n/a 
n/a 
n/a 
n/a 
-4.759 
n/a 
n/a 
n/a 
n/a 
-4.759 
n/a 
n/a 
n/a 
n/a 
-1.4985 -4.6645 -5.1635 -2.7835 -1.4985 -3.8825 -4.481 
-5.633 -6.6615 -8.106501 -3.7575 -4.569 -8.579 
-8.1885 -9.945001 -9.393001 -7.191 -9.77 
-11.676 -11.2889 -12.8265 -12.4416 
-13.0199 -14.7224 -18.0771 
-7.1915 -5.4525 -3.8235 -3.7075 0 
-13.2606 -10.3615 -7.127 -3.7075 
-18.1696 -13.665 -7.127 
-21.4731 -13.665 
-21.4731 
-3.4775 -2.229 -5.4525 -2.186 -3.6135 -4.147 
-4.1725 -7.939 -7.3745 -5.8795 -6.747 
-10.115 -9.838 -11.5722 -8.693501 
-12.014 -14.1621 -14.3862 
-16.3381 -16.9761 
-3.1015 -1.8085 -3.4795 -5.4525 -2.186 -3.383 -4.3135 0 
-5.0505 -6.392 -9.645 -7.3745 -4.438 -8.547 -4.3135 
-6.6635 -12.8333 -11.786 -9.422501 -9.612501 -8.547 
-13.4318 -14.9743 -13.834 -14.7212 -9.612501 
-15.5728 -17.0223 -19.1327 -14.7212 
