-4.759 
n/a 
n/a 
n/a 
n/a 
-4.759 
n/a 
n/a 
n/a 
n/a 
-4.759 
n/a 
n/a 
n/a 
n/a 
-4.759 
n/a 
n/a 
n/a 
n/a 

n/a 
n/a 
n/a 
n/a 

n/a 
n/a 
n/a 
n/a 
-11.128 -3.59 -2.186 -1.4985 -4.1735 -3.59 -1.934 -1.4985 -3.875 -5.213 
-14.718 -5.4475 -3.339 -4.445 -6.9245 -5.272 -2.6125 -6.274 -8.166 
-16.5755 -6.824 -5.392 -7.5725 -7.166 -5.747 -7.214 -9.738501 
-17.952 -8.564 -7.97 -7.7505 -7.578 -9.660501 -10.426 
-19.692 -11.5394 -8.0965 -8.177 -12.6793 -12.9639 
-4.2815 -2.186 -1.4985 -4.1735 -3.59 -2.186 -3.875 -5.213 
-6.25 -3.339 -4.445 -6.9245 -5.4475 -6.597 -8.166 
-7.406501 -5.392 -7.5725 -8.888 -9.543501 -12.0528 
-8.5425 -7.97 -10.0155 -13.2214 -15.0703 
-8.930501 -10.854 -14.3489 -18.7482 
