-4.759 
n/a 
n/a 
n/a 
n/a 
-4.759 
n/a 
n/a 
n/a 
n/a 
-4.759 
n/a 
n/a 
n/a 
n/a 
-4.759 
n/a 
n/a 
n/a 
n/a 
-3.1495 -3.8445 -5.245 -4.6015 -1.4985 -3.9005 -4.385 -1.7565 -5.1875 -4.2655 0 
-6.125 -9.803 -9.186001 -5.477 -4.797 -5.9235 -4.933 -6.68 -7.408 -4.2655 
-12.4193 -13.8304 -10.299 -8.808001 -6.322001 -6.256001 -9.14 -8.396501 -7.408 
-16.4467 -14.9434 -13.63 -10.614 -6.5255 -10.6256 -10.523 -8.396501 
-17.5597 -18.2744 -15.436 -10.8175 -10.9721 -12.0086 -10.523 
-3.1495 -3.8445 -2.4945 -4.3325 -3.894 -1.7695 -3.519 -1.4985 -4.5735 -1.7565 -5.8965 0 
-6.125 -6.701 -5.995501 -6.9725 -5.0415 -4.951 -5.0755 -5.2005 -5.421 -6.8735 -5.8965 
-8.1315 -10.0745 -7.765 -7.667 -6.3285 -5.8085 -8.955501 -5.5915 -9.349 -6.8735 
-11.7606 -11.8996 -8.3795 -8.026 -7.100501 -10.203 -9.179 -9.7615 -9.349 
-13.5857 -12.5141 -8.8625 -9.222 -11.6516 -10.4255 -13.422 -9.7615 
-2.3615 -3.8445 -10.039 -6.102 -3.2825 -3.89 
-6.59 -15.0565 -16.5724 -10.468 -5.492001 
-18.7306 -21.5899 -20.9384 -12.6775 
-25.264 -25.9559 -23.1479 
-29.63 -28.1654 
-3.1495 -3.8445 -7.689 -2.4945 -4.609 -2.5045 -6.102 -3.177 -4.385 -1.7565 -4.931 -5.5365 0 
-6.125 -12.7065 -9.47 -6.211 -5.5065 -8.103001 -9.8325 -8.693001 -4.933 -6.5885 -6.8175 -5.5365 
-15.3228 -14.4875 -13.2339 -6.954 -11.8602 -12.0005 -15.9587 -9.058001 -8.934001 -8.422501 -6.8175 
-17.1038 -18.2514 -13.9769 -13.5685 -15.7577 -18.1267 -16.3237 -13.1124 -11.0834 -8.422501 
-20.8677 -18.9944 -20.5914 -17.466 -21.8839 -18.4917 -20.3781 -15.2618 -11.0834 
