-4.759 
n/a 
n/a 
n/a 
n/a 
-4.759 
n/a 
n/a 
n/a 
n/a 
-4.759 
n/a 
n/a 
n/a 
n/a 
-4.759 
n/a 
n/a 
n/a 
n/a 
-4.4675 -12.16972 -8.379001 -9.866501 
-17.06962 -20.54872 -10.907 
-25.44862 -23.07672 
-27.97662 
n/a 
-4.4675 0 -9.862 -8.379001 -8.9805 
-4.4675 -9.862 -9.8765 -9.8015 
-14.7619 -9.8765 -10.463 
-14.7764 -10.463 
-15.3629 
-4.4675 0 -9.862 -8.379001 -8.9805 
-4.4675 -9.862 -9.8765 -9.8015 
-14.7619 -9.8765 -10.463 
-14.7764 -10.463 
-15.3629 
-4.4675 0 -9.862 -8.379001 -8.8295 
-4.4675 -9.862 -9.8765 -9.816501 
-14.7619 -9.8765 -10.0615 
-14.7764 -10.0615 
-14.9614 
