-4.759 
n/a 
n/a 
n/a 
n/a 
-4.759 
n/a 
n/a 
n/a 
n/a 
-4.759 
n/a 
n/a 
n/a 
n/a 
-4.759 
n/a 
n/a 
n/a 
n/a 
-3.995 -1.7565 -4.9375 -1.756 -4.6225 
-6.804 -6.199501 -6.2105 -6.589 
-11.7898 -7.339001 -8.422 
-12.9293 -9.312 
-14.9023 
-3.995 -2.229 -5.128 -5.0975 -1.756 -4.9375 0 
-5.324 -7.278 -10.7665 -6.6085 -6.607 -4.9375 
-11.6862 -13.2285 -12.2775 -11.9781 -6.607 
-17.6367 -14.7395 -17.6471 -11.9781 
-19.1477 -20.1091 -17.6471 
-4.029 -1.7565 -4.7615 -1.756 -4.9175 
-5.1 -6.009 -5.654 -6.4 
-10.5629 -6.8055 -10.5745 
-11.3594 -11.8254 
-16.3793 
-3.995 -3.3755 -4.414 -1.7565 -4.4695 0 
-8.074 -8.783001 -6.9975 -6.786 -4.4695 
-13.6573 -11.6865 -12.411 -6.786 
-16.5608 -17.1 -12.411 
-21.9743 -17.1 
