-4.759 
n/a 
n/a 
n/a 
n/a 
-4.759 
n/a 
n/a 
n/a 
n/a 
-4.759 
n/a 
n/a 
n/a 
n/a 
-4.759 
n/a 
n/a 
n/a 
n/a 
-7.071 -4.8565 -4.7565 -12.16972 -4.147 -2.186 -1.4985 -5.757 -4.147 -1.934 -4.6445 -3.873 -3.4425 -1.7565 -3.8655 0 
-11.0525 -7.367001 -17.91862 -16.31672 -6.445001 -3.339 -6.078501 -7.401501 -6.257 -5.9485 -8.406 -6.015 -4.5535 -5.196 -3.8655 
-12.7838 -21.05712 -22.06562 -18.61472 -7.514501 -7.1785 -7.664001 -7.802501 -9.122001 -9.883 -10.674 -6.951 -8.1175 -5.196 
-26.47392 -25.20412 -24.36362 -19.68422 -9.490001 -8.288 -7.883501 -10.66 -13.2087 -11.6732 -11.61 -9.683001 -8.1175 
-30.62092 -27.50212 -25.43312 -21.65972 -10.02 -8.433001 -10.702 -14.7467 -14.9989 -12.6092 -14.342 -9.683001 
-1.934 -3.8655 -1.4985 -4.1925 -4.147 -1.7565 -6.442 -3.949 -1.7565 -6.007 -1.934 -4.653 0 
-4.9135 -5.712501 -4.4615 -6.7445 -6.1815 -8.079 -11.5712 -4.7425 -8.900001 -9.086 -7.5465 -4.653 
-6.2745 -8.847501 -7.022 -8.2345 -13.047 -13.34 -12.3647 -12.9378 -12.2374 -14.7701 -7.5465 
-9.343 -10.419 -8.3035 -15.6698 -18.308 -14.1335 -20.56 -16.2752 -17.9215 -14.7701 
-10.9755 -12.2521 -15.7568 -20.9308 -19.1015 -22.3288 -23.8974 -21.9593 -17.9215 
-1.4985 -12.16972 -4.147 -1.7565 -4.142 -7.071 -4.653 -2.186 -1.4985 -4.4665 -4.147 -1.934 -9.56 0 
-14.76202 -16.31672 -6.1815 -6.5655 -10.5015 -11.418 -6.3455 -3.339 -4.729 -8.168 -6.257 -10.5135 -9.56 
-18.90902 -18.35122 -10.2645 -13.0945 -14.583 -12.6035 -6.835001 -5.893 -8.424001 -9.006001 -15.4231 -10.5135 
-20.94352 -22.43422 -16.9807 -17.1627 -16.9803 -13.3628 -10.7798 -9.083501 -9.0535 -18.4557 -15.4231 
-25.02652 -29.15042 -20.8617 -19.56 -17.4698 -17.3076 -13.9703 -9.796 -18.5686 -18.4557 
-1.4985 -12.16972 -4.147 -2.9705 -2.186 -7.071 -5.23 -4.142 -2.186 -1.4985 -4.4665 -4.147 -1.7565 -3.8655 0 
-14.76202 -16.31672 -7.1225 -3.89 -9.6225 -11.0325 -8.0835 -6.1185 -3.339 -4.729 -8.168 -6.1815 -5.196 -3.8655 
-18.90902 -19.29222 -7.745 -11.31 -12.6305 -12.6308 -10.3105 -7.4865 -5.893 -8.424001 -9.536 -10.4945 -5.196 
-21.88452 -19.91472 -13.8225 -11.801 -13.9881 -15.1016 -11.6785 -10.151 -9.083501 -9.593 -14.1862 -10.4945 
-22.50702 -26.31522 -15.1865 -15.0991 -16.2151 -16.4696 -14.343 -13.3415 -10.4905 -14.3222 -14.1862 
