-4.759 
n/a 
n/a 
n/a 
n/a 
-4.759 
n/a 
n/a 
n/a 
n/a 
-4.759 
n/a 
n/a 
n/a 
n/a 
-4.759 
n/a 
n/a 
n/a 
n/a 
-1.934 -3.333 -1.7695 -4.7425 -2.985 -4.6335 0 -2.925 -3.251 -4.5485 -1.4985 -8.3765 -7.406 -8.911 0 
-3.9835 -4.022 -5.1745 -6.316 -6.915501 -4.6335 -2.925 -4.617 -6.649 -5.7605 -10.5975 -9.7435 -9.836 -8.911 
-4.0425 -7.625 -6.732 -8.012501 -6.915501 -7.313 -4.617 -7.837501 -7.566501 -15.1759 -11.9645 -9.855 -9.836 
-7.634 -8.9565 -8.684001 -8.012501 -8.732 -8.603001 -7.837501 -8.836 -17.1319 -16.5429 -12.076 -9.855 
-8.96 -10.634 -8.684001 -9.9665 -9.972501 -11.9867 -8.836 -18.5052 -18.4989 -16.6544 -12.076 
-8.3765 -7.406 -12.16972 -5.828 -2.0935 -3.091 -4.6335 
-9.7435 -19.99092 -17.99772 -7.955 -4.5345 -6.576 
-22.97142 -25.81892 -20.12472 -10.047 -7.8785 
-28.79942 -27.94592 -22.21672 -13.391 
-30.92642 -30.03792 -25.56072 
-1.7695 -5.0375 -3.091 -4.6335 -2.9805 -3.5185 -1.4985 -3.9515 -4.281 -8.3765 -7.406 -12.16972 
-7.035501 -6.852 -6.576 -7.0695 -7.6775 -4.9765 -5.059 -8.573501 -12.9741 -9.7435 -19.99092 
-8.8135 -8.334001 -8.272 -12.0371 -8.656 -9.1475 -9.7005 -17.6316 -14.3411 -22.97142 
-10.5147 -10.4765 -13.294 -13.0156 -13.0094 -13.8724 -18.9944 -18.9986 -27.56902 
-12.6572 -15.4985 -14.2725 -17.369 -17.7343 -23.1663 -20.3614 -32.22652 
-8.3765 -8.969001 -9.022 -2.985 -4.6335 
-10.6095 -18.2576 -12.4486 -6.915501 
-19.8981 -21.6842 -16.3791 
-23.3247 -25.6147 
-27.2552 
