-4.759 
n/a 
n/a 
n/a 
n/a 
-4.759 
n/a 
n/a 
n/a 
n/a 
-4.759 
n/a 
n/a 
n/a 
n/a 
-4.759 
n/a 
n/a 
n/a 
n/a 
-4.834 -4.6365 -4.3355 -2.186 -2.264 -2.664 -3.784 -3.8605 -3.748 -3.277 -5.1405 -3.9485 -2.356 -3.995 -4.285 -5.201 
-7.7885 -9.193001 -6.5745 -4.293 -4.4375 -4.8555 -7.704 -5.822 -5.8405 -8.469501 -9.992001 -4.311 -6.528501 -9.031501 -8.748001 
-12.8216 -11.777 -8.551001 -6.6485 -6.3655 -8.725 -9.7325 -7.4925 -9.598001 -13.7912 -10.079 -8.737 -12.0258 -13.8327 
-15.4056 -13.7535 -11.5943 -8.474001 -9.563001 -10.513 -11.4466 -11.427 -16.5845 -13.8782 -14.6306 -14.3323 -16.827 
-17.3821 -16.7968 -13.4198 -11.9757 -11.381 -12.2271 -15.3811 -18.4135 -16.6715 -18.4298 -20.2259 -19.1335 
-4.426 -1.7565 -1.4985 -3.6115 -4.7285 -4.1555 -6.335 -3.5905 -4.3355 -3.325 -3.995 -4.142 -3.784 -1.7565 -3.8605 -4.5445 -3.277 0 
-5.47 -2.4195 -4.081 -6.5495 -8.4455 -9.753 -11.38 -7.594 -7.908501 -7.940001 -8.9245 -8.661501 -5.042 -5.5915 -8.1525 -7.8535 -3.277 
-5.9535 -5.180501 -6.670501 -9.978001 -13.478 -14.5847 -15.1677 -11.8388 -13.0309 -13.0963 -13.6978 -10.1305 -7.6305 -9.589001 -9.6625 -7.8535 
-8.462501 -7.797 -10.054 -14.9889 -18.4838 -17.8718 -20.5667 -16.9612 -18.1872 -17.8696 -15.1668 -12.719 -11.9424 -11.1866 -9.6625 
-10.2375 -11.2985 -15.1013 -19.9947 -21.6433 -23.2708 -25.6891 -22.1175 -22.9605 -19.3386 -17.7553 -17.0309 -13.54 -11.1866 
-3.188 -4.0005 -3.383 -4.6365 -4.1115 -1.934 -3.436 -3.8605 -3.748 
-4.969501 -8.049 -8.122001 -8.59 -6.1155 -5.605 -8.186 -5.822 
-9.304501 -13.1296 -12.2773 -11.3894 -10.3351 -10.7175 -10.181 
-14.5881 -17.2849 -15.0767 -15.609 -15.4476 -12.7125 
-18.7434 -20.0843 -19.2963 -20.7215 -17.4426 
-1.4985 -4.6365 -4.3355 -2.264 -3.995 -2.186 -4.347 -3.8605 -3.748 -3.277 -3.5905 0 
-5.3015 -9.193001 -6.784 -4.972 -5.7465 -5.555 -6.347 -5.822 -5.8405 -4.7035 -3.5905 
-9.529501 -11.9865 -8.775001 -6.429 -8.559501 -7.7295 -7.502 -7.4925 -6.8485 -4.7035 
-12.2948 -13.9775 -10.375 -9.915001 -10.9472 -9.0985 -9.276501 -8.5585 -6.8485 
-14.2858 -15.5775 -13.861 -12.3027 -12.3162 -10.6605 -10.2755 -8.5585 
