-4.759 
n/a 
n/a 
n/a 
n/a 
-4.759 
n/a 
n/a 
n/a 
n/a 
-4.759 
n/a 
n/a 
n/a 
n/a 
-4.759 
n/a 
n/a 
n/a 
n/a 
-2.5195 -3.7075 -5.634 -4.983 -2.4945 -4.0225 -2.4265 -2.186 -9.802 -4.0215 
-6.1755 -8.717501 -6.988 -6.5395 -5.396 -6.8045 -3.292 -13.1984 -13.9511 
-10.468 -9.576501 -8.505 -8.9715 -8.152 -7.6725 -14.7764 -17.3475 
-11.4746 -11.3259 -11.256 -12.1643 -8.9355 -19.4853 -18.9255 
-13.224 -14.0769 -14.4488 -12.9478 -20.8155 -23.6344 
-1.4985 -3.845 -4.983 -2.9705 -4.066 -2.5195 -1.4985 -3.7075 -2.186 -4.77 -1.4985 -8.731 
-4.987 -8.022 -7.239 -5.984 -4.976 -3.1695 -4.6235 -5.825 -6.2235 -5.983001 -10.7495 
-8.9265 -10.1855 -10.7103 -6.671501 -5.5295 -5.905 -5.975501 -9.272 -7.2425 -15.8114 
-10.6095 -13.689 -11.3978 -7.145 -7.9895 -7.514 -9.4715 -11.0464 -17.4247 
-14.113 -14.3765 -11.8713 -9.1485 -9.805 -11.2922 -11.3815 -21.2286 
-4.983 -2.5195 -1.4985 -3.7075 -2.4945 -4.6345 -5.452 
-6.811501 -3.1695 -4.6235 -7.0085 -6.392 -8.8545 
-7.275001 -5.905 -7.291 -10.485 -10.111 
-7.778 -8.279 -10.5035 -14.204 
-9.096001 -11.6395 -14.2225 
-1.4985 -4.6125 -5.3225 -4.983 -2.5195 -1.4985 -3.7075 -4.9955 -1.4985 -4.5335 -5.1755 0 
-5.8255 -6.535501 -7.6425 -6.811501 -3.1695 -4.6235 -9.0375 -6.351 -5.9495 -6.4345 -5.1755 
-7.7945 -7.681 -8.927 -7.275001 -5.905 -9.4645 -10.0045 -10.013 -7.7695 -6.4345 
-8.641001 -8.936501 -9.073 -7.778 -10.5975 -10.1605 -13.6665 -10.0905 -7.7695 
-9.833501 -9.078 -9.1555 -12.7329 -11.2935 -13.8225 -13.744 -10.0905 
