-4.759 
n/a 
n/a 
n/a 
n/a 
-4.759 
n/a 
n/a 
n/a 
n/a 
-4.759 
n/a 
n/a 
n/a 
n/a 
-4.759 
n/a 
n/a 
n/a 
n/a 
-4.365 -3.5435 -3.8405 -4.0225 -3.4765 -7.2495 -3.6065 -2.674 -4.365 -3.9725 0 
-8.9755 -7.9315 -8.170501 -7.593 -12.244 -11.6835 -7.738 -7.5275 -8.828001 -3.9725 
-13.8615 -12.8015 -12.0468 -17.2069 -15.0324 -14.3757 -13.0523 -12.5415 -8.828001 
-18.7315 -16.6778 -21.6607 -19.8809 -19.4675 -19.7774 -18.0663 -12.5415 
-22.6078 -26.2917 -24.3347 -24.316 -24.7818 -24.7914 -18.0663 
-10.4705 -4.6825 -5.609 -2.186 -4.972 -3.321 0 -3.5905 -2.95 -10.4705 -1.756 -8.597501 -10.4705 -2.4945 -3.383 -3.6065 -2.5195 -3.345 -2.8965 
-15.3036 -10.932 -8.249001 -5.988 -8.252001 -3.321 -3.5905 -5.809 -14.3541 -10.985 -10.1635 -19.4102 -13.1156 -4.732 -5.2945 -4.897 -5.099 -4.4605 
-21.5531 -13.572 -12.3878 -9.4785 -8.252001 -7.5545 -5.809 -17.7309 -14.8686 -19.3925 -20.9762 -22.0553 -15.3531 -6.366 -6.0455 -6.722 -5.6735 
-24.1931 -17.7108 -15.8783 -9.4785 -12.8239 -10.028 -17.7309 -18.2454 -23.2761 -30.2052 -23.6213 -24.2928 -16.9871 -6.9405 -7.7535 -6.739 
-28.3319 -21.2013 -15.8783 -14.1402 -15.2974 -22.0555 -18.2454 -26.6529 -34.0888 -32.8503 -25.8588 -25.9268 -17.5616 -8.133 -7.763 
-3.929 -1.4985 -7.4885 -4.0965 -2.7415 -5.876 0 -3.0365 -3.152 -3.845 -1.7565 -4.1755 -3.458 -1.4985 -7.044 -3.8405 -7.4885 -1.756 -1.4985 -5.876 -1.7565 -7.4885 -1.7565 -1.4985 -3.882 -4.644 
-4.8985 -8.1875 -12.2122 -6.906501 -9.524501 -5.876 -3.0365 -4.453 -8.276 -4.13 -5.939001 -4.717 -4.063 -8.771001 -11.4123 -12.3314 -8.7505 -3.0405 -6.479 -7.500501 -9.320001 -9.4525 -2.4195 -5.587 -7.3525 
-11.7791 -13.3078 -15.0222 -14.0061 -9.524501 -8.516001 -4.453 -8.456 -8.536 -7.166501 -6.6355 -5.304501 -11.6203 -13.3735 -19.9032 -13.5934 -9.2915 -7.934 -7.984 -15.6968 -10.7035 -10.1055 -6.561 -8.193501 
-16.8994 -16.1178 -22.1218 -14.0061 -12.2743 -9.599501 -8.456 -8.5725 -11.6827 -7.895501 -7.301001 -13.1754 -16.2228 -21.8644 -21.1652 -14.1344 -14.4362 -9.291 -16.3033 -17.0803 -11.3565 -14.247 -9.1435 
-19.7094 -23.2174 -22.1218 -16.7559 -13.3578 -13.6301 -8.5725 -11.7326 -12.4117 -8.4835 -15.4423 -17.7779 -24.7137 -23.1264 -21.7062 -19.2791 -15.7932 -17.8249 -17.6868 -17.7333 -15.498 -16.8295 
-3.0415 -6.864 -4.0965 -2.7415 -4.877 -2.3345 -1.8085 -1.4985 -5.4975 -1.7565 -1.8085 -4.015 -3.3975 -1.4985 -7.4885 -2.5045 -1.4985 -6.4185 -3.5215 -1.756 -1.4985 -3.882 -3.5215 -5.906 -2.5195 -1.4985 -7.4885 -2.5195 -1.4985 -3.9785 -3.7515 0 
-10.5135 -8.968 -6.906501 -6.445001 -5.7435 -3.8605 -4.6845 -6.3765 -5.879001 -3.2595 -4.5105 -7.337001 -5.497001 -8.1875 -9.9065 -3.1915 -6.940001 -7.3605 -4.979 -3.0405 -5.587 -7.066 -8.946001 -6.475 -3.1695 -8.1875 -9.705 -3.1695 -4.496 -6.294 -3.7515 
-12.6175 -10.435 -10.6465 -7.107 -6.6265 -6.878 -9.767 -6.436501 -7.553501 -5.5095 -7.658 -8.968501 -12.3822 -10.204 -10.6941 -9.493 -8.0555 -8.696001 -5.996 -6.9595 -8.608 -12.9255 -9.795501 -6.9435 -10.1595 -9.948 -10.125 -6.0535 -7.3835 -6.294 
-14.0845 -14.175 -11.3085 -8.0725 -10.1855 -12.3087 -9.830501 -7.9985 -9.236501 -8.421 -9.248501 -15.8877 -14.3987 -11.1178 -16.9956 -10.704 -9.3055 -9.729501 -9.942501 -10.0505 -14.6169 -13.775 -10.3915 -14.2631 -11.92 -10.4 -13.009 -8.841001 -7.3835 
-17.8245 -14.837 -12.274 -11.6399 -15.6162 -12.3722 -11.3801 -9.797001 -10.6745 -9.922001 -16.1823 -17.9042 -15.3125 -17.4193 -18.2066 -11.954 -10.397 -13.771 -13.0335 -16.0594 -15.4664 -14.371 -17.7111 -16.0236 -12.372 -13.284 -15.7965 -8.841001 
