-4.759 
n/a 
n/a 
n/a 
n/a 
-4.759 
n/a 
n/a 
n/a 
n/a 
-4.759 
n/a 
n/a 
n/a 
n/a 
-4.759 
n/a 
n/a 
n/a 
n/a 
-3.321 -2.925 -2.911 -2.0935 -1.4985 -9.971001 -4.482 -1.7695 -2.985 -4.5865 -2.5195 -1.4985 -4.144 -4.3125 -2.925 -2.4945 -4.4165 -4.357 -1.934 -1.4985 -4.548 0 
-5.154 -6.797 -4.1005 -2.9725 -12.5633 -14.5548 -6.8785 -4.281 -7.822001 -6.407001 -3.1695 -4.8975 -8.9665 -6.337 -3.7675 -6.2945 -9.6665 -5.737 -2.6125 -5.6385 -4.548 
-9.1875 -7.054501 -5.508501 -14.3141 -17.1471 -16.9513 -9.3365 -9.677001 -9.676001 -7.044 -7.133 -9.333 -11.2986 -7.212 -7.31 -12.0933 -11.2761 -6.3385 -6.349501 -5.6385 
-9.6455 -7.936 -17.5199 -18.8979 -19.5436 -19.4093 -14.8447 -11.5896 -10.179 -11.5849 -11.8915 -11.7235 -12.1736 -10.733 -13.329 -13.7029 -11.8776 -9.0425 -6.349501 
-10.357 -20.1664 -22.1037 -21.2944 -22.0016 -24.9175 -16.7573 -12.0926 -14.7199 -16.3434 -14.282 -12.5985 -15.6946 -16.752 -14.9386 -14.3044 -14.5816 -9.0425 
-3.2615 -4.4525 -1.4985 -8.753 -2.925 -2.911 -2.0935 -4.59 -10.0865 
-5.912 -5.323501 -10.1265 -12.0356 -6.797 -4.1005 -6.831 -15.9361 
-6.5165 -14.4027 -14.5403 -15.9076 -7.054501 -7.833 -18.1811 
-15.7717 -18.8165 -18.4123 -16.1651 -9.948001 -19.4227 
-20.1855 -22.6885 -18.6698 -19.0586 -21.5377 
-3.321 -2.925 -2.4945 -4.5385 -1.4985 -4.59 -3.452 -4.862 0 -3.0365 -2.186 -2.847 -4.5725 -3.8235 -1.934 -3.6085 -2.0935 0 -9.971001 0 0 -2.0935 -2.985 -3.981 -4.5865 0 -2.5195 -2.985 -4.203 -3.881 0 
-5.154 -3.7675 -5.863501 -5.765501 -6.7325 -8.5845 -8.639 -4.862 -3.0365 -3.66 -4.1045 -6.9095 -7.072001 -5.598001 -4.739 -5.9635 -2.0935 -9.971001 -9.971001 0 -2.0935 -4.3315 -7.634 -9.093 -4.5865 -2.5195 -4.751 -7.3755 -6.4575 -3.881 
-6.267 -7.253 -7.5755 -10.181 -10.733 -14.2041 -8.639 -8.039501 -3.66 -4.256001 -7.5755 -9.428 -8.831 -7.566 -6.807 -5.9635 -13.0555 -9.971001 -9.971001 -2.0935 -4.3315 -9.304001 -12.8128 -9.093 -6.407001 -4.751 -9.114 -10.2645 -6.4575 
-10.322 -8.7735 -12.2512 -14.1815 -16.3526 -14.2041 -11.6041 -8.913501 -4.256001 -7.5885 -9.948501 -10.4685 -9.2545 -8.97 -6.807 -17.8165 -13.0555 -9.971001 -12.1663 -4.3315 -9.304001 -14.5198 -12.8128 -10.9849 -8.7705 -9.114 -12.1056 -10.2645 
-11.8193 -13.496 -16.2517 -19.8011 -16.3526 -17.1692 -12.4781 -9.679501 -7.5885 -9.950001 -10.558 -10.6625 -10.7185 -8.97 -19.0068 -17.8165 -13.0555 -12.1663 -14.4043 -9.304001 -14.5198 -14.5198 -14.7047 -13.3484 -13.3981 -12.1056 -12.1056 
-3.321 -2.925 -3.5045 -1.4985 -4.59 -4.5815 -2.0935 -2.985 -4.98 -4.5865 -2.5195 -2.985 -4.5815 -3.759 0 
-5.154 -6.8785 -4.653 -6.7325 -9.630001 -6.144 -4.3315 -7.662 -8.219 -6.407001 -4.751 -7.315001 -8.272 -3.759 
-8.790501 -7.698 -8.311001 -11.6613 -10.2665 -8.535 -10.2335 -9.493 -10.0885 -8.7705 -9.151 -11.6075 -8.272 
-9.0635 -11.5384 -13.4524 -12.2978 -12.6575 -14.764 -12.0645 -11.5609 -12.5544 -13.4351 -13.5519 -11.6075 
-13.2645 -16.6798 -14.0889 -14.6888 -18.8865 -16.595 -14.1324 -14.0268 -17.219 -17.836 -13.5519 
