-4.759 
n/a 
n/a 
n/a 
n/a 
-4.759 
n/a 
n/a 
n/a 
n/a 
-4.759 
n/a 
n/a 
n/a 
n/a 
-4.759 
n/a 
n/a 
n/a 
n/a 
-2.3615 -3.995 -2.7415 -3.8755 -3.436 -5.1075 -4.277 -3.277 -3.393 -3.2615 -2.1715 -4.277 -3.277 -3.8245 -5.164 -2.4945 -3.8755 
-5.9625 -6.3075 -5.065001 -6.609 -7.733 -6.474 -6.336 -4.243 -6.2765 -5.8 -5.3555 -6.336 -6.8655 -6.658 -6.416 -5.463 
-8.1715 -7.7645 -7.593 -12.0975 -11.5435 -8.364 -6.849 -6.641 -9.461 -9.0625 -7.981001 -10.396 -10.9102 -8.0625 -8.14 
-9.446501 -9.3095 -13.7527 -14.0422 -11.1855 -7.979001 -9.411 -9.92 -13.0313 -10.316 -12.129 -14.4407 -12.3147 -9.7225 
-11.0551 -16.522 -15.4882 -15.3012 -12.139 -10.522 -12.9378 -13.6813 -14.2848 -14.464 -16.1737 -15.8452 -13.9747 
-1.756 -3.074 -2.3615 -4.3305 -2.7415 -4.5485 -2.7455 -6.315001 -4.277 -3.277 -3.393 -1.756 -3.5445 -2.871 -4.277 -3.277 -1.934 -3.8245 -5.164 -3.9535 0 
-4.566 -5.959001 -6.0055 -7.0165 -5.5565 -7.441 -8.467 -8.915501 -6.336 -4.243 -5.1685 -5.4185 -5.4475 -6.3255 -6.336 -4.8125 -5.86 -6.658 -9.086 -3.9535 
-7.377 -10.304 -8.139 -8.935 -8.179501 -12.649 -12.3875 -10.5075 -6.849 -5.5495 -8.6 -7.4755 -10.085 -8.143001 -8.094001 -9.282001 -8.460501 -10.78 -9.086 
-11.7504 -12.4375 -10.218 -10.2865 -14.022 -14.187 -10.5135 -9.3765 -8.003 -8.975 -10.4185 -12.4114 -10.298 -9.887501 -13.0699 -12.2409 -12.6961 -10.78 
-13.8839 -14.5165 -11.7225 -15.2361 -15.0246 -14.251 -10.5005 -9.6875 -11.6131 -10.8795 -15.3544 -12.6244 -12.3317 -14.9374 -16.0288 -16.4765 -12.6961 
-2.3615 -4.3305 -5.377 -2.7455 -6.315001 -4.277 -3.277 -5.149 -3.2615 -2.871 -4.277 -3.277 -4.178 -5.377 -1.934 -3.1435 -4.1455 
-6.0055 -9.842001 -8.290001 -8.467 -8.915501 -6.336 -6.0185 -8.2005 -5.7415 -6.3255 -6.336 -8.4075 -8.488001 -6.012001 -4.335 -6.4175 
-10.4675 -12.7768 -13.935 -12.3875 -10.5075 -8.1555 -8.042001 -10.1795 -9.820001 -8.143001 -12.0989 -12.9191 -8.9595 -8.877501 -8.0485 
-13.4023 -18.6056 -14.8758 -10.5135 -10.5305 -10.543 -10.3435 -13.0345 -10.2165 -14.0377 -16.6105 -13.3906 -12.1354 -12.8708 
-19.2311 -19.3626 -14.9398 -10.8005 -12 -12.518 -13.4999 -14.7182 -16.1112 -18.5493 -17.082 -16.5665 -16.1287 
-2.3615 -4.3305 -2.8645 -5.377 -3.436 -6.315001 -4.277 -1.7565 -3.277 -3.074 0 -3.436 -2.871 -4.277 -3.277 0 -4.221 -2.186 -3.557 -1.934 -1.4985 -4.285 -4.1455 0 
-6.0055 -6.736 -7.4475 -7.982 -9.634501 -8.915501 -5.850501 -5.0515 -5.867001 -3.074 -3.436 -6.379 -6.3255 -6.336 -3.277 -4.221 -6.5045 -5.0815 -4.4175 -2.6125 -4.774 -6.3675 -4.1455 
-7.619 -11.7566 -10.3735 -15.1688 -13.214 -10.318 -8.969501 -8.2745 -5.867001 -7.001 -6.379 -10.3675 -8.143001 -6.336 -8.162001 -6.5045 -9.545501 -5.6285 -4.9675 -5.297 -6.6435 -6.3675 
-12.9974 -14.6826 -17.5603 -18.3558 -15.2335 -13.7422 -12.3223 -8.2745 -9.842001 -9.933001 -10.3675 -12.3338 -8.143001 -11.8534 -9.095501 -9.545501 -9.745001 -6.0695 -7.591001 -8.109501 -6.6435 
-15.9234 -21.8694 -20.7473 -20.2433 -18.8307 -17.454 -12.3223 -12.5551 -12.9036 -14.0013 -12.3338 -12.3338 -13.7922 -12.7869 -14.6375 -9.745001 -10.263 -8.5185 -10.5225 -8.109501 
