-4.759 
n/a 
n/a 
n/a 
n/a 
-4.759 
n/a 
n/a 
n/a 
n/a 
-4.759 
n/a 
n/a 
n/a 
n/a 
-4.759 
n/a 
n/a 
n/a 
n/a 
-2.264 -4.91 -3.531 -2.855 0 0 -4.1035 0 -2.186 -1.4985 -3.0835 -4.7725 -3.881 -2.3345 -4.3035 -4.93 
-8.619 -8.527 -5.2325 -2.855 0 -4.1035 -4.1035 -2.186 -3.339 -3.535 -7.819 -8.3475 -4.5275 -6.184 -10.012 
-12.4464 -10.375 -5.2325 -2.855 -4.1035 -4.1035 -6.7895 -3.339 -4.8925 -8.0635 -11.6744 -10.082 -8.747001 -12.6555 
-14.2944 -10.375 -5.2325 -7.314 -4.1035 -6.7895 -7.797501 -4.8925 -9.5865 -12.1373 -13.4089 -14.3015 -15.9603 
-14.2944 -10.375 -9.542001 -7.314 -6.7895 -7.797501 -9.0465 -9.5865 -13.8777 -13.8718 -17.6284 -21.5148 
-4.748 -3.531 -4.91 0 -1.4985 -3.0835 -4.3415 -2.5045 0 -4.905 0 -3.321 -3.925 -5.1675 
-6.903 -7.7515 -4.91 -1.4985 -3.535 -7.7825 -7.839001 -2.5045 -4.905 -4.905 -3.321 -7.3615 -9.478001 
-11.2751 -7.7515 -6.419001 -3.535 -8.495001 -9.8505 -7.839001 -7.299001 -4.905 -9.3505 -7.3615 -13.6613 
-11.2751 -8.903 -8.441501 -8.495001 -10.5758 -9.8505 -12.8853 -7.299001 -9.3505 -13.4338 -13.6613 
-12.4266 -10.7335 -13.5091 -10.5758 -10.5758 -14.9768 -12.8853 -12.0233 -13.4338 -19.7336 
-1.934 -4.748 -3.531 -4.91 0 -1.934 -8.392 -2.229 -3.925 -2.229 -2.9635 -3.355 -1.934 -1.4985 -4.7725 -3.098 -4.1035 0 -2.264 -2.3335 -3.193 -2.229 -3.925 -4.93 0 
-7.025 -6.903 -7.7515 -4.91 -1.934 -10.147 -11.08 -6.2905 -4.9065 -5.395 -6.7925 -4.8475 -2.6125 -5.849501 -7.797 -7.731 -4.1035 -2.264 -4.6785 -5.214 -5.1755 -6.2905 -9.618501 -4.8175 
-9.863 -11.2751 -7.7515 -6.9615 -10.147 -12.835 -15.1415 -6.9935 -7.5435 -8.227 -9.650001 -5.376 -6.9385 -8.841001 -13.1514 -7.731 -6.702001 -4.6785 -6.0465 -6.8555 -9.5255 -11.6165 -9.099501 
-14.3111 -11.2751 -9.135 -15.3547 -12.835 -16.8965 -15.8445 -10.5135 -10.9985 -12.1997 -10.577 -10.5635 -10.553 -14.6008 -13.1514 -10.66 -9.729 -6.0465 -7.995501 -11.5333 -15.5343 -11.7351 
-14.3111 -12.6586 -17.6412 -18.0427 -16.8965 -17.5995 -19.3645 -13.9685 -14.9712 -13.1267 -15.7645 -14.178 -16.3128 -14.6008 -16.0804 -13.687 -11.2074 -7.995501 -13.0717 -17.5421 -15.5343 
-2.264 -1.4985 -3.193 -10.261 -3.777 -4.91 0 -1.4985 -4.898 -2.7415 0 -1.4985 -4.1035 0 -2.3345 -1.4985 -3.925 -4.93 
-2.9195 -4.136 -14.472 -14.1408 -7.871 -4.91 -1.4985 -5.9115 -7.4425 -2.7415 -1.4985 -5.0955 -4.1035 -2.3345 -3.233 -4.6825 -9.618501 
-5.3425 -15.907 -18.3518 -18.2348 -7.871 -6.419001 -5.9115 -7.7565 -7.4425 -4.063 -5.0955 -5.0955 -6.013 -3.233 -6.618001 -10.4435 
-17.9809 -19.7868 -22.4458 -18.2348 -10.0885 -10.564 -7.7565 -7.7565 -8.7875 -7.208 -5.0955 -7.4845 -7.2015 -6.618001 -12.1045 
-21.8607 -23.8808 -22.4458 -20.4523 -14.2335 -13.0446 -7.7565 -9.112 -11.9521 -7.208 -7.4845 -8.210501 -8.418501 -12.1045 
