-4.759 
n/a 
n/a 
n/a 
n/a 
-4.759 
n/a 
n/a 
n/a 
n/a 
-4.759 
n/a 
n/a 
n/a 
n/a 
-4.759 
n/a 
n/a 
n/a 
n/a 
-2.8705 -3.7075 -8.984 -4.919 0 -3.4635 -1.7695 -12.16972 -4.919 -2.3615 -3.2495 -3.949 -2.4945 -6.486 -3.277 
-6.6715 -13.9467 -14.3062 -4.919 -3.4635 -4.2045 -14.92142 -17.08872 -7.6515 -5.9175 -7.812 -6.8935 -9.26 -8.3455 
-17.5895 -19.2689 -14.3062 -8.9855 -4.2045 -17.67042 -19.84042 -19.82122 -11.4421 -11.3546 -11.2207 -12.986 -11.587 
-22.9117 -19.2689 -18.3727 -10.7575 -17.67042 -22.58942 -22.57292 -23.61182 -16.8792 -14.7633 -17.3132 -15.8774 
-22.9117 -23.3354 -20.1447 -24.22342 -22.58942 -25.32192 -26.36352 -29.04892 -20.2879 -20.8558 -20.2046 
-2.3615 -4.201 -3.458 -1.4985 -3.7075 -1.756 -6.032 -4.919 -2.8645 -6.486 -3.7805 -3.277 
-6.607 -5.576 -4.063 -4.6235 -5.318 -8.09 -11.705 -7.935 -9.4585 -9.787001 -6.184 
-8.639 -5.9975 -7.3255 -5.845 -12.7406 -14.0008 -14.721 -13.9394 -11.8835 -9.139 
-9.165501 -8.433001 -7.477 -13.4062 -18.6514 -17.0168 -20.7254 -17.4368 -12.2509 
-11.6026 -8.457001 -16.039 -19.317 -21.6674 -23.0212 -24.2228 -17.4738 
-1.4985 -4.201 -3.458 -1.4985 -5.3675 -4.455 0 -2.9705 -4.0935 -1.4985 -3.7075 0 -1.756 -1.4985 -4.5145 -5.9195 -4.455 -2.186 -4.347 -6.486 -3.7805 -3.277 0 
-5.187 -5.576 -4.063 -6.5115 -8.1035 -4.455 -2.9705 -5.492001 -4.916 -4.6235 -3.7075 -1.756 -3.0405 -5.779 -9.5395 -8.629001 -6.3855 -5.555 -9.186 -9.787001 -6.184 -3.277 
-5.877 -5.9975 -9.4925 -8.507 -8.1035 -7.064001 -5.492001 -6.133501 -8.696501 -4.6235 -5.318 -3.0405 -6.9795 -9.5895 -13.091 -9.8675 -9.368501 -9.064 -10.9745 -9.139 -6.184 
-6.216001 -11.9246 -10.662 -8.507 -10.1075 -9.767501 -6.133501 -9.882501 -8.696501 -5.845 -6.396501 -6.9795 -10.9002 -13.3084 -14.3295 -13.0405 -13.0752 -12.6367 -11.2607 -9.009 
-12.2015 -13.0941 -10.662 -10.396 -13.1186 -10.2415 -9.882501 -9.882501 -9.9455 -6.502501 -10.025 -10.9002 -14.6191 -14.5469 -17.5025 -16.7472 -16.6238 -12.8061 -11.2607 
-4.201 -3.458 -7.0805 -1.756 -4.981 -7.337501 -1.7565 -3.7075 -2.186 -4.3435 -5.5565 -3.7805 -3.277 
-5.576 -9.995501 -8.1145 -6.46 -14.2069 -8.897 -5.7275 -5.825 -5.791 -9.093 -9.335001 -6.184 
-12.8291 -10.0595 -13.2939 -16.3245 -15.7664 -13.3004 -8.22 -8.942 -10.9539 -13.0935 -9.410501 
-12.8931 -15.6551 -23.1584 -17.884 -20.1698 -15.7929 -11.5158 -14.3243 -14.9544 -13.169 
-18.4887 -25.5196 -24.7179 -22.2874 -22.6623 -19.0887 -16.8981 -18.3248 -15.0299 
