-4.759 
n/a 
n/a 
n/a 
n/a 
-4.759 
n/a 
n/a 
n/a 
n/a 
-4.759 
n/a 
n/a 
n/a 
n/a 
-4.759 
n/a 
n/a 
n/a 
n/a 
-3.5715 -2.7625 0 -4.103 -2.9705 -2.7415 -4.794 -2.5195 -3.502 -10.4135 0 -3.433 -1.7565 -2.9705 -2.925 -10.827 -2.645 -4.299 
-5.647 -2.7625 -4.103 -7.301001 -4.512 -6.637 -5.6105 -5.674 -15.4141 -10.4135 -3.433 -4.1845 -4.3815 -4.773 -15.7542 -13.472 -7.7135 
-5.647 -7.037001 -7.301001 -8.486501 -8.224001 -6.9675 -9.2355 -18.2923 -15.4141 -13.8465 -4.1845 -7.5325 -6.335501 -17.9942 -18.3992 -18.5405 
-10.1805 -10.85 -8.486501 -12.3257 -8.499001 -10.1465 -21.9684 -18.2923 -18.8471 -14.598 -7.5325 -8.82 -19.9505 -20.6392 -23.4677 
-13.9935 -12.0355 -12.3257 -12.6007 -11.893 -22.9732 -21.9684 -21.7253 -19.5986 -17.946 -8.82 -22.444 -22.5955 -25.7077 
-3.5715 -4.66 -5.489 -4.348 -4.4275 -1.4985 -4.7925 -4.142 -12.16972 -1.756 -3.9535 -9.335001 -4.299 0 
-6.458 -10.6605 -7.7685 -7.8285 -5.274 -6.7465 -9.074 -17.93712 -13.92572 -5.4855 -10.548 -9.0635 -4.299 
-13.2081 -12.94 -10.107 -8.247001 -11.1196 -9.745001 -23.25512 -19.69312 -17.65522 -10.8345 -12.4805 -8.960001 
-15.4876 -15.2785 -10.539 -14.566 -14.1181 -24.23352 -25.01112 -23.42262 -23.49202 -14.3409 -12.6701 
-17.8261 -15.7105 -17.2006 -17.5645 -28.60662 -25.98952 -28.74062 -29.25942 -26.51062 -14.3409 
-3.5715 -6.8655 -3.9535 -3.3365 -5.9985 -4.299 -2.264 -3.502 -12.16972 
-9.9215 -11.193 -7.7535 -6.131001 -8.931001 -5.322001 -5.967 -17.17032 
-14.9515 -16.103 -9.651501 -8.960001 -9.298 -7.957001 -20.14792 
-19.2465 -18.001 -12.6701 -9.3345 -12.0044 -23.44952 
-21.1445 -21.0196 -13.0446 -12.0453 -27.49692 
-3.5715 -2.7625 -4.103 -4.348 -4.101 -3.222 -1.4985 -4.7925 -3.502 -6.266 -1.756 -3.9535 -3.3365 -4.299 
-5.647 -7.037001 -9.476 -8.1335 -5.433001 -3.7835 -6.7465 -8.43 -6.377501 -7.151 -5.4855 -7.7535 -7.6055 
-10.1805 -13.025 -13.3387 -8.8855 -5.955 -9.1905 -9.646 -11.9711 -7.196 -10.674 -8.936501 -12.6303 
-16.1685 -16.8877 -14.0907 -9.809 -11.7904 -12.2022 -13.4939 -12.7896 -10.749 -14.125 -14.3011 
-20.0312 -17.6397 -15.0142 -15.6444 -14.8021 -16.0501 -14.3124 -16.3426 -14.2 -19.4896 
