-4.759 
n/a 
n/a 
n/a 
n/a 
-4.759 
n/a 
n/a 
n/a 
n/a 
-4.759 
n/a 
n/a 
n/a 
n/a 
-4.759 
n/a 
n/a 
n/a 
n/a 
-3.5485 -3.4005 -1.756 -3.972 -2.674 -4.157 -3.3715 -3.5215 
-7.1775 -4.503 -5.2755 -7.2675 -5.625 -7.7675 -5.047 
-8.3085 -6.45 -8.2445 -9.235001 -8.6405 -8.5775 
-9.964001 -9.243 -9.7515 -12.3075 -9.252501 
-12.757 -10.8218 -12.8492 -12.9195 
-3.4005 -1.756 -3.972 -2.0935 -3.5485 -2.8645 -4.157 -3.383 -3.4915 0 
-4.503 -5.2755 -6.0065 -4.787 -6.6845 -5.4365 -7.756001 -4.8075 -3.4915 
-6.45 -7.2495 -7.624001 -7.583 -8.147 -8.4335 -8.6425 -4.8075 
-8.000501 -8.6575 -9.884501 -9.281501 -11.3924 -9.3995 -8.6425 
-8.947001 -11.2872 -11.6328 -12.6075 -12.3584 -9.3995 
-2.0935 -6.231 -3.4005 0 -3.972 -3.958 -4.052 0 
-8.426001 -10.533 -3.4005 -3.972 -5.128 -7.9325 -4.052 
-12.917 -10.533 -5.92 -5.128 -8.756001 -7.9325 
-12.917 -13.0525 -7.752 -8.756001 -8.756001 
-15.4365 -14.8845 -12.1274 -8.756001 
-3.5485 -3.4005 0 -3.972 -2.186 -4.157 -3.4915 0 
-7.1775 -3.4005 -3.972 -6.1245 -5.8055 -7.779 -3.4915 
-7.1775 -5.92 -6.1245 -9.3675 -9.4515 -7.779 
-9.3435 -9.594 -9.3675 -13.0577 -9.4515 
-13.6389 -12.9194 -13.0577 -13.0577 
