-4.759 
n/a 
n/a 
n/a 
n/a 
-4.759 
n/a 
n/a 
n/a 
n/a 
-4.759 
n/a 
n/a 
n/a 
n/a 
-4.759 
n/a 
n/a 
n/a 
n/a 
-3.1435 -4.9185 -1.4985 -4.855 -2.95 -1.756 -4.2065 -1.4985 -4.2635 -3.331 
-9.6425 -5.3875 -6.6995 -7.964 -4.287 -5.345 -4.732 -5.8715 -7.360001 
-10.121 -10.66 -8.807 -9.1615 -7.309 -5.915 -10.001 -8.6405 
-15.3935 -12.7675 -10.071 -12.2195 -7.8765 -11.4798 -12.8506 
-17.501 -14.0315 -13.2124 -12.787 -13.9531 -14.3294 
-1.7695 -3.394 -1.4985 -2.9775 -4.9185 -1.4985 -2.95 -1.7565 -2.3335 -2.9645 
-4.59 -4.542 -4.4135 -9.044001 -5.3875 -3.9285 -4.3785 -4.314 -5.259501 
-5.2895 -8.138 -10.1545 -9.634001 -7.0105 -4.676 -7.249 -7.712 
-8.562501 -14.2104 -10.6665 -11.3912 -8.7845 -7.384 -9.986 
-14.7247 -14.7224 -12.4237 -13.1652 -11.5009 -10.0375 
-2.3615 -2.9775 -3.394 -2.95 -4.2065 -1.756 -3.1335 -4.1085 -1.7695 -4.2065 -2.0935 -3.0785 0 
-3.809 -6.0705 -6.0175 -7.206 -6.4955 -4.8505 -7.865 -4.428 -4.563 -7.541 -4.976 -3.0785 
-6.7705 -8.4315 -11.3335 -9.9325 -10.703 -10.2645 -8.571501 -7.487 -8.4005 -11.0325 -4.976 
-10.0785 -14.2271 -14.06 -14.14 -16.117 -10.7265 -11.6841 -11.7355 -12.2784 -11.0325 
-15.8741 -16.9536 -18.2675 -19.554 -16.579 -13.8391 -15.9326 -15.6134 -12.2784 
-2.3615 -2.9775 -4.745 -2.95 -4.3955 -1.756 -3.16 -3.09 -3.989 -4.3905 -1.7695 -4.1895 0 
-3.809 -8.314 -8.626 -6.089 -6.0135 -4.9715 -4.8555 -6.569 -8.882 -5.4005 -6.989501 -4.1895 
-8.944 -12.4768 -12.2614 -7.568 -10.66 -5.971 -9.3755 -12.1766 -10.523 -11.3425 -6.989501 
-13.7418 -16.1122 -13.7404 -12.6691 -11.6595 -10.0635 -15.2377 -13.8176 -16.465 -11.3425 
-17.3772 -17.5912 -18.8415 -13.6686 -15.752 -16.3899 -16.8787 -19.7596 -16.465 
