-4.759 
n/a 
n/a 
n/a 
n/a 
-4.759 
n/a 
n/a 
n/a 
n/a 
-4.759 
n/a 
n/a 
n/a 
n/a 
-4.759 
n/a 
n/a 
n/a 
n/a 
-4.9405 -1.7565 -5.59 -1.756 -5.7985 -3.849 -2.5045 -7.5955 
-6.343 -6.759501 -6.6345 -7.825 -10.181 -6.305 -10.5235 
-10.411 -7.423501 -13.5845 -12.4957 -12.637 -14.4276 
-11.075 -14.8235 -18.2552 -14.9517 -20.7596 
-18.475 -19.4942 -20.7112 -23.0743 
-4.5735 -4.64 -1.7565 -3.875 -6.288 -2.4945 -3.849 -7.125 -3.147 0 
-9.5775 -5.8675 -5.1745 -10.2285 -9.7095 -5.410501 -11.046 -10.87 -3.147 
-10.3905 -8.838501 -10.749 -14.333 -12.7797 -12.9011 -14.791 -10.87 
-13.6131 -14.5882 -14.9683 -17.4032 -20.2703 -16.6461 -14.791 
-19.3628 -18.8075 -18.0385 -24.8938 -24.0153 -16.6461 
-1.4985 -4.9405 -1.7565 -6.394001 -1.756 -5.7655 -5.5455 -5.115 -4.8775 -3.9205 -2.5045 -9.993501 0 
-6.182 -6.343 -8.5825 -7.521501 -7.127501 -10.7495 -7.788 -11.0243 -8.772 -4.449 -13.4154 -9.993501 
-6.9005 -13.6652 -9.8465 -13.4148 -12.3073 -12.992 -13.9525 -14.9188 -9.360001 -15.0907 -13.4154 
-14.3391 -14.9292 -15.7398 -18.5946 -14.5498 -19.1565 -17.847 -15.5068 -20.1629 -15.0907 
-15.6031 -20.8225 -20.9196 -20.8371 -20.7143 -23.051 -18.435 -26.3097 -20.1629 
-3.5905 -3.7515 -3.1385 -2.356 -4.5085 -1.7565 -5.59 -2.4945 -3.849 -2.5045 -8.891001 0 
-5.483 -6.8975 -4.608 -6.700001 -7.855 -6.759501 -6.902 -5.410501 -6.305 -12.3129 -8.891001 
-8.1895 -7.9895 -10.5975 -10.3045 -13.0488 -8.3485 -10.155 -7.648001 -16.217 -12.3129 
-9.872001 -14.5364 -14.202 -15.4983 -14.6378 -11.8197 -12.5051 -17.5912 -16.217 
-16.3687 -18.1409 -19.3958 -17.0873 -18.109 -14.1698 -22.4483 -17.5912 
