-4.759 
n/a 
n/a 
n/a 
n/a 
-4.759 
n/a 
n/a 
n/a 
n/a 
-4.759 
n/a 
n/a 
n/a 
n/a 
-4.759 
n/a 
n/a 
n/a 
n/a 
-7.044 -4.245 0 -1.7695 -3.7905 -4.5865 -1.7695 -3.0785 -2.3615 -3.6385 -10.2885 -6.1285 0 
-11.8168 -4.245 -1.7695 -4.482 -10.082 -6.653 -3.9555 -5.7485 -5.5465 -14.8118 -10.66 -6.1285 
-11.8168 -6.306001 -4.482 -10.9063 -12.1485 -8.911 -6.648 -8.1905 -17.419 -15.1833 -10.66 
-13.8778 -9.104 -10.9063 -12.9728 -14.4065 -11.8471 -8.485001 -20.27 -17.7905 -15.1833 
-16.6758 -15.7441 -12.9728 -15.2308 -17.3426 -13.6841 -20.7689 -20.6415 -17.7905 
-4.5735 -4.1455 -2.674 -3.793 -2.3345 -1.4985 -4.2685 -1.7565 -12.16972 
-8.227 -6.6055 -6.2535 -4.6685 -3.233 -5.519501 -5.454 -14.87542 
-10.5975 -10.793 -8.893001 -5.283 -7.0995 -5.7165 -19.16132 
-14.785 -13.4325 -9.7535 -10.647 -7.149 -19.52222 
-17.4245 -14.293 -15.2803 -10.669 -21.19892 
-10.2885 -6.1285 0 -3.433 -1.7565 -2.985 -4.2685 -10.0655 -4.245 -3.7555 -4.467 
-10.66 -6.1285 -3.433 -4.1845 -3.9355 -5.576 -15.5638 -14.3859 -8.923 -8.211 
-10.66 -10.6605 -4.1845 -5.4825 -6.7665 -17.1669 -19.8842 -19.0639 -13.7103 
-15.192 -11.412 -5.4825 -8.198501 -18.229 -21.4873 -24.5622 -23.8512 
-15.9435 -12.71 -8.198501 -19.8446 -22.5494 -26.1653 -29.3495 
-20.95072 0 -2.4945 -3.383 -3.699 -4.5355 -1.934 -5.1845 -4.245 0 
-22.06012 -2.4945 -4.732 -5.014 -7.916 -6.241 -6.564 -7.991 -4.245 
-25.00122 -4.732 -6.204 -10.199 -8.9025 -10.204 -9.073501 -7.991 
-27.23872 -6.204 -11.9008 -11.1855 -13.0841 -12.7135 -9.073501 
-28.71072 -11.9008 -12.8873 -15.3671 -15.5936 -12.7135 
