-4.759 
n/a 
n/a 
n/a 
n/a 
-4.759 
n/a 
n/a 
n/a 
n/a 
-4.759 
n/a 
n/a 
n/a 
n/a 
-4.759 
n/a 
n/a 
n/a 
n/a 
-3.6085 -4.426 -1.7565 -6.0755 -5.9885 0 -3.6645 -3.519 
-5.896501 -5.47 -7.89 -6.37 -5.9885 -3.6645 -6.497001 
-6.574 -10.403 -8.185 -6.37 -9.292 -6.497001 
-10.6095 -10.4465 -8.185 -9.816501 -12.2439 
-10.654 -10.4465 -11.9719 -12.7684 
-3.6085 -4.426 -2.264 -6.0755 -5.9885 0 -3.6645 -3.3885 
-5.896501 -6.951 -8.7495 -6.37 -5.9885 -3.6645 -5.2445 
-8.1435 -13.9717 -9.021501 -6.37 -9.292 -5.2445 
-15.4874 -14.2437 -9.021501 -9.816501 -10.648 
-15.7594 -14.2437 -12.7006 -11.1725 
-3.6085 -4.426 -2.0935 -6.0755 -9.5515 0 -3.6645 -3.866 
-5.896501 -6.281 -8.477501 -16.4514 -9.5515 -3.6645 -5.212 
-7.48 -13.1772 -19.0088 -16.4514 -13.5166 -5.212 
-14.9562 -23.7085 -19.0088 -20.4165 -15.0641 
-25.4875 -23.7085 -22.9739 -21.964 
-6.0755 -5.9885 -3.6085 -4.426 0 -3.6645 -3.866 
-6.37 -9.554001 -5.896501 -4.426 -3.6645 -5.212 
-10.5309 -10.073 -5.896501 -7.6645 -5.212 
-11.0499 -10.073 -8.978001 -9.504001 
-11.0499 -13.2869 -10.734 
