-4.759 
n/a 
n/a 
n/a 
n/a 
-4.759 
n/a 
n/a 
n/a 
n/a 
-4.759 
n/a 
n/a 
n/a 
n/a 
-4.759 
n/a 
n/a 
n/a 
n/a 
-5.1845 -5.003 -7.383 -4.931 -2.186 -1.8085 -4.076 -3.89 -1.7695 -4.4155 0 
-9.404501 -13.625 -13.0562 -6.865 -3.164 -4.7005 -7.4985 -5.015 -7.696001 -4.4155 
-18.0833 -19.2982 -14.9902 -8.1105 -5.804 -8.554001 -8.5175 -12.0357 -7.696001 
-23.7565 -21.2322 -16.2357 -10.5635 -9.225 -9.1625 -15.7888 -12.0357 
-25.6905 -22.4777 -18.6887 -13.9845 -10.061 -16.6858 -15.7888 
-5.1845 -5.003 -3.7855 -2.645 -4.4525 -1.7695 -6.262 -3.8275 
-9.404501 -9.054501 -6.4005 -6.8 -5.610001 -8.627501 -10.0965 
-13.5128 -11.9823 -8.356001 -7.4405 -13.02 -12.7024 
-16.4406 -13.9378 -9.437 -14.9525 -17.0949 
-18.3961 -15.0188 -16.9914 -19.0274 
-1.4985 -4.401 -1.7565 -5.1845 -6.844 -2.186 -5.091 0 
-5.646501 -5.5075 -6.580501 -6.9655 -8.728001 -6.483001 -5.091 
-5.8205 -10.4115 -7.1625 -8.945001 -13.2496 -6.483001 
-10.7583 -10.9935 -9.2805 -13.4484 -13.2496 
-11.3403 -13.1115 -13.7411 -13.4484 
-4.667 -1.7565 -5.1845 -5.003 -1.934 -1.4985 -4.319 -2.0935 -8.628 -2.186 -7.885 0 
-5.531 -6.580501 -9.404501 -6.224 -2.6125 -5.231501 -5.385 -10.3165 -10.2815 -9.222 -7.885 
-10.575 -10.434 -10.7035 -6.8325 -5.87 -6.1175 -14.6592 -11.97 -17.3175 -9.222 
-14.4285 -11.733 -11.312 -10.0345 -6.9535 -15.7911 -16.3127 -19.006 -17.3175 
-15.7275 -12.3415 -14.514 -11.4878 -16.6977 -17.4446 -23.3487 -19.006 
