-4.759 
n/a 
n/a 
n/a 
n/a 
-4.759 
n/a 
n/a 
n/a 
n/a 
-4.759 
n/a 
n/a 
n/a 
n/a 
-4.759 
n/a 
n/a 
n/a 
n/a 
-1.934 -3.691 0 -1.4985 -3.676 -2.742 -2.489 -1.4985 -3.0835 -5.037 -1.934 -4.3845 0 -4.375 
-4.8225 -3.691 -1.4985 -6.125 -6.222 -3.301 -3.9675 -3.535 -8.1735 -5.1315 -6.4505 -4.3845 -4.375 
-4.8225 -5.5505 -6.125 -9.4125 -6.929 -4.8715 -4.583 -10.4675 -8.2405 -10.1 -6.4505 -6.1035 
-6.174 -9.989 -9.4125 -10.177 -8.2085 -5.904 -12.6061 -10.5675 -13.3934 -10.1 -8.3865 
-10.8153 -13.6341 -10.177 -11.4565 -9.1685 -13.9145 -12.7061 -15.9564 -13.3934 -12.036 
-3.676 -3.429 -1.4985 -3.699 -3.9825 -2.0935 -3.691 -4.375 -1.756 -4.3845 
-7.37 -4.4635 -5.264 -5.406 -5.5805 -5.940001 -8.144 -5.82 -5.699 
-8.6245 -8.397 -6.385 -6.897 -8.7725 -11.0018 -9.296 -6.0405 
-12.749 -10.2595 -8.7945 -10.7025 -14.0955 -12.1538 -9.351001 
-14.6115 -12.6916 -12.59 -16.0255 -15.2475 -12.2088 
-3.676 -2.8645 -1.4985 -3.0835 -3.5015 -1.934 -4.2085 -4.3845 -1.756 -4.375 
-5.929501 -4.3545 -3.535 -5.07 -4.704 -5.906 -8.071001 -5.9675 -5.9465 
-7.446001 -7.0845 -5.213 -6.239501 -8.440001 -9.801001 -9.432001 -6.3575 
-10.2035 -9.197001 -6.8205 -10.66 -12.7816 -11.162 -9.929501 
-12.451 -9.587501 -11.495 -15.0016 -14.1426 -11.6595 
-3.676 -2.674 -3.0835 -4.2315 -1.934 -4.3845 -1.756 -4.375 -2.356 -3.676 0 
-6.567 -6.407001 -7.1075 -6.097 -6.4505 -5.9675 -5.9465 -7.1795 -6.3015 -3.676 
-10.5806 -10.275 -8.191 -10.7495 -7.9595 -6.3575 -8.8125 -11.6132 -6.3015 
-14.4486 -11.3585 -13.0895 -12.2585 -8.474501 -9.085 -13.5018 -11.6132 
-15.5321 -16.257 -14.5985 -12.7735 -10.4265 -13.9023 -13.5018 
