-4.759 
n/a 
n/a 
n/a 
n/a 
-4.759 
n/a 
n/a 
n/a 
n/a 
-4.759 
n/a 
n/a 
n/a 
n/a 
-4.759 
n/a 
n/a 
n/a 
n/a 
-2.925 -5.0545 -3.277 -1.7695 -4.315 0 -1.934 -4.889 -2.925 -4.349 -1.7695 -4.037 -3.8225 -2.3335 -4.174 -3.5485 -3.401 -1.7695 -4.037 -1.934 -5.011 -3.8275 -3.6515 -4.434 -2.356 -4.821 0 
-6.9935 -7.11 -4.261 -6.7535 -4.315 -1.934 -6.253 -8.0915 -6.3885 -5.4875 -6.710501 -8.415001 -5.6765 -5.43 -7.4805 -7.5975 -4.275 -4.8205 -5.223001 -6.2645 -9.207001 -8.4895 -8.391001 -5.9525 -7.561501 -4.821 
-8.943001 -7.858 -9.463 -6.7535 -6.3645 -6.253 -8.452001 -11.7874 -8.324 -10.9091 -11.8757 -9.844001 -7.9095 -8.5085 -10.3475 -8.7725 -6.0305 -6.055 -10.389 -10.8275 -14.2192 -13.598 -9.606501 -11.6764 -7.561501 
-10.041 -13.3518 -9.463 -8.788501 -10.7565 -8.452001 -12.1693 -13.7229 -13.9496 -16.0743 -13.3047 -12.291 -10.688 -11.4973 -10.4295 -9.215501 -7.03 -10.749 -14.952 -15.8397 -19.3277 -14.8135 -15.4244 -11.6764 
-15.57 -13.3518 -11.7242 -13.3035 -12.9555 -12.1693 -14.1048 -19.3485 -19.1148 -17.5033 -15.7517 -15.0695 -13.6768 -11.5793 -10.509 -10.5985 -11.9886 -15.312 -19.9642 -20.9482 -20.5432 -20.6314 -15.4244 
-1.4985 -3.59 -4.416 -1.7695 -4.2215 -2.264 -3.1435 -3.5205 -4.0175 0 -2.9705 -4.6185 -1.4985 -3.59 -1.7695 -4.008 -6.2415 -1.4985 -3.158 -4.889 0 -2.5045 -3.543 -1.4985 -4.812 -1.7565 -5.5 -4.4485 -1.7695 -1.4985 -3.4225 -3.468 -4.579 0 -4.8275 -6.0705 -3.9955 -1.4985 -3.401 -1.7695 -4.037 -1.4985 -5.78 -6.043 -2.7415 -1.8085 -2.95 -1.7565 -4.6555 -1.756 -4.747 -4.0555 -1.7695 -2.664 -3.498 -2.3345 -1.4985 -3.158 -5.011 -3.034 -1.4985 -3.9965 -3.6515 -4.5595 -4.4825 -2.9705 -4.172 -1.7695 -1.4985 -3.4155 -4.602 0 
-4.268 -7.4305 -4.687 -5.215 -5.714001 -4.6705 -4.573 -6.849 -4.0175 -2.9705 -6.974501 -6.0975 -4.268 -5.3875 -4.6125 -8.879001 -6.152501 -4.178 -7.4755 -4.889 -2.5045 -5.323 -5.62 -5.52 -5.448 -6.929 -7.541 -5.4235 -2.7955 -3.9655 -3.628 -6.344501 -4.579 -4.8275 -8.317 -9.992001 -5.0175 -3.9525 -4.275 -4.8205 -5.8825 -6.516001 -7.0305 -8.148001 -3.891 -4.4675 -4.3785 -5.821001 -5.774 -6.443 -9.578001 -4.7475 -4.185 -5.1155 -6.239 -3.233 -4.178 -7.767 -7.528501 -3.947 -4.79 -4.6495 -7.524 -7.4795 -7.3965 -5.886001 -4.8625 -2.7955 -4.4155 -5.7725 -4.602 
-7.642 -7.522 -8.163 -6.535501 -8.394001 -5.502 -7.6645 -6.849 -6.469501 -6.974501 -7.584001 -7.854001 -5.783 -8.416 -9.029 -8.963501 -8.514501 -8.308001 -7.4755 -7.56 -5.323 -5.8685 -9.983001 -5.742 -11.6105 -10.199 -8.569501 -5.788 -5.2435 -4.053 -6.349 -6.344501 -10.5865 -8.317 -12.5023 -11.014 -7.2515 -4.539001 -6.0305 -6.549 -10.564 -7.186501 -9.215 -9.1685 -6.1045 -5.5635 -9.503 -6.577001 -9.213501 -10.66 -10.636 -6.349 -5.6315 -7.466001 -7.2495 -6.0985 -8.403001 -9.933001 -7.9525 -7.477 -5.3105 -7.6225 -10.223 -10.6979 -9.5435 -6.027501 -5.4245 -5.849 -5.9065 -5.7725 
-7.7215 -11.279 -9.612 -8.705501 -8.771501 -9.387001 -7.6645 -9.268001 -9.6675 -7.584001 -9.882501 -8.778001 -8.731001 -13.0384 -9.429501 -12.28 -12.482 -8.308001 -10.243 -10.66 -5.8685 -10.2865 -10.2965 -12.2115 -14.8805 -10.725 -8.608001 -7.077 -5.358 -6.4285 -6.349 -12.7418 -14.076 -12.5023 -13.5243 -13.248 -7.297501 -6.207001 -7.417 -11.4977 -11.6441 -9.232 -9.8325 -9.9875 -7.0205 -9.771501 -9.891001 -9.5115 -13.6417 -11.718 -12.2375 -6.4995 -7.537001 -8.112 -9.253 -10.3405 -10.022 -10.5685 -9.913 -8.189 -7.8695 -10.223 -13.6722 -12.8449 -9.708 -6.471 -8.082001 -7.2795 -5.9065 
-11.6015 -12.728 -11.8384 -8.9305 -13.0771 -9.387001 -10.006 -12.534 -10.3 -9.882501 -10.061 -11.9952 -13.4754 -13.5299 -12.5285 -15.7825 -12.681 -10.322 -13.343 -11.2055 -10.2865 -10.695 -16.766 -15.4815 -15.4065 -10.7635 -9.097001 -7.084 -6.958 -6.4285 -12.7501 -16.2313 -18.2613 -13.5243 -15.7583 -13.294 -8.311001 -7.551001 -12.7115 -12.5778 -13.6896 -9.855 -10.2735 -10.0985 -10.381 -10.109 -10.765 -14.0245 -14.6997 -13.3195 -12.388 -8.735001 -8.146001 -10.503 -13.83 -11.9595 -10.6145 -12.529 -9.917001 -9.6485 -10.264 -13.6722 -15.8192 -13.0094 -10.127 -8.984 -8.512 -7.2795 
-4.39 -4.0875 -4.015 -7.885 -3.9955 -1.4985 -3.401 -1.7695 -4.037 -3.3255 -1.8085 -4.356 -1.934 -6.823 -5.011 -3.0365 -2.7415 -2.664 -6.614501 -1.934 -3.9965 -3.6515 -4.491 -1.934 -1.8085 -5.409 -4.2605 0 
-8.078501 -8.9805 -11.3445 -11.782 -5.0175 -3.9525 -4.275 -4.8205 -7.673 -4.441 -7.386001 -5.8325 -8.251 -11.2175 -8.151 -4.2225 -4.6625 -7.1435 -6.879001 -6.1215 -4.6495 -8.875501 -5 -3.2685 -6.1635 -9.734001 -4.2605 
-13.4119 -14.8425 -15.5889 -13.1579 -7.2515 -4.539001 -6.0305 -8.159 -8.633 -9.662001 -8.990001 -11.316 -10.898 -12.4325 -8.7725 -5.384 -8.5605 -7.3135 -11.5151 -6.8465 -10.1345 -8.941001 -5.635 -7.772501 -10.264 -9.734001 
-19.2739 -18.6519 -16.6284 -13.6509 -7.297501 -6.207001 -8.9305 -9.150001 -14.0948 -11.3126 -14.7725 -14.1368 -12.6455 -12.958 -9.901501 -8.613501 -8.7635 -12.0808 -12.2401 -12.7109 -10.2655 -9.529501 -9.474001 -12.1058 -10.264 
-23.0833 -19.6914 -17.1214 -13.6554 -8.311001 -9.119 -9.964001 -14.6444 -15.7454 -17.0951 -17.4305 -16.4543 -13.171 -14.0645 -13.2016 -8.8015 -13.7294 -12.8058 -18.1045 -12.8419 -10.854 -13.3951 -13.8689 -12.1058 
-3.59 -4.416 -3.1435 -5.572 -1.756 -4.993 -3.1435 -4.315 -4.207 -1.934 -4.889 -1.8085 -3.8225 -2.7415 -4.349 -1.7695 -3.9915 -3.5485 -1.7695 -4.037 -1.934 -1.4985 -4.219 -1.756 -1.4985 -5.004 -4.066 -1.7695 -2.664 -3.498 -2.356 -1.4985 -4.421 -1.7565 -6.749001 -1.934 -1.4985 -3.158 -1.7565 -5.011 0 
-7.4305 -6.264 -7.326 -7.1545 -6.6275 -6.4665 -7.6315 -7.7575 -5.996 -6.253 -7.233001 -5.187 -5.8455 -5.786 -5.4875 -4.583 -7.198501 -5.47 -4.8205 -5.223001 -2.6125 -5.129 -5.83 -3.0405 -6.283 -7.9985 -4.6735 -4.185 -5.1155 -5.672 -3.1615 -5.8785 -6.5275 -8.0305 -9.199 -2.6125 -4.178 -4.71 -6.772 -5.011 
-9.005 -11.3473 -8.967501 -12.4898 -7.9535 -12.0141 -10.757 -10.4105 -10.8368 -8.101001 -9.948001 -7.3815 -7.0625 -6.773 -8.1825 -7.6165 -7.3795 -7.7045 -6.055 -6.026 -6.29 -6.4875 -6.765 -7.568501 -8.611 -9.541 -6.463 -5.6315 -7.1515 -6.439 -7.5135 -7.302 -13.5093 -11.1069 -9.936501 -5.265 -5.562 -9.208501 -6.772 
-14.2507 -12.9888 -14.4754 -13.8158 -13.7793 -15.1396 -13.41 -15.2513 -12.6848 -10.882 -10.6135 -8.192 -8.477 -8.751 -10.233 -7.815001 -8.68 -8.585 -6.5855 -7.4325 -7.625501 -7.4185 -10.5635 -10.146 -10.5483 -11.5789 -6.55 -7.2 -7.569 -11.0648 -9.024501 -14.9134 -16.5857 -11.8444 -12.6814 -6.3135 -9.732 -9.208501 
-15.8922 -18.4967 -15.8014 -19.6416 -16.9048 -17.7926 -18.2508 -17.0993 -15.4658 -11.5475 -11.424 -9.074501 -10.057 -10.411 -10.5515 -8.9315 -9.547501 -9.228001 -7.606501 -8.899 -8.444 -11.4204 -13.141 -11.8003 -12.5862 -11.6659 -8.071 -7.591001 -12.4658 -12.5758 -16.7319 -17.9898 -17.3232 -14.5893 -13.7299 -10.0535 -9.732 
