-4.759 
n/a 
n/a 
n/a 
n/a 
-4.759 
n/a 
n/a 
n/a 
n/a 
-4.759 
n/a 
n/a 
n/a 
n/a 
-4.759 
n/a 
n/a 
n/a 
n/a 
-1.934 -5.075 -1.4985 -4.361 -3.355 -1.7565 -2.3335 -3.452 -2.186 -4.3195 -3.6975 0 -3.0415 -3.4775 -4.179 -3.135 -3.1385 -3.9765 -2.3335 -2.5045 -6.6335 
-7.3975 -6.132 -5.8175 -8.3295 -3.725 -4.314 -6.104 -5.049 -8.2635 -6.5695 -3.6975 -3.0415 -6.3485 -8.446501 -7.104501 -4.8745 -6.109 -4.531 -4.976501 -10.2385 
-8.6195 -10.4345 -8.6295 -8.6505 -5.7445 -7.120501 -7.373 -11.7533 -10.634 -6.5695 -7.1 -6.3485 -11.9431 -11.4018 -8.522 -6.9255 -6.522501 -6.938 -13.2935 
-12.9514 -13.2465 -8.8245 -10.647 -8.8 -8.445001 -14.1677 -14.1238 -10.634 -9.0395 -10.513 -11.9431 -14.8984 -12.8193 -10.485 -7.234 -9.172501 -15.4538 
-15.7634 -13.4415 -10.688 -13.7025 -10.0675 -15.3135 -16.5382 -14.1238 -13.104 -12.6573 -16.1076 -14.8984 -16.3159 -14.7823 -10.649 -9.5955 -17.9055 
-1.934 -4.1855 -2.229 -1.4985 -3.9035 -4.5435 -1.4985 -5.204 -3.098 -3.152 -1.934 -4.9175 -4.796 -1.756 -3.0415 -3.4765 -3.4775 -3.1385 -3.5095 -2.3335 -6.6335 -2.186 -2.5685 -2.7455 -3.8315 -3.098 0 
-5.408 -5.8465 -4.123 -5.498 -8.4515 -4.982 -7.141001 -8.725 -6.56 -4.9115 -6.302 -9.661 -7.6315 -4.454 -5.878 -6.1575 -6.722 -5.482 -4.5055 -10.007 -8.717501 -4.79 -4.593 -5.9075 -7.1555 -3.098 
-7.843501 -6.9165 -8.6415 -9.1035 -8.693001 -9.887501 -11.4166 -12.3504 -8.995001 -8.174 -10.7335 -12.4965 -9.818001 -7.5305 -8.447001 -8.3055 -9.019501 -6.353001 -12.6468 -12.091 -11.8481 -5.3725 -7.416 -8.7875 -7.1555 
-8.9505 -11.64 -12.4002 -9.6385 -14.1407 -14.5433 -15.042 -14.7854 -12.3357 -12.9427 -13.569 -14.683 -12.8945 -9.624001 -10.7496 -10.476 -9.621501 -14.5527 -14.7308 -15.2216 -12.4306 -8.375 -10.5535 -8.7875 
-13.8426 -15.3987 -12.9352 -15.199 -18.7965 -18.1687 -17.477 -18.1261 -17.1044 -15.7782 -15.7555 -17.7595 -14.988 -12.0822 -12.9201 -11.078 -17.8968 -16.6367 -17.8614 -15.8041 -15.4331 -11.8125 -10.5535 
-1.934 -4.1855 -2.3615 -3.452 -3.644 -2.7455 -1.4985 -3.8315 -8.384001 0 -3.1015 -3.4795 -3.074 -3.17 -3.1385 -3.9765 -6.6335 
-5.408 -6.7565 -4.5465 -6.842 -6.078501 -3.637 -5.577001 -10.0745 -8.384001 -3.1015 -6.897 -6.9745 -6.6185 -4.946 -6.109 -11.8534 
-7.502501 -8.476 -8.154501 -8.6675 -6.8595 -7.344 -12.7136 -10.0745 -11.8113 -6.897 -9.854501 -9.723001 -8.046 -7.151 -14.2189 
-9.388 -12.6184 -9.790001 -9.338 -10.7595 -14.7226 -12.7136 -13.7462 -15.6068 -9.854501 -12.603 -11.3639 -10.5225 -15.3811 
-13.5826 -14.2539 -10.2565 -13.3414 -18.1381 -14.7226 -16.3853 -17.5417 -18.5643 -12.603 -14.2439 -13.8404 -18.814 
-1.934 -4.1855 0 -3.5065 -4.361 -4.3755 -1.7565 -2.3615 -3.452 -2.7415 -4.4715 -1.934 -2.9645 0 -3.5725 -3.1015 -3.845 -1.7565 -3.1385 -3.9765 -2.3615 -2.5045 -6.6335 0 
-5.408 -4.1855 -3.5065 -8.3585 -9.904 -4.5345 -3.523 -4.5465 -5.778 -6.1835 -5.900001 -5.036 -2.9645 -3.5725 -7.305 -8.077 -4.13 -4.388 -6.109 -5.26 -5.006 -10.2385 -6.6335 
-5.408 -7.469 -8.3585 -14.0949 -10.065 -5.8335 -5.5815 -6.311 -9.0345 -7.804 -9.2305 -5.036 -7.5105 -7.305 -12.6753 -8.3745 -5.286 -7.3855 -7.864 -8.272 -13.5068 -10.2385 
-7.8135 -12.7928 -14.0949 -14.2559 -11.3068 -8.0695 -7.5165 -9.6245 -10.8378 -10.66 -9.2305 -8.826 -10.335 -12.6753 -12.9728 -9.865 -7.842501 -9.074501 -10.259 -17.0836 -13.5068 
-13.5485 -18.5292 -14.2559 -15.4977 -13.5428 -10.181 -10.9484 -11.5186 -13.6938 -10.66 -13.2283 -11.7939 -16.2985 -12.9728 -14.4633 -12.5581 -9.5015 -11.6055 -19.2784 -17.0836 
