-4.759 
n/a 
n/a 
n/a 
n/a 
-4.759 
n/a 
n/a 
n/a 
n/a 
-4.759 
n/a 
n/a 
n/a 
n/a 
-4.759 
n/a 
n/a 
n/a 
n/a 
-4.1145 -3.5285 0 -4.348 -3.5285 -3.527 
-7.9865 -3.5285 -4.348 -7.1725 -5.086 
-7.9865 -7.14 -7.1725 -7.513 
-12.4324 -8.733001 -7.513 
-14.0254 -9.609 
-4.1145 -12.16972 0 -4.348 -3.527 
-16.80402 -12.16972 -4.348 -7.4905 
-16.80402 -16.51772 -7.4905 
-21.15202 -19.66022 
-24.29452 
-4.1145 -7.8765 -3.527 
-11.598 -10.2825 
-15.5159 
n/a 
n/a 
-4.1145 -3.5285 -4.348 -4.0325 -4.295 
-7.9865 -7.14 -10.1115 -8.0725 
-12.4324 -14.2143 -14.4151 
-19.5067 -18.5179 
-23.8103 
