-4.759 
n/a 
n/a 
n/a 
n/a 
-4.759 
n/a 
n/a 
n/a 
n/a 
-4.759 
n/a 
n/a 
n/a 
n/a 
-4.759 
n/a 
n/a 
n/a 
n/a 
-4.559 -5.295 -5.152 -3.9545 -1.934 -2.5685 -4.1115 -4.7505 -1.934 -3.333 -1.7695 -4.2765 -3.9025 -3.3255 -4.1115 0 
-10.1265 -11.6472 -6.5165 -5.882 -4.244 -7.326 -9.052501 -5.939 -3.9835 -4.022 -4.5005 -8.702001 -5.438 -7.8505 -4.1115 
-16.4787 -13.0117 -8.101001 -8.620001 -8.568001 -12.876 -10.2952 -8.064 -4.0425 -5.7835 -8.874001 -10.8619 -11.9954 -7.8505 
-17.8432 -14.5962 -11.1738 -13.116 -14.7638 -14.1187 -12.4202 -8.1025 -5.7885 -10.213 -11.1031 -17.4193 -11.9954 
-19.4277 -17.669 -15.6698 -19.3118 -16.0065 -16.2437 -12.4587 -10.001 -10.223 -12.5163 -17.6605 -17.4193 
-8.1055 -4.4725 -4.889 -1.934 -3.38 -4.8015 -1.756 -5.231 -2.5685 -4.4605 -1.7695 -3.952 -1.7695 -2.9995 -3.3155 -1.934 -1.4985 -4.1115 
-13.1502 -10.2485 -6.462501 -5.278 -7.1125 -6.3855 -6.73 -7.866001 -6.823 -6.0205 -4.6075 -4.9895 -4.358 -6.4375 -5.559 -2.6125 -4.843 
-18.9262 -11.822 -10.564 -9.812 -7.6415 -11.9683 -9.047501 -12.4707 -8.401501 -8.8125 -5.602 -7.644 -8.206 -7.244 -5.822001 -6.0655 
-20.4997 -15.9235 -15.4928 -10.6774 -14.3353 -14.2858 -13.7646 -14.0492 -11.5567 -10.209 -8.009001 -10.532 -8.488001 -7.4285 -9.745001 
-24.6012 -20.8523 -16.3582 -17.3712 -16.6528 -19.0029 -15.3431 -17.2044 -12.9532 -12.616 -10.6875 -10.814 -8.712001 -11.8199 
-1.934 -1.4985 -3.8195 -3.5005 -1.4985 -2.5685 -3.188 -5.0895 -4.1355 0 -6.7605 -3.354 -2.925 -5.107 -2.3345 -2.9705 -2.4265 -4.69 -1.4985 -3.9025 -1.7565 -2.5685 -4.4605 0 
-2.6125 -5.146501 -5.951 -4.372 -4.907001 -6.2315 -8.7685 -9.677501 -4.1355 -6.7605 -10.404 -4.3775 -8.609501 -7.3505 -5.03 -4.867001 -6.452001 -6.032 -5.1785 -5.6505 -3.938 -6.823 -4.4605 
-5.451 -8.4645 -6.906 -7.52 -8.295 -12.5878 -13.7989 -9.677501 -12.2422 -10.404 -11.4275 -9.618501 -10.5975 -10.1225 -6.4895 -8.9285 -7.7705 -9.856501 -6.1085 -7.945 -8.113501 -6.823 
-8.837501 -9.285501 -10.575 -11.6418 -14.8659 -17.6182 -13.7989 -18.0076 -15.8857 -11.4275 -16.6685 -11.8553 -13.3695 -11.629 -11.0724 -10.219 -11.7426 -10.019 -8.531 -12.2855 -8.113501 
-9.967 -13.0361 -14.6968 -18.2127 -19.8963 -17.6182 -22.129 -21.6511 -16.9092 -16.6685 -18.9053 -14.6273 -14.876 -16.2119 -12.3629 -14.1911 -11.9051 -12.4415 -12.9797 -12.2855 
-2.5685 -4.1115 -3.9035 -1.934 -1.4985 -4.335 
-7.326 -8.425001 -5.7625 -2.6125 -5.249001 
-12.2485 -11.013 -6.4835 -6.824501 
-14.8365 -11.734 -10.5125 
-15.5575 -15.763 
