-4.759 
n/a 
n/a 
n/a 
n/a 
-4.759 
n/a 
n/a 
n/a 
n/a 
-4.759 
n/a 
n/a 
n/a 
n/a 
-4.759 
n/a 
n/a 
n/a 
n/a 
-3.5905 -9.3105 -8.828501 0 -9.849501 0 
-10.622 -9.4065 -8.828501 -9.849501 -9.849501 
-10.6425 -9.4065 -19.1248 -9.849501 
-10.6425 -19.8398 -19.1248 
-21.0758 -19.8398 
-3.5905 0 -9.3105 -8.828501 0 -4.936 0 
-3.5905 -9.3105 -9.4065 -8.828501 -4.936 -4.936 
-10.622 -9.4065 -9.4065 -14.2113 -4.936 
-10.6425 -9.4065 -14.9263 -14.2113 
-10.6425 -14.9263 -14.9263 
-3.5905 -10.4215 -8.828501 0 -12.16972 0 
-14.5372 -10.5535 -8.828501 -12.16972 -12.16972 
-14.6692 -10.5535 -21.44502 -12.16972 
-14.6692 -23.17002 -21.44502 
-27.28572 -23.17002 
-3.5905 0 -12.16972 -8.828501 0 -4.936 0 
-3.5905 -12.16972 -20.99822 -8.828501 -4.936 -4.936 
-16.28542 -20.99822 -20.99822 -14.2113 -4.936 
-25.11392 -20.99822 -26.38102 -14.2113 
-25.11392 -26.38102 -26.38102 
