-4.759 
n/a 
n/a 
n/a 
n/a 
-4.759 
n/a 
n/a 
n/a 
n/a 
-4.759 
n/a 
n/a 
n/a 
n/a 
-4.759 
n/a 
n/a 
n/a 
n/a 
-12.16972 -4.431 -2.7455 -1.4985 -3.8735 -4.3285 -3.6885 -2.186 -5.1645 
-16.60072 -5.132 -3.637 -6.3715 -9.0585 -5.7225 -5.4995 -8.213 
-17.30172 -5.7945 -8.580501 -12.3337 -10.7053 -9.284 -9.1155 
-17.96422 -10.1505 -14.7333 -13.9805 -14.2668 -13.026 
-22.32022 -16.6971 -16.3801 -17.542 -18.0088 
-3.8735 -2.229 -4.9295 -3.6885 -2.186 -4.3215 -2.5045 -5.1645 -2.7455 -2.3335 -4.649 -4.8435 
-5.3655 -6.0535 -9.279501 -5.4995 -6.442 -6.389 -8.231 -8.966001 -4.9975 -7.241501 -9.054501 
-8.368 -10.8279 -10.734 -10.3885 -7.752 -12.6553 -12.4177 -11.4528 -9.503 -10.7335 
-14.2766 -12.2824 -15.623 -11.6985 -14.2977 -16.842 -14.9045 -15.9583 -13.0334 
-15.7311 -17.1714 -16.933 -18.2442 -18.4844 -19.3288 -19.41 -19.4887 
-8.110001 -2.229 -3.992 -3.034 -5.1645 -2.7415 -4.8165 -2.5045 -3.8735 -2.229 -3.915 -3.6885 0 
-9.391001 -5.686501 -6.922 -9.424001 -8.498501 -6.131001 -6.2845 -6.573 -5.3655 -5.349 -6.26 -3.6885 
-12.9275 -8.368501 -13.6816 -10.452 -10.4265 -7.598001 -10.1345 -7.3895 -8.4575 -7.8175 -6.26 
-15.6095 -15.1785 -14.7096 -12.38 -10.7465 -11.8608 -10.1965 -9.393001 -9.8105 -7.8175 
-22.4195 -16.2065 -16.6376 -12.7 -15.0093 -11.9228 -12.4354 -10.599 -9.8105 
-9.634001 -2.229 -3.495 -2.264 -4.1035 -1.7565 -5.1645 -2.5045 -3.4075 -3.6885 
-12.1202 -5.9205 -5.3525 -6.923 -5.0635 -6.994501 -7.98 -6.094501 -6.5955 
-15.8117 -6.487 -10.7025 -7.461 -9.828001 -8.975 -10.051 -8.765 
-16.3782 -12.1838 -11.2405 -12.6967 -10.338 -10.703 -10.1015 
-22.075 -12.7218 -16.4762 -13.2067 -12.2478 -10.743 
