-4.759 
n/a 
n/a 
n/a 
n/a 
-4.759 
n/a 
n/a 
n/a 
n/a 
-4.759 
n/a 
n/a 
n/a 
n/a 
-4.759 
n/a 
n/a 
n/a 
n/a 
-6.164001 -3.264 -1.7565 -5.1875 -2.229 -2.4945 -3.8245 -1.934 -6.3535 0 -4.628 -4.743 0 -4.474 0 -4.5065 0 -4.348 0 -5.05 0 -5.8945 -3.8375 0 -3.676 0 -3.691 0 -1.756 -3.0415 -3.3715 -3.959 
-8.1885 -3.6125 -6.68 -7.694 -5.159 -5.751 -4.7245 -8.6675 -6.3535 -4.628 -4.7515 -4.743 -4.474 -4.474 -4.5065 -4.5065 -4.348 -4.348 -5.05 -5.05 -5.8945 -10.8415 -3.8375 -3.676 -3.676 -3.691 -3.691 -1.756 -4.454 -4.5985 -5.699 
-8.2215 -8.678501 -8.989 -9.367001 -8.5985 -6.158 -12.2258 -8.6675 -11.9269 -4.7515 -4.7515 -7.5585 -4.474 -6.5835 -4.5065 -6.4415 -4.348 -9.111 -5.05 -12.7683 -10.8415 -10.8415 -8.0155 -3.676 -6.069 -3.691 -5.176 -4.454 -6.217 -7.3825 
-13.5809 -10.0745 -10.9808 -12.8689 -9.294001 -14.1369 -12.2258 -14.4751 -12.0504 -4.7515 -7.5585 -7.5585 -6.5835 -6.5835 -6.4415 -6.4415 -9.111 -9.111 -12.7683 -17.7153 -10.8415 -15.0195 -8.0155 -6.069 -6.069 -5.176 -8.252001 -6.217 -9.264001 
-14.9769 -12.8619 -14.4827 -13.5644 -17.2985 -14.1369 -18.0334 -14.5986 -12.0504 -7.5585 -7.5585 -9.5375 -6.5835 -7.4255 -6.4415 -12.1791 -9.111 -16.6589 -17.7153 -17.7153 -15.0195 -15.0195 -11.3855 -6.069 -7.5365 -8.252001 -9.772 -9.264001 
-3.0365 -5.091 -3.264 -1.7565 -6.102 -3.8245 -1.934 -4.779 0 -4.628 -4.743 0 -4.474 0 -4.5065 0 -4.348 0 -6.1325 -2.229 0 -4.8335 -3.8375 -3.676 0 -3.691 -1.756 -1.934 -2.8965 -3.959 
-9.000501 -8.307 -3.6125 -7.293001 -8.783501 -4.7245 -5.9675 -4.779 -4.628 -4.7515 -4.743 -4.474 -4.474 -4.5065 -4.5065 -4.348 -4.348 -6.1325 -8.947001 -2.229 -4.8335 -7.5465 -8.0155 -3.676 -3.691 -5.176 -4.0205 -4.391 -4.940001 
-12.3423 -8.38 -8.7285 -9.654 -8.9785 -8.5395 -5.9675 -7.2185 -4.7515 -4.7515 -7.5585 -4.474 -6.5835 -4.5065 -6.4415 -4.348 -9.347 -8.947001 -8.947001 -8.151001 -7.5465 -12.4877 -8.0155 -6.069 -5.176 -7.0765 -6.003 -5.7075 
-12.4153 -13.6674 -10.6875 -9.790001 -12.9753 -8.5395 -8.7895 -7.22 -4.7515 -7.5585 -7.5585 -6.5835 -6.5835 -6.4415 -6.4415 -9.347 -13.0749 -8.947001 -15.0424 -10.389 -12.4877 -12.4877 -11.3855 -7.5365 -7.0765 -8.422501 -6.9235 
-17.7027 -15.6264 -10.8235 -13.852 -12.9753 -11.5933 -8.8015 -7.22 -7.5585 -7.5585 -9.5375 -6.5835 -7.4255 -6.4415 -12.4151 -13.0749 -13.0749 -15.0424 -17.2804 -15.3302 -12.4877 -15.8577 -12.853 -10.0285 -8.422501 -8.658 
-6.102 -2.4945 -4.657 -1.934 -4.015 -4.0145 -1.934 -4.779 0 -6.6585 0 -4.474 0 -4.5065 0 -4.348 0 -12.16972 0 -6.884501 -3.8745 0 -3.676 0 -3.691 -1.756 -2.8965 -3.959 0 
-7.5675 -7.751 -5.156 -4.6075 -8.1745 -5.479 -5.9675 -4.779 -6.6585 -6.6585 -4.474 -4.474 -4.5065 -4.5065 -4.348 -4.348 -12.16972 -12.16972 -6.884501 -11.2254 -3.8745 -3.676 -3.676 -3.691 -5.176 -3.751 -4.940001 -3.959 
-13.086 -8.294001 -9.3725 -9.1695 -9.578001 -10.119 -5.9675 -8.8855 -6.6585 -9.487 -4.474 -6.5835 -4.5065 -6.4415 -4.348 -17.58892 -12.16972 -19.05422 -11.2254 -11.2254 -8.554001 -3.676 -6.069 -5.176 -6.926001 -5.725 -4.940001 
-13.629 -12.8111 -13.9875 -10.75 -14.2632 -10.119 -10.1926 -8.8855 -9.487 -9.487 -6.5835 -6.5835 -6.4415 -6.4415 -17.58892 -17.58892 -19.05422 -23.39512 -11.2254 -15.9049 -8.554001 -6.069 -7.5365 -6.926001 -7.189 -5.725 
-18.1461 -17.4261 -15.568 -15.4352 -14.2632 -14.5103 -10.1926 -12.3198 -9.487 -12.1703 -6.5835 -7.4255 -6.4415 -20.65702 -17.58892 -24.47342 -23.39512 -23.39512 -15.9049 -15.9049 -11.702 -7.5365 -9.3345 -7.189 -7.189 
-4.015 -3.264 -1.7565 -5.1875 -4.9225 -2.4945 -4.657 -1.934 -4.779 0 -4.628 -4.743 0 -4.474 0 -4.5065 0 -4.348 0 -5.05 0 -8.5255 -3.8375 0 -3.676 0 -3.691 -1.756 -2.8965 -3.959 0 
-7.2355 -3.6125 -6.68 -9.42 -6.9525 -7.751 -5.156 -5.9675 -4.779 -4.628 -4.7515 -4.743 -4.474 -4.474 -4.5065 -4.5065 -4.348 -4.348 -5.05 -5.05 -8.5255 -12.5942 -3.8375 -3.676 -3.676 -3.691 -5.176 -3.751 -4.940001 -3.959 
-7.528501 -8.678501 -10.749 -11.547 -12.527 -8.294001 -9.093 -5.9675 -7.2185 -4.7515 -4.7515 -7.5585 -4.474 -6.5835 -4.5065 -6.4415 -4.348 -9.111 -5.05 -15.3993 -12.5942 -12.5942 -8.0155 -3.676 -6.069 -5.176 -6.926001 -5.725 -4.940001 
-12.9417 -13.0097 -12.876 -17.1215 -13.07 -12.5316 -9.093 -8.7895 -7.22 -4.7515 -7.5585 -7.5585 -6.5835 -6.5835 -6.4415 -6.4415 -9.111 -9.111 -15.3993 -19.468 -12.5942 -16.7722 -8.0155 -6.069 -7.5365 -6.926001 -7.189 -5.725 
-17.2729 -15.1367 -18.4505 -17.6645 -17.3076 -12.5316 -12.2668 -8.8015 -7.22 -7.5585 -7.5585 -9.5375 -6.5835 -7.4255 -6.4415 -12.1791 -9.111 -19.2899 -19.468 -19.468 -16.7722 -16.7722 -11.3855 -7.5365 -9.3345 -7.189 -7.189 
