-4.759 
n/a 
n/a 
n/a 
n/a 
-4.759 
n/a 
n/a 
n/a 
n/a 
-4.759 
n/a 
n/a 
n/a 
n/a 
-4.759 
n/a 
n/a 
n/a 
n/a 
-1.4985 -3.886 -1.7565 -1.4985 -3.5435 -3.335 -2.3335 -3.436 -1.4985 -3.158 -4.686 0 -4.6565 -6.4735 -3.687 -2.0935 -3.8655 -2.5045 -5.084 0 
-5.443 -5.2465 -2.4195 -4.2755 -7.821 -4.79 -5.763 -4.213 -4.178 -7.039001 -4.686 -4.6565 -11.533 -9.506001 -5.533 -6.067 -6.387 -6.9305 -5.084 
-6.1155 -5.79 -5.3025 -8.385 -8.561501 -8.440001 -6.6295 -6.8305 -8.175 -7.039001 -8.9545 -11.533 -14.5655 -11.7286 -8.446 -8.054001 -9.127501 -6.9305 
-6.4315 -8.4965 -9.869501 -8.963501 -12.3505 -8.9715 -8.723001 -10.609 -8.175 -11.7271 -15.9812 -14.5655 -16.7881 -14.6416 -10.5225 -11.0625 -9.127501 
-8.941 -13.3849 -10.557 -12.8591 -12.882 -11.1144 -12.7387 -10.609 -13.2019 -18.7538 -19.0137 -16.7881 -19.7011 -16.7181 -13.531 -11.0625 
-3.5435 -4.5435 -3.335 -4.6565 -5.1845 -3.1385 -5.081 -1.934 -3.8655 -3.436 -4.686 
-7.781501 -8.6385 -8.4385 -10.688 -7.4095 -7.87 -6.212 -4.9135 -7.334001 -8.141001 
-12.1945 -14.0658 -14.8624 -12.913 -12.5174 -8.634501 -8.118501 -7.745 -12.4488 
-17.6218 -20.4897 -17.0874 -18.0209 -13.2819 -10.7175 -11.4554 -13.0294 
-24.0457 -22.7147 -22.1953 -18.7854 -15.3649 -14.0544 -16.7398 
-1.934 -4.686 -3.436 -4.5925 -4.6565 -6.9915 -3.3165 -1.7695 -3.511 -1.7695 -4.3105 -1.4985 -3.6785 -3.5435 -4.9995 0 
-5.8635 -8.290001 -8.417001 -10.4115 -12.051 -11.2626 -3.881 -4.633 -5.814 -6.285501 -6.5855 -6.803 -7.4265 -8.783501 -4.9995 
-8.6055 -13.5114 -14.3672 -17.806 -16.3221 -11.8271 -7.492 -6.735 -10.674 -10.044 -12.968 -10.8702 -13.2929 -8.783501 
-13.9095 -19.4616 -21.7617 -22.0771 -16.8866 -15.4381 -9.613501 -12.151 -14.4325 -16.4265 -17.0352 -16.7366 -13.2929 
-19.8597 -26.8561 -26.0328 -22.6416 -20.4976 -17.5596 -15.1501 -15.9095 -20.815 -20.4937 -22.9016 -16.7366 
-6.0655 -6.318 -3.335 0 -3.436 -4.686 -4.5925 -4.6565 -5.1845 -3.1385 -5.3905 -1.7695 -3.8655 
-13.2761 -10.9788 -3.335 -3.436 -8.141001 -10.375 -10.4115 -10.688 -7.4095 -8.647501 -6.104 -5.6875 
-17.9369 -10.9788 -6.808001 -8.141001 -14.1522 -16.194 -16.443 -12.913 -13.2949 -9.294001 -9.7095 
-17.9369 -14.4518 -11.8914 -14.1522 -19.9712 -22.2255 -18.668 -18.7984 -13.9414 -12.8669 
-21.4099 -19.5352 -17.9026 -19.9712 -26.0027 -24.4505 -24.5534 -19.4449 -17.5143 
