-4.759 
n/a 
n/a 
n/a 
n/a 
-4.759 
n/a 
n/a 
n/a 
n/a 
-4.759 
n/a 
n/a 
n/a 
n/a 
-4.759 
n/a 
n/a 
n/a 
n/a 
-6.6585 -1.756 -4.941 -2.4945 -3.8745 -2.9705 -2.8645 -4.031 -1.7565 -5.6305 -1.934 -1.4985 -3.75 -1.7565 -3.8735 0 -5.484 -4.1115 -1.934 -3.1435 -3.641 -1.756 -4.1865 -4.3355 -1.934 -3.1435 -3.75 0 
-8.549 -7.785 -7.883501 -7.805501 -6.945001 -4.6335 -8.586 -5.741 -6.561501 -7.4755 -2.6125 -4.8715 -5.188 -5.112 -3.8735 -5.484 -6.72 -6.1155 -4.335 -7.107 -5.511001 -5.8775 -5.171 -6.371 -4.335 -7.1475 -3.75 
-10.115 -9.303 -13.5817 -9.824 -8.736501 -10.3815 -10.6215 -6.8025 -8.075001 -8.027 -5.621 -6.1545 -7.915 -5.112 -9.135 -6.72 -8.226 -8.426001 -8.391001 -8.352 -9.273001 -7.1845 -7.5095 -8.875 -8.506001 -7.1475 
-11.633 -15.2354 -15.6002 -11.7357 -14.5237 -12.417 -11.683 -8.358 -8.513 -8.924001 -6.7765 -9.042001 -7.915 -9.8065 -9.363501 -8.226 -10.4265 -12.6552 -9.741501 -12.446 -10.27 -9.2085 -10.114 -13.1212 -8.506001 
-17.5654 -17.2539 -17.5119 -17.5229 -16.5592 -13.4785 -13.2385 -8.711 -9.208 -10.4421 -9.505501 -9.042001 -12.9155 -10.034 -11.1721 -10.4265 -14.6557 -14.0057 -13.9713 -13.443 -12.612 -11.8896 -14.3602 -13.1212 
-3.8735 -2.186 -1.8085 -7.4455 -2.9705 -2.8645 -4.628 -4.743 -1.756 -4.941 0 -4.031 -1.7565 -5.6305 -2.264 -1.4985 -3.75 -1.7565 -3.8735 0 -5.484 -4.1115 -2.264 -1.4985 -3.641 0 -4.1865 -4.3355 -2.264 -1.4985 -3.502 
-5.949 -3.164 -9.597 -10.1 -4.6335 -9.095501 -4.7515 -6.5275 -7.785 -4.941 -4.031 -5.741 -6.561501 -8.0185 -2.9195 -4.8715 -5.188 -5.112 -3.8735 -5.484 -6.72 -6.561 -2.9195 -4.644 -3.641 -4.1865 -5.171 -6.784 -2.9195 -4.5955 
-6.8155 -10.533 -12.3295 -11.952 -10.7495 -9.3795 -6.535501 -8.450001 -7.785 -9.9305 -5.741 -6.8025 -8.498501 -8.512 -5.698 -6.1545 -7.915 -5.112 -9.135 -6.72 -8.346001 -7.0495 -5.576 -4.644 -6.266001 -5.171 -7.9045 -7.2475 -5.75 
-14.7513 -13.2655 -14.1815 -18.068 -11.0335 -11.3427 -8.451 -8.450001 -13.2387 -9.955001 -6.8025 -8.583 -8.771501 -9.078 -7.6625 -9.042001 -7.915 -9.8065 -9.363501 -8.346001 -8.5725 -8.208 -5.576 -7.271 -7.693501 -7.9045 -8.3225 -8.499001 
-17.4838 -15.1175 -20.2975 -18.352 -12.9967 -13.2582 -8.451 -14.0411 -13.2632 -10.066 -8.583 -8.823 -9.1195 -11.5439 -10.7492 -9.042001 -12.9155 -10.034 -11.2921 -8.5725 -8.725 -8.208 -8.788501 -8.861 -11.2588 -8.3225 -8.913501 
-4.628 -4.743 -1.756 -9.1175 -3.8375 -2.4945 -1.934 -1.4985 -3.502 -3.7575 -3.8735 -2.186 -5.0465 -2.9705 -2.8645 -4.031 -1.7565 -5.6305 -1.934 -1.4985 -3.75 0 -5.484 -4.1115 -1.934 -1.4985 -3.502 -1.756 -4.1865 -4.3355 -1.934 -1.4985 -3.5455 0 
-4.7515 -6.5275 -11.117 -13.2612 -6.73 -4.2645 -2.6125 -4.5955 -5.712 -8.4825 -5.949 -9.035001 -7.496 -4.6335 -8.586 -5.741 -6.561501 -7.4755 -2.6125 -4.8715 -3.75 -5.484 -6.72 -6.1155 -2.6125 -4.5955 -5.513 -5.8775 -5.171 -6.371 -2.6125 -4.554 -3.5455 
-6.535501 -16.6919 -15.2607 -16.1537 -8.562 -4.935 -5.258 -6.058001 -11.1228 -9.696001 -13.3118 -11.6105 -8.703 -10.3815 -10.6215 -6.8025 -8.075001 -8.027 -5.621 -4.8715 -7.993501 -6.72 -8.226 -6.6895 -5.258 -5.966001 -9.969501 -7.1845 -7.5095 -7.022501 -5.298 -4.554 
-16.7245 -20.8356 -18.1532 -17.9857 -9.158 -7.7045 -7.695001 -12.1998 -12.3363 -17.0444 -15.8873 -12.8175 -14.666 -12.417 -11.683 -8.358 -8.513 -8.924001 -5.621 -9.7775 -9.028001 -8.226 -8.5415 -8.203001 -6.465 -10.248 -11.2765 -9.2085 -7.9915 -8.694 -5.298 
-20.8682 -23.7281 -19.9852 -18.5817 -12.0407 -9.9075 -13.7708 -13.4133 -19.6847 -19.6199 -17.0943 -18.7805 -16.7015 -13.4785 -13.2385 -8.711 -9.208 -8.924001 -10.31 -10.2725 -10.647 -8.5415 -9.053 -8.9735 -10.8422 -11.555 -13.3005 -9.657001 -10.1175 -8.694 
-3.8735 -2.186 -5.0465 -2.9705 -2.8645 -4.628 -4.743 0 -9.1175 -1.756 -4.031 -1.7565 -5.6305 -1.934 -3.75 0 -5.484 -4.1115 -1.934 -1.4985 -3.641 -1.756 -4.1865 -4.3355 -1.934 -1.4985 -3.502 0 
-5.949 -9.035001 -7.496 -4.6335 -9.095501 -4.7515 -4.743 -9.1175 -11.1797 -6.3815 -5.741 -6.561501 -7.4755 -5.3465 -3.75 -5.484 -6.72 -6.1155 -2.6125 -4.644 -5.511001 -5.8775 -5.171 -6.371 -2.6125 -4.5955 -3.502 
-13.3118 -11.6105 -8.703 -10.7495 -9.3795 -4.7515 -15.1033 -11.1797 -15.8052 -7.708 -6.8025 -8.075001 -10.115 -5.3465 -7.993501 -6.72 -8.226 -6.6895 -5.3205 -5.9665 -9.273001 -7.1845 -7.5095 -7.022501 -5.258 -4.5955 
-15.8873 -12.8175 -15.034 -11.0335 -9.3795 -15.2066 -17.1655 -15.8052 -17.1317 -8.6695 -8.358 -10.688 -10.115 -10.7958 -9.028001 -8.226 -8.5415 -8.175501 -6.5435 -9.7845 -10.27 -9.2085 -7.9915 -8.3985 -5.258 
-17.0943 -19.1485 -15.318 -11.0335 -20.0138 -17.2688 -21.791 -17.1317 -18.0932 -9.9615 -10.717 -10.688 -15.8265 -11.8303 -10.647 -8.5415 -9.059501 -8.961 -10.2975 -10.3845 -12.612 -9.657001 -8.6125 -8.3985 
