-4.759 
n/a 
n/a 
n/a 
n/a 
-4.759 
n/a 
n/a 
n/a 
n/a 
-4.759 
n/a 
n/a 
n/a 
n/a 
-4.759 
n/a 
n/a 
n/a 
n/a 
-1.934 -1.4985 -3.16 -3.7345 -1.7565 -17.7525 0 -2.4265 -2.186 -5.7035 -2.5045 -3.188 -4.0005 -3.16 -2.186 -4.9405 -2.356 -2.9905 -2.9995 -3.5035 -2.5045 -1.4985 -5.2775 0 -2.5045 -1.8085 -3.54 -4.015 -3.9355 -1.756 -3.345 -2.8645 -3.1125 -4.4155 -2.5045 -3.6135 -4.1395 0 
-2.6125 -4.0625 -6.122 -5.555 -20.8632 -18.8367 -2.4265 -3.292 -6.399 -6.614 -6.2815 -4.969501 -5.2365 -5.883 -6.0715 -7.922 -5.712501 -5.741 -6.1415 -5.745501 -3.1915 -8.707001 -5.2775 -2.5045 -3.3625 -4.976501 -6.529 -8.473501 -5.2215 -5.1225 -6.1105 -3.5345 -6.2615 -6.3805 -5.81 -7.042 -4.1395 
-5.7115 -7.511001 -8.6405 -25.4259 -21.2894 -21.9607 -3.292 -7.929 -7.243001 -10.688 -7.989501 -5.246 -7.176001 -9.568001 -9.72 -11.5751 -7.147501 -9.2325 -8.352 -5.8835 -10.2535 -8.707001 -9.339001 -3.3625 -6.797 -9.6575 -11.5795 -9.253501 -8.4655 -6.8945 -7.334001 -6.5625 -7.615 -10.3745 -10.543 -7.042 
-8.236 -9.134001 -28.7534 -25.4259 -24.4134 -22.8567 -7.929 -8.765 -11.5096 -12.396 -8.6455 -7.187 -9.98 -13.4383 -13.4245 -13.0101 -10.9806 -11.8116 -9.584001 -14.5533 -10.2535 -12.8673 -10.5985 -6.797 -11.6412 -14.617 -12.3595 -12.8913 -10.476 -8.233 -10.634 -7.941 -11.8962 -15.1075 -10.543 
-10.0815 -29.4865 -28.7534 -28.5499 -25.3094 -27.6799 -8.765 -13.0652 -13.2176 -13.052 -10.6605 -9.9805 -14.6133 -17.1428 -14.8595 -16.8432 -13.5597 -13.0436 -17.9908 -14.5533 -14.6502 -14.1268 -14.033 -11.6412 -16.6007 -15.397 -15.9973 -14.9018 -11.8145 -11.6622 -12.0125 -12.4798 -16.6292 -15.1075 
-3.188 -4.0005 -3.16 -2.186 -3.2955 -2.0935 -3.915 -4.078 -1.756 -1.934 -2.3615 -4.7285 -3.4945 -3.7345 -1.756 -3.54 -3.7285 -5.6915 -2.925 -2.4945 -3.2955 -2.5045 -1.8085 -3.5825 -3.8235 -1.7695 -3.5395 -2.3335 0 
-4.969501 -5.2365 -5.883 -4.348001 -4.307 -5.9465 -8.410501 -5.7755 -4.0205 -3.539 -6.265 -7.331 -7.7 -5.0665 -5.1005 -7.1975 -8.154 -7.724 -3.7675 -4.6305 -4.6545 -3.3625 -5.3605 -7.649501 -5.489 -4.7845 -5.908 -2.3335 
-5.246 -7.176001 -8.262 -5.274 -7.4775 -9.609 -9.9405 -8.1635 -5.759501 -7.2155 -8.7585 -12.0435 -9.017 -8.4135 -8.3535 -11.1375 -10.3095 -8.5015 -5.929501 -5.958 -5.021 -6.777 -9.134501 -9.665001 -8.683001 -7.137001 -5.908 
-7.187 -9.441501 -9.092501 -8.563001 -11.785 -10.69 -12.3967 -9.9425 -9.616501 -10.2865 -13.8796 -13.3605 -12.6822 -11.9065 -12.4723 -13.7925 -11.476 -10.8895 -7.205 -6.7495 -8.494 -10.0745 -10.703 -13.0518 -10.6885 -7.137001 
-9.446 -10.127 -12.4601 -13.3643 -12.866 -13.1462 -14.1757 -13.8349 -12.7175 -15.4076 -15.1966 -17.0257 -16.1752 -16.0253 -15.1273 -14.6825 -13.595 -11.7795 -7.962 -10.047 -11.9191 -11.9728 -14.0898 -15.0573 -10.6885 
-1.934 -4.331 -6.469 -4.156 -2.229 0 -3.16 -3.7345 0 -2.9805 -4.641 -2.3335 -3.188 -4.0005 -3.16 -1.7695 -2.489 -4.621 -2.5045 -3.54 -4.2775 -3.9355 -2.356 -8.4455 -4.0245 -3.202 -1.7695 -2.489 -1.934 -3.9515 -4.0245 0 
-6.9155 -8.877001 -8.913501 -5.5865 -2.229 -3.16 -6.122 -3.7345 -2.9805 -6.2005 -5.634501 -6.29 -4.969501 -5.2365 -5.7135 -3.1405 -5.579 -5.8525 -6.0935 -6.0705 -7.319 -5.852 -10.8845 -12.809 -6.992001 -6.3095 -3.1405 -4.348 -5.829 -5.903 -4.0245 
-11.9433 -9.1365 -9.295 -5.5865 -5.03 -6.122 -6.122 -6.8135 -6.2005 -7.330501 -9.7845 -8.001 -5.246 -7.308001 -7.603001 -6.149 -6.5 -8.729 -7.7235 -9.18 -7.986 -15.1569 -15.248 -15.7765 -9.148001 -7.8505 -4.8625 -8.139501 -8.5065 -5.903 
-12.2028 -9.466001 -9.295 -8.801001 -8.3015 -6.122 -9.699 -10.5225 -7.330501 -11.6785 -11.5675 -8.656 -7.314001 -8.990001 -11.0477 -7.626 -9.437 -10.31 -9.712501 -9.978001 -18.5313 -19.5204 -18.2155 -17.9325 -10.9542 -9.400001 -8.8315 -9.9505 -8.5065 
-12.5323 -9.466001 -12.7873 -10.7335 -8.3015 -9.699 -13.458 -11.6525 -11.6785 -13.4615 -12.2225 -11.1882 -8.994 -12.6243 -12.5247 -10.8012 -11.0554 -12.299 -10.6157 -20.5233 -22.8948 -22.4879 -20.3715 -19.7387 -12.5037 -13.9134 -10.6493 -9.9505 
-5.736 -10.433 -4.603 -1.934 -1.4985 -3.16 -3.7345 -2.0935 -1.4985 -3.4425 -2.9645 -3.0365 -2.186 -2.847 -6.052001 -1.934 -3.458 -1.4985 -3.9355 -3.188 -4.0005 -3.16 -1.756 -3.54 -3.7285 -4.7285 -1.934 -1.4985 -3.9515 -4.1395 
-13.229 -11.7455 -6.2155 -2.6125 -4.0625 -6.122 -5.153 -2.9725 -4.548 -6.304501 -6.3805 -3.66 -4.1045 -7.784 -7.457001 -5.207 -4.063 -4.8035 -7.339 -4.969501 -5.2365 -5.1995 -5.1005 -7.1975 -6.981501 -6.146501 -2.6125 -5.059 -6.184 
-19.8029 -14.8656 -6.657 -5.7115 -7.511001 -7.469 -6.107 -6.0185 -8.1665 -9.433001 -6.943501 -4.256001 -9.088 -9.054501 -8.800001 -6.0585 -7.1705 -8.5395 -9.257 -5.246 -5.969 -9.599501 -8.3535 -10.9249 -8.146501 -6.745501 -5.858 -7.698 
-21.7676 -15.3071 -9.9305 -8.236 -8.476001 -8.918 -9.212001 -9.144001 -11.32 -10.0355 -7.4725 -9.091001 -9.6145 -10.3871 -9.199501 -8.674001 -10.7495 -9.9775 -9.613 -5.97 -11.543 -13.0033 -12.2597 -12.0899 -8.672001 -10.4505 -9.540001 
-22.2091 -18.5806 -12.5216 -9.986001 -9.8275 -12.1828 -12.4373 -12.4845 -11.9225 -10.5693 -12.6123 -9.6145 -11.0811 -10.7866 -10.495 -12.3814 -12.1875 -10.1115 -10.7625 -11.5578 -14.9468 -16.9095 -13.4247 -12.6154 -12.5102 -14.1325 
