-4.759 
n/a 
n/a 
n/a 
n/a 
-4.759 
n/a 
n/a 
n/a 
n/a 
-4.759 
n/a 
n/a 
n/a 
n/a 
-4.759 
n/a 
n/a 
n/a 
n/a 
-2.871 -2.645 -4.7145 -3.486 -2.95 -4.304 -2.186 -3.768 0 -3.946 -6.549 -3.7575 
-5.038 -7.6855 -9.683001 -4.563 -8.318 -6.331 -4.7835 -3.768 -3.946 -11.4984 -10.7885 
-9.874001 -13.2452 -11.0962 -9.4095 -10.1 -10.341 -4.7835 -8.1815 -11.4984 -15.7379 
-15.8515 -14.6584 -15.9427 -11.2845 -14.11 -10.341 -9.8265 -16.1943 -15.7379 
-17.2647 -19.5049 -17.8177 -15.2945 -14.11 -15.384 -18.1529 -20.4338 
-2.645 -3.1575 -4.7145 -4.1745 -2.4945 -4.972 -2.5045 -1.4985 -3.486 -2.95 0 -3.324 -2.4945 -5.12 -2.5045 -1.8085 -2.9775 -2.3345 -3.962 -1.8085 -3.2945 
-3.72 -6.931001 -7.383 -6.037 -5.9635 -6.873 -3.1915 -3.5655 -4.563 -2.95 -3.324 -5.799 -6.897501 -7.022501 -3.3625 -4.9135 -5.580501 -8.0175 -5.3475 -4.6585 
-6.9395 -11.6015 -8.706501 -7.7115 -7.8175 -7.243 -4.538 -4.577 -4.563 -6.6 -5.799 -9.6875 -8.436501 -7.5585 -7.105 -7.0155 -12.0169 -9.693 -9.027 
-12.6778 -12.925 -10.0885 -9.6675 -8.124001 -8.7095 -4.615 -4.577 -8.9895 -9.042 -9.6875 -11.4773 -9.1675 -12.055 -9.410501 -14.0687 -13.6924 -14.0219 
-14.0013 -14.307 -12.5915 -10.073 -9.675501 -8.799001 -4.615 -9.011001 -11.5041 -13.1535 -11.4773 -12.2083 -13.8834 -14.3605 -16.7051 -15.7442 -18.0213 
-2.871 -2.4285 -2.645 -4.7145 -1.934 -3.99 -2.95 -1.7695 -7.562 
-4.4275 -4.1105 -7.6855 -6.824 -6.5385 -5.8535 -4.11 -9.7185 
-4.587 -9.797501 -9.1155 -12.4689 -8.314 -7.066501 -13.1498 
-9.892 -11.4401 -15.5958 -14.2444 -9.062501 -16.8453 
-11.59 -17.9204 -17.3713 -14.9929 -18.9033 
-2.7295 -2.7765 -2.9645 -2.645 -3.1575 -2.871 -4.7145 -1.934 -1.4985 -3.486 -2.95 0 -2.7295 -2.7765 -3.047 -3.64 -2.5045 -1.4985 -2.95 -1.7565 -10.7895 
-4.065 -4.5195 -5.78 -3.72 -4.6035 -8.542001 -6.824 -2.6125 -3.5655 -4.563 -2.95 -2.7295 -4.065 -4.5075 -6.436 -5.7485 -3.1915 -3.9285 -4.3785 -13.4952 
-5.8385 -7.1715 -6.4355 -4.726501 -10.0885 -11.0579 -8.002501 -4.5805 -4.577 -4.563 -4.9615 -4.065 -5.696 -8.965501 -9.706 -6.037 -4.5155 -4.676 -17.0452 
-8.345501 -7.745 -6.7455 -10.1185 -12.7688 -12.2364 -9.969501 -6.56 -4.577 -6.124 -6.614 -5.696 -10.255 -12.6831 -10.0335 -8.6815 -4.837 -17.6019 
-9.064 -7.942 -12.5757 -12.8164 -13.9473 -14.2034 -12.0726 -6.56 -6.1285 -7.6405 -8.148001 -10.255 -13.9726 -13.0106 -13.425 -8.98 -18.1523 
