-4.759 
n/a 
n/a 
n/a 
n/a 
-4.759 
n/a 
n/a 
n/a 
n/a 
-4.759 
n/a 
n/a 
n/a 
n/a 
-4.759 
n/a 
n/a 
n/a 
n/a 
-2.872 0 -2.356 -4.168 -2.3345 -1.4985 -4.371 -1.4985 -5.891 -3.7575 -4.09 
-2.872 -2.356 -7.387501 -4.6945 -3.233 -5.556001 -6.2215 -6.9925 -9.649 -7.873 
-4.9465 -7.387501 -8.1295 -5.223001 -7.73 -7.3335 -10.45 -11.4337 -14.0157 
-10.76 -8.1295 -9.590001 -10.6095 -9.751 -11.8684 -14.8388 -15.8004 
-11.502 -9.590001 -15.1845 -12.6305 -14.3221 -16.2572 -19.2055 
-4.5445 -1.4985 -5.891 -3.2 -2.186 -4.3285 -3.3255 -5.2695 0 
-5.880001 -6.9925 -6.864 -4.7335 -5.4465 -6.718 -8.714001 -5.2695 
-11.6288 -7.262001 -8.1545 -7.862 -7.018001 -12.9585 -8.714001 
-11.8983 -8.403501 -11.532 -10.134 -14.1181 -12.9585 
-13.0398 -11.8306 -13.804 -17.2341 -14.1181 
-3.7925 0 -4.273 -5.1735 -2.186 -3.4625 -4.4725 -3.3255 -4.675 
-3.7925 -4.273 -10.8625 -6.963 -4.4835 -6.475 -8.179001 -8.846001 
-8.321 -10.8625 -12.652 -9.376 -7.244 -10.1505 -14.0297 
-15.3303 -12.652 -15.065 -12.2505 -11.1133 -15.9412 
-17.1198 -15.065 -17.9395 -16.1198 -16.904 
-3.5725 0 -1.4985 -5.891 -3.9675 -2.186 -4.3285 -3.3255 -5.2695 0 
-3.5725 -1.4985 -6.9925 -8.892 -5.881001 -5.4465 -6.718 -8.714001 -5.2695 
-5.295 -6.9925 -10.3475 -11.3387 -9.653 -7.018001 -12.9585 -8.714001 
-11.2766 -10.3475 -12.7942 -15.1107 -11.1987 -14.1181 -12.9585 
-14.6316 -12.7942 -16.5662 -16.6564 -18.2988 -14.1181 
