-4.759 
n/a 
n/a 
n/a 
n/a 
-4.759 
n/a 
n/a 
n/a 
n/a 
-4.759 
n/a 
n/a 
n/a 
n/a 
-4.759 
n/a 
n/a 
n/a 
n/a 
-5.4425 -6.5625 -2.5045 -4.39 -4.75 
-7.282 -8.955001 -7.392 -10.382 
-9.341001 -14.0945 -13.9148 
-14.6933 -20.6173 
-21.2161 
-5.4425 -6.5625 -2.5045 -1.8085 -5.8475 -4.75 
-7.282 -8.955001 -3.3625 -7.1025 -11.08 
-9.341001 -9.908501 -8.179501 -12.7436 
-10.3165 -14.7985 -14.0074 
-15.3537 -20.6264 
-5.715 -4.75 -2.186 -9.1835 -6.5625 
-10.862 -6.438 -9.9455 -9.251 
-12.55 -14.8199 -12.247 
-20.9319 -17.0094 
-23.1214 
-5.4425 -6.5625 -4.2665 -2.664 -5.715 -4.75 
-7.282 -11.0145 -7.6425 -10.2645 -10.862 
-12.2728 -14.3905 -15.463 -15.4115 
-15.6488 -22.211 -20.61 
-23.4693 -27.358 
