-4.759 
n/a 
n/a 
n/a 
n/a 
-4.759 
n/a 
n/a 
n/a 
n/a 
-4.759 
n/a 
n/a 
n/a 
n/a 
-4.759 
n/a 
n/a 
n/a 
n/a 
-4.1865 -4.241 -4.4165 -3.9665 -3.074 -4.452 -2.4265 -4.7015 -3.9225 -3.8175 -4.7065 -5.1735 -4.5675 
-7.936501 -6.8265 -7.6835 -7.0725 -6.9605 -6.022 -7.6475 -6.891001 -7.091001 -8.1505 -10.6095 -9.89 
-8.363501 -7.692501 -10.6735 -11.372 -9.1215 -11.5924 -10.27 -10.213 -12.0224 -14.4723 -15.326 
-8.436501 -10.733 -14.973 -13.533 -14.8763 -14.2149 -13.6988 -15.1444 -18.3442 -19.1888 
-11.938 -15.0325 -17.134 -19.2878 -17.4988 -17.6437 -18.6302 -21.4662 -23.0607 
-2.4265 -3.074 -3.966 -3.1435 -4.7015 -3.9225 -6.5175 0 -3.0695 -2.4945 -1.4985 -4.4285 -1.934 -4.628 -4.743 
-4.605 -6.5585 -6.0375 -6.5475 -6.891001 -9.3625 -6.5175 -3.0695 -4.2085 -3.9315 -4.759 -6.026 -5.9605 -4.7515 
-8.376 -8.2515 -8.568501 -8.055 -12.548 -9.3625 -8.68 -4.2085 -5.6565 -7.105 -6.716001 -9.5245 -5.9845 
-9.283001 -10.8439 -10.172 -13.8256 -12.548 -11.6486 -9.476501 -5.6565 -8.3265 -8.183001 -10.1105 -9.537001 
-11.9056 -12.4474 -16.0786 -13.8256 -14.8341 -12.4451 -10.515 -8.3265 -9.1245 -11.7551 -10.117 
-1.4985 -4.1865 -4.241 -4.4165 -3.9665 -3.966 -3.1435 -3.2015 -2.5195 -1.4985 -4.4285 -6.5175 -3.074 
-5.177 -7.936501 -6.8265 -7.6835 -8.2685 -6.0375 -6.051 -5.1835 -3.1695 -4.759 -8.337 -8.981001 
-8.515501 -8.363501 -7.692501 -12.4777 -9.204 -9.145 -7.4895 -5.708 -6.93 -8.452001 -11.3595 
-8.714001 -8.436501 -12.4949 -13.4132 -12.8795 -10.143 -7.841 -8.508 -9.5985 -11.5523 
-8.7475 -13.6999 -13.4304 -17.0887 -13.8775 -10.475 -9.852 -11.7977 -13.1092 
-4.1865 -4.241 -4.4165 -3.9665 -3.074 -3.966 -3.5515 -2.356 -12.16972 -3.1385 
-7.936501 -6.8265 -7.6835 -7.0725 -6.5585 -8.2095 -5.8735 -15.43652 -15.30822 
-8.363501 -7.692501 -10.6735 -10.259 -11.3926 -11.0295 -19.67302 -18.57502 
-8.436501 -10.733 -13.86 -15.3093 -14.2126 -24.82902 -22.81152 
-11.938 -13.9195 -18.9103 -18.1293 -28.01212 -27.96752 
