-4.759 
n/a 
n/a 
n/a 
n/a 
-4.759 
n/a 
n/a 
n/a 
n/a 
-4.759 
n/a 
n/a 
n/a 
n/a 
-4.759 
n/a 
n/a 
n/a 
n/a 
-2.4265 -2.186 -4.0955 -1.4985 -3.826 -4.126 -1.756 -3.8665 -4.5535 -1.7565 -4.361 -5.296 0 
-3.292 -4.968 -5.571 -4.4325 -6.2925 -5.5705 -5.108 -8.797501 -5.315 -5.442 -7.0555 -5.296 
-5.873 -6.1475 -8.416 -6.541 -8.085 -9.883 -10.341 -9.794001 -9.981001 -8.059501 -7.0555 
-7.163 -8.7745 -9.6715 -8.368501 -12.6171 -15.116 -11.3375 -14.3668 -12.6299 -8.059501 
-9.945001 -9.84 -11.6754 -12.9238 -17.8501 -16.1125 -15.9103 -17.0157 -12.6299 
-2.4265 -4.4995 -3.5455 -4.361 -8.814501 -2.95 
-5.4455 -6.654 -7.0065 -9.224501 -12.0519 
-8.080501 -9.6885 -13.1312 -12.6485 
-11.2478 -16.078 -16.5552 
-17.6373 -19.502 
-4.62 -3.5455 -5.633 -2.3615 -4.4995 -2.5045 -4.4915 -4.313 
-7.622001 -7.102 -7.907001 -5.593 -6.276 -6.913501 -8.9505 
-11.3845 -9.002501 -10.2135 -7.4965 -10.238 -12.0757 
-13.285 -11.3654 -12.6206 -11.7101 -15.4002 
-15.6479 -13.7725 -16.8342 -16.8723 
-7.3565 -4.39 -2.186 -3.958 -9.7395 -4.126 
-12.2073 -6.238 -5.228 -14.7555 -14.0205 
-14.0553 -10.2335 -16.7261 -19.0365 
-18.0508 -21.8746 -21.0071 
-29.6919 -26.1556 
