-4.759 
n/a 
n/a 
n/a 
n/a 
-4.759 
n/a 
n/a 
n/a 
n/a 
-4.759 
n/a 
n/a 
n/a 
n/a 
-4.759 
n/a 
n/a 
n/a 
n/a 
-8.004001 -2.186 -1.4985 -3.0835 -5.0955 -3.0695 -3.6675 -4.9435 -2.0935 -4.311 -5.629 -4.7325 -1.934 -4.317 -5.213 0 
-10.1385 -3.339 -3.535 -8.129001 -6.7165 -6.2235 -8.732 -7.09 -6.725 -6.754001 -6.0285 -6.443 -6.201 -7.5465 -5.213 
-11.2915 -4.8925 -8.291 -9.8105 -10.103 -11.9292 -11.1187 -12.5299 -10.028 -6.869501 -7.856 -11.4428 -9.5445 -7.5465 
-12.845 -9.4165 -9.8335 -13.197 -15.9443 -14.3159 -16.5586 -15.8329 -10.1355 -8.9005 -13.181 -14.7863 -9.5445 
-17.369 -11.1212 -13.22 -19.0383 -18.331 -19.7558 -19.8616 -15.9404 -12.1665 -14.4949 -16.5245 -14.7863 
-2.9805 -2.7415 -1.4985 -3.0835 -3.3195 -3.819 -2.5195 -3.994 -5.213 -1.7695 -4.9435 -3.3195 -1.7695 -12.16972 -4.7325 0 
-4.004 -4.063 -3.535 -6.7605 -6.1505 -6.6225 -6.21 -8.1675 -6.9025 -7.6825 -7.6065 -5.492001 -14.92142 -16.90222 -4.7325 
-5.390501 -5.12 -7.463 -8.7395 -8.641001 -10.543 -10.5535 -10.1385 -13.3253 -9.6485 -9.894501 -19.32772 -19.65392 -16.90222 
-6.419001 -8.483001 -9.003501 -11.6578 -12.7261 -14.8865 -12.5245 -17.0701 -15.2913 -12.1593 -23.79162 -24.06022 -19.65392 
-9.8985 -9.814 -12.52 -15.7429 -17.0696 -16.8575 -19.4561 -19.0361 -17.8021 -26.05642 -28.52412 -24.06022 
-2.9805 -2.7415 -1.4985 -3.0835 -5.0955 -2.5195 -4.317 -5.213 -3.0695 -4.96 -3.8735 -2.0935 -4.311 -10.9935 -4.7325 0 
-4.004 -4.063 -3.535 -8.129001 -7.219001 -6.868 -7.5465 -8.0035 -7.2725 -9.233 -6.0275 -6.725 -16.6105 -16.6664 -4.7325 
-5.390501 -5.12 -8.291 -9.828001 -12.0185 -9.852501 -10.5865 -12.4737 -11.6581 -11.5812 -11.4924 -19.3559 -22.2834 -16.6664 
-6.419001 -8.823 -9.854501 -14.7409 -15.003 -12.9551 -15.0567 -16.8593 -14.0063 -17.0461 -24.1233 -25.0288 -22.2834 
-9.446501 -10.185 -14.7718 -17.7254 -18.1056 -17.4253 -19.4423 -19.2075 -19.4712 -29.677 -29.7962 -25.0288 
-2.5195 -3.994 -3.59 -1.4985 -3.0835 -5.0955 -4.96 -4.311 -5.629 -12.16972 -12.16972 -2.186 -8.004001 0 
-6.21 -7.3915 -5.348001 -3.535 -8.129001 -9.372501 -10.841 -6.754001 -19.07832 -24.33944 -14.35572 -10.7495 -8.004001 
-9.741 -10.19 -7.429501 -8.291 -13.0838 -15.5457 -13.284 -21.37692 -31.24804 -26.52544 -22.91922 -10.7495 
-12.8585 -12.2715 -12.2793 -13.611 -19.257 -17.9887 -27.90692 -33.54664 -33.43404 -35.08894 -22.91922 
-14.94 -17.1213 -17.5993 -19.7842 -21.7 -32.61162 -40.07664 -35.73264 -41.99754 -35.08894 
