-4.759 
n/a 
n/a 
n/a 
n/a 
-4.759 
n/a 
n/a 
n/a 
n/a 
-4.759 
n/a 
n/a 
n/a 
n/a 
-4.759 
n/a 
n/a 
n/a 
n/a 
-1.4985 -5.2815 -5.4015 -2.5195 -3.5015 -1.7695 -3.5015 -2.5195 -4.8565 -1.7695 -5.659 0 
-6.734 -9.834501 -5.6195 -6.413 -4.5585 -5.0115 -5.965 -7.931001 -6.5775 -7.992001 -5.659 
-11.7012 -10.48 -8.717 -6.473 -6.4445 -8.466001 -12.0715 -8.234501 -13.3732 -7.992001 
-12.3467 -13.5775 -8.729 -6.478 -8.6335 -14.7391 -12.375 -15.8578 -13.3732 
-15.4442 -13.5895 -8.7305 -8.645 -14.9484 -15.0426 -19.9983 -15.8578 
-4.4545 -6.1825 -1.934 -3.948 -4.418 -2.356 -4.1755 -4.641 0 -1.756 -4.8855 -2.5195 -3.3715 -4.8565 -1.7695 -3.135 -6.314 -4.8565 0 
-8.067 -7.3925 -5.024 -6.665 -6.289001 -7.414001 -8.2075 -4.641 -1.756 -7.022501 -5.0115 -5.5385 -7.804501 -6.5775 -4.779 -9.670501 -9.040501 -4.8565 
-9.384501 -11.0829 -7.1415 -8.8345 -10.513 -11.4336 -8.2075 -7.472 -7.022501 -7.886001 -9.009501 -9.717 -9.774501 -9.5765 -11.6195 -12.6916 -9.040501 
-13.3629 -13.2004 -9.203 -13.3201 -14.5326 -11.4336 -11.3641 -13.2557 -7.886001 -12.0312 -13.3044 -12.1298 -12.8293 -16.5574 -14.6406 -12.6916 
-15.4804 -15.2619 -13.8892 -17.3397 -14.5326 -14.5902 -17.1478 -14.1192 -12.0312 -16.3261 -15.7172 -15.1846 -19.8102 -19.5785 -14.6406 
-5.2815 -5.4015 -2.5195 -3.5015 -1.7695 -3.5015 -4.8855 -2.5195 -3.849 -4.3225 -1.7695 -3.7375 -4.144 0 
-9.834501 -5.6195 -6.413 -4.5585 -5.0115 -8.6715 -5.0115 -5.6595 -8.361501 -6.68 -6.878001 -7.857 -4.144 
-10.48 -8.717 -6.473 -6.4445 -9.9915 -8.712 -7.956001 -9.82 -9.693001 -10.66 -9.9455 -7.857 
-13.5775 -8.729 -6.478 -10.0005 -10.0515 -11.7521 -10.5035 -9.981 -13.8576 -13.7275 -9.9455 
-13.5895 -8.7305 -10.0065 -10.062 -13.0916 -14.2996 -10.5795 -14.198 -16.9251 -13.7275 
-5.015 -4.4605 -4.636 -4.742 0 -4.8855 -2.5195 -3.849 -4.8565 -1.7565 -3.4715 -3.543 -3.158 -1.7695 -3.689 -3.1575 -1.8085 -5.659 0 
-7.4255 -7.709001 -6.1525 -4.742 -4.8855 -5.0115 -5.6595 -7.3885 -6.3105 -4.699 -6.5005 -4.8305 -4.9495 -5.726501 -4.168 -4.4255 -7.166 -5.659 
-10.0065 -9.053 -6.1525 -7.7475 -5.0115 -7.956001 -8.7915 -8.452001 -7.5235 -6.6255 -7.535501 -6.396501 -8.118 -5.935501 -5.3315 -8.2685 -7.166 
-10.248 -9.053 -8.583 -8.2415 -7.956001 -9.746501 -10.298 -9.852501 -8.428 -7.6165 -8.827001 -8.974001 -8.128501 -7.377501 -8.4165 -8.2685 
-10.248 -10.328 -8.613 -10.1465 -9.746501 -10.4785 -10.436 -10.4625 -9.021001 -8.957001 -10.223 -8.983001 -9.687 -9.7945 -8.4165 
