-4.759 
n/a 
n/a 
n/a 
n/a 
-4.759 
n/a 
n/a 
n/a 
n/a 
-4.759 
n/a 
n/a 
n/a 
n/a 
-4.759 
n/a 
n/a 
n/a 
n/a 
-2.9805 -3.687 -3.091 -3.7095 -2.5045 -1.8085 -4.5055 -1.756 -4.3195 -1.8085 -5.322 0 
-5.572001 -6.075 -6.539001 -5.492 -3.3625 -6.333 -6.2255 -5.563 -5.0655 -6.482 -5.322 
-6.769 -9.814 -6.9015 -6.09 -7.78 -7.4775 -9.492001 -6.154 -7.9105 -6.482 
-10.6972 -10.6449 -7.23 -9.925 -8.8195 -10.1805 -10.0455 -8.646 -7.9105 
-11.5281 -10.9734 -10.248 -10.5785 -11.5603 -10.7245 -12.6427 -8.646 
-2.9805 -3.687 -1.4985 -5.4195 -1.7565 -4.5055 -1.756 -4.0875 -7.946001 -4.485 -3.3435 
-5.572001 -5.053 -5.807 -6.18 -6.0775 -6.2255 -5.3545 -13.2019 -12.8674 -7.258 
-6.2625 -8.824 -6.404 -10.2865 -7.9355 -9.6745 -14.7587 -18.1233 -15.6404 
-9.5765 -9.683001 -10.341 -12.1445 -11.6317 -19.1745 -19.6801 -20.8963 
-10.4695 -13.7598 -12.199 -15.8407 -21.1317 -24.0959 -22.4531 
-5.576 -4.1885 -3.3435 -1.756 -3.9355 -3.091 -9.394 
-11.5313 -9.1665 -4.576 -5.319 -6.34 -10.2985 
-16.5093 -10.1685 -7.3945 -7.799 -14.1059 
-17.5113 -13.2266 -9.91 -15.5811 
-20.5694 -15.7421 -17.6921 
-2.9805 -3.251 -3.687 -3.091 -3.5855 -1.7565 -1.8085 -4.5055 -1.756 -4.657 -2.5045 -1.8085 -4.1885 0 
-4.429 -5.802 -6.075 -6.529 -5.122 -3.2595 -6.333 -6.2255 -6.066 -6.707 -3.3625 -6.245 -4.1885 
-6.677001 -7.275001 -10.2035 -7.924 -6.4855 -7.382 -7.4775 -9.752001 -8.051001 -7.282001 -7.4195 -6.245 
-7.658501 -11.4947 -11.5985 -10.057 -9.774 -8.575001 -10.213 -11.9578 -8.432 -10.3545 -7.4195 
-11.98 -12.8897 -13.7315 -13.3455 -11.2088 -11.4843 -12.4188 -12.3388 -11.5789 -10.3545 
