-4.759 
n/a 
n/a 
n/a 
n/a 
-4.759 
n/a 
n/a 
n/a 
n/a 
-4.759 
n/a 
n/a 
n/a 
n/a 
-4.759 
n/a 
n/a 
n/a 
n/a 
-1.4985 -3.758 -2.0935 -5.1165 -6.097 -2.7415 -2.871 -1.7565 -1.4985 -3.685 -1.7565 -3.299 -3.6615 -3.5965 -1.756 -2.915 -3.433 -2.9705 -3.9535 -5.214 -2.5045 -4.239 0 -3.9585 -2.356 -3.676 -2.229 -4.293 -3.4185 -3.734 -6.2715 -2.229 -3.5965 -3.6215 -3.3825 -3.772 
-4.976501 -5.47 -7.5795 -12.2969 -8.962501 -4.8915 -3.5385 -2.4195 -4.771501 -4.5825 -4.7685 -4.9125 -6.913 -5.0925 -4.516 -4.682 -6.001 -6.277 -8.375501 -6.337501 -8.048 -4.239 -3.9585 -4.2035 -6.3015 -4.593 -5.551001 -7.543 -8.033 -8.33 -8.1945 -5.7095 -7.59 -7.705501 -5.908 
-6.43 -11.8694 -15.1957 -15.1624 -11.1557 -5.0085 -3.7675 -5.2285 -5.532001 -8.696 -6.1495 -7.0835 -8.621 -6.3325 -5.809 -7.791 -9.527 -11.3229 -10.128 -10.4635 -8.048 -8.8395 -4.2035 -8.541 -6.7175 -9.152 -9.238501 -12.7273 -12.7978 -11.2222 -11.9548 -8.733001 -11.674 -10.621 
-13.4992 -19.4856 -18.0612 -17.3556 -11.2727 -5.2005 -8.137 -6.4635 -10.1765 -10.4732 -8.202001 -8.6595 -10.4114 -7.29 -8.6385 -11.5286 -14.6563 -14.4305 -17.3519 -11.8943 -12.9055 -9.632501 -8.541 -8.87 -11.6529 -13.3469 -15.0266 -17.4921 -15.69 -14.9825 -14.9783 -13.1836 -14.5895 
-21.1154 -22.3511 -20.2544 -17.4726 -11.4647 -9.743 -9.563001 -11.9396 -11.8105 -12.5257 -9.882501 -10.5585 -11.3689 -10.396 -12.4425 -16.6579 -17.7639 -20.6948 -17.3519 -17.1086 -13.6985 -14.0154 -8.87 -13.8972 -15.8478 -19.135 -19.7914 -20.3843 -19.4503 -18.006 -19.4289 -16.0991 
-5.1165 -1.7695 -3.676 -2.229 -7.4705 -3.4185 -1.7695 -3.5965 -3.6215 -1.934 -4.239 -3.299 -3.772 -2.0935 -3.5965 -1.756 -2.915 -3.433 -1.7695 -3.5035 -1.7565 -2.791 
-7.772 -5.5605 -4.593 -8.6625 -11.5492 -5.495 -5.6105 -7.59 -5.679501 -5.464 -7.897 -8.179001 -5.2215 -5.545 -5.0925 -4.516 -4.682 -5.0945 -5.7555 -5.0195 -4.4165 
-11.877 -6.135 -12.4009 -13.8966 -13.6257 -10.533 -10.19 -9.347501 -8.528001 -9.492001 -13.0808 -9.915501 -9.394501 -7.264 -6.3325 -5.809 -6.7155 -8.947001 -7.876 -9.421501 
-12.4515 -14.4545 -17.635 -15.9731 -18.6637 -15.5093 -11.9475 -12.3108 -12.7224 -14.7284 -14.8173 -14.0885 -11.1919 -8.107 -7.29 -7.721001 -10.2035 -11.7381 -12.573 
-20.771 -19.6886 -19.7115 -21.0111 -23.64 -17.2668 -14.9108 -16.5052 -17.9588 -16.4649 -18.9903 -15.8859 -12.0349 -9.4055 -9.3675 -11.3736 -13.3038 -16.4351 
-1.4985 -4.6545 -1.7695 -3.5185 -5.1165 -3.8925 -2.7415 -3.7855 -2.3345 -3.4975 -3.8495 -4.293 -3.4185 -3.734 -6.322001 -2.229 -3.5965 -4.293 -3.6215 0 -1.934 -4.239 -3.9535 -2.3345 -3.299 -3.6615 -4.237 -1.756 -2.915 -3.433 -3.5035 0 -5.214 -3.402 
-5.422501 -6.246 -4.134 -6.924 -8.125501 -7.0895 -5.209001 -5.0075 -5.741 -6.191501 -7.664001 -7.543 -8.033 -10.4595 -8.089001 -5.7095 -9.031 -7.9445 -3.6215 -1.934 -5.464 -8.7915 -5.226501 -5.8 -4.9125 -5.922501 -5.48 -4.516 -4.682 -6.336 -3.5035 -3.482 -7.1785 
-7.5235 -8.8175 -6.931 -11.9408 -9.536 -10.254 -6.337501 -8.5345 -8.3785 -11.5158 -10.7335 -12.7273 -14.9273 -12.2265 -11.8795 -11.5754 -13.1177 -7.9445 -5.679501 -5.464 -9.222 -10.375 -8.4575 -7.2345 -5.929 -6.981501 -6.722 -5.809 -7.181 -6.336 -6.803 -6.2135 
-10.0185 -11.7723 -12.3382 -13.3513 -12.8789 -11.3825 -10.041 -10.7495 -14.6328 -14.5853 -15.9178 -19.6216 -16.6943 -16.017 -17.7454 -15.6621 -13.1177 -10.028 -8.528001 -9.222 -10.75 -13.606 -11.0362 -9.046 -7.0125 -9.509501 -7.21 -8.507001 -7.181 -10.6625 -10.3965 
-12.9783 -17.1795 -13.7487 -16.6942 -14.0074 -15.086 -12.256 -17.0038 -17.7023 -19.7696 -22.8121 -21.3886 -20.4848 -21.8829 -21.8321 -15.6621 -15.2012 -12.8765 -12.4524 -10.75 -13.981 -16.1847 -12.8477 -9.922501 -9.569 -9.952001 -10.1265 -8.507001 -12.0709 -14.256 
-5.1165 -4.1865 -3.758 -2.186 -2.871 -1.7565 -1.4985 -4.945 -3.8465 -2.0935 -6.986001 -3.4185 -7.1545 0 -1.934 -4.239 0 -4.6895 -3.772 -2.0935 -3.5965 -1.756 -4.0045 -3.685 -4.4895 -5.214 0 
-10.564 -7.061 -5.6355 -4.247 -3.5385 -2.4195 -6.183001 -8.199 -5.729 -9.5695 -10.586 -11.5048 -7.1545 -1.934 -5.464 -4.239 -4.6895 -9.049001 -5.2215 -5.545 -5.0925 -5.1655 -7.844501 -7.089 -9.080501 -3.482 
-13.4385 -10.316 -7.8455 -4.411 -3.7675 -7.0635 -9.4575 -9.644 -13.7652 -13.3237 -19.0671 -11.5048 -9.273001 -5.464 -5.464 -8.802501 -9.049001 -9.769501 -9.394501 -7.264 -7.098001 -9.0245 -11.5927 -10.7255 -8.776 
-16.6935 -12.526 -8.031 -4.5655 -8.897 -10.1145 -10.9945 -17.8 -17.5194 -21.8048 -19.0671 -13.6233 -12.9766 -5.464 -10.411 -13.4192 -9.769501 -14.5411 -11.1919 -8.4315 -12.0838 -13.3903 -15.0537 -10.55 
-18.9035 -12.7115 -8.26 -9.697001 -12.1614 -11.6515 -19.1505 -21.5542 -26.0005 -21.8048 -21.1856 -17.3269 -12.9766 -10.411 -15.0277 -14.1397 -14.5411 -16.3385 -12.3594 -14.3203 -16.4496 -16.8513 -15.0537 
