-4.759 
n/a 
n/a 
n/a 
n/a 
-4.759 
n/a 
n/a 
n/a 
n/a 
-4.759 
n/a 
n/a 
n/a 
n/a 
-4.759 
n/a 
n/a 
n/a 
n/a 
-3.228 -4.856 -4.4995 -3.436 -3.916 -3.748 -3.277 -3.034 -2.664 -5.821 -3.6955 -1.756 -4.017 -3.222 -1.4985 -3.995 
-9.1115 -8.676001 -6.9715 -8.118501 -6.216001 -5.8405 -5.8685 -5.155 -6.6455 -9.9645 -5.1395 -5.495501 -5.496 -3.7835 -4.712 
-13.1573 -10.4345 -12.1272 -10.298 -7.144001 -8.464001 -8.293 -8.5325 -10.7325 -11.4085 -8.8105 -7.219501 -6.0185 -6.7535 
-14.9158 -16.3466 -14.3067 -10.4685 -10.0405 -11.0855 -11.8099 -13.1119 -12.1765 -15.0795 -9.854501 -7.665501 -9.078001 
-20.8279 -18.5261 -14.4772 -13.343 -12.7274 -14.6024 -16.3893 -14.5559 -15.8475 -16.1235 -10.6643 -10.5855 
-3.826 -4.856 -4.548 -3.436 -3.916 -3.748 -3.277 -3.034 -1.8085 -3.6135 -4.689 -3.757 -4.7225 -2.264 -3.995 
-7.7885 -8.3125 -6.651501 -8.118501 -6.216001 -5.8405 -5.8685 -4.4665 -4.4545 -8.6945 -7.486 -8.201 -6.094501 -4.972 
-11.6512 -10.238 -10.733 -10.298 -7.144001 -8.464001 -7.536 -7.383 -9.341001 -11.7459 -12.887 -9.6785 -9.267 
-13.5767 -14.4363 -12.9125 -10.4685 -10.0405 -10.0125 -10.304 -12.6121 -12.3688 -17.1469 -14.3645 -13.0704 
-17.775 -16.6158 -13.083 -13.343 -11.6544 -12.7805 -15.5331 -15.6399 -17.7698 -18.6244 -17.7564 
-3.228 -3.916 -3.748 -3.436 -3.013 -1.4985 -3.3715 -3.974 -1.7565 -3.135 -3.5185 -2.0935 -2.5685 -4.9225 -4.649 0 
-7.9915 -6.216001 -6.9355 -7.1525 -4.488 -4.859 -8.943001 -4.613 -4.6765 -8.179001 -6.426 -3.987 -6.688 -10.6215 -4.649 
-8.823501 -9.826 -11.3162 -8.7495 -8.179501 -10.185 -10.3105 -7.4115 -10.316 -10.674 -8.625 -7.532001 -13.0838 -10.6215 
-14.0667 -14.2533 -12.9132 -12.536 -13.6579 -11.5525 -13.109 -13.274 -12.811 -12.873 -12.4392 -14.099 -13.0838 
-18.494 -15.8503 -16.6997 -18.0144 -15.0254 -14.351 -18.9715 -15.769 -15.01 -16.6872 -19.0062 -14.099 
-2.0935 -1.4985 -3.228 -4.555 -4.4825 -3.436 -3.916 -7.883 0 -2.871 -3.6135 -4.3075 -4.7225 -3.539 -1.7695 -1.4985 -3.995 
-2.9725 -3.9575 -8.484 -8.092501 -6.3925 -8.118501 -10.862 -7.883 -2.871 -5.7545 -6.565001 -8.2805 -6.438001 -4.574 -2.7955 -4.712 
-5.1675 -8.7685 -12.3021 -10.5535 -11.5478 -15.4521 -10.862 -11.1415 -5.7545 -9.453501 -10.322 -9.743501 -7.942 -5.179 -6.133 
-9.958501 -12.6452 -14.7631 -15.7088 -18.8814 -15.4521 -14.1205 -14.025 -9.453501 -13.3081 -11.785 -11.4767 -8.430501 -7.636001 
-13.8352 -15.1062 -19.9184 -23.0424 -18.8814 -18.7106 -17.004 -17.724 -13.3081 -14.7711 -13.5182 -11.9652 -9.3505 
