-4.759 
n/a 
n/a 
n/a 
n/a 
-4.759 
n/a 
n/a 
n/a 
n/a 
-4.759 
n/a 
n/a 
n/a 
n/a 
-4.759 
n/a 
n/a 
n/a 
n/a 
-3.307 -4.3755 -1.7565 -3.8825 -6.3215 -2.186 -4.4715 -4.0835 -2.3345 -10.2885 0 
-7.175 -4.5345 -6.153501 -10.66 -8.5 -5.7085 -7.876501 -5.376501 -12.9536 -10.2885 
-7.437 -8.9505 -13.3674 -12.8385 -12.3921 -8.743501 -9.000501 -16.6736 -12.9536 
-12.3826 -16.4162 -15.5459 -16.7306 -15.4271 -10.4505 -20.3468 -16.6736 
-19.8483 -18.5947 -19.438 -19.7656 -17.1341 -21.7968 -20.3468 
-3.307 -3.355 -1.7565 -3.8825 -6.3215 -2.7415 -4.4715 -4.0835 -2.3345 -1.4985 -10.2885 0 
-6.9475 -3.725 -6.153501 -10.66 -9.058001 -6.1835 -7.876501 -5.376501 -3.233 -10.985 -10.2885 
-7.266 -8.205501 -13.3674 -13.3965 -12.6906 -8.8405 -9.000501 -6.239501 -12.9875 -10.985 
-12.0141 -15.7558 -16.1039 -17.0291 -15.3476 -9.814 -9.699501 -16.4124 -12.9875 
-19.5644 -18.4923 -19.7365 -19.6861 -16.3211 -10.429 -19.8724 -16.4124 
-3.1015 -1.8085 -3.4795 -6.3215 -2.186 -4.954 -2.3345 -8.504001 
-5.0505 -6.392 -10.281 -8.5 -6.504001 -5.698 -10.6735 
-6.6635 -13.4693 -12.4595 -13.1876 -6.782001 -14.7118 
-14.0678 -15.6478 -17.1471 -13.4656 -15.9622 
-16.2463 -20.3354 -17.4251 -22.6458 
-3.8825 -3.193 -6.3215 -2.229 -3.7745 -3.892 -2.7415 -4.834 -4.4715 -2.3345 -10.128 0 
-5.601 -9.925501 -8.934501 -5.7545 -6.0365 -6.3605 -5.984 -8.4635 -6.396501 -12.7931 -10.128 
-12.5441 -12.5385 -12.7058 -7.8415 -8.625501 -9.223001 -9.422501 -9.626 -17.2569 -12.7931 
-15.1571 -16.3098 -14.7928 -10.2035 -11.5924 -12.7301 -10.336 -20.567 -17.2569 
-18.9284 -18.3968 -17.1548 -13.1704 -15.0995 -13.6436 -21.277 -20.567 
