-4.759 
n/a 
n/a 
n/a 
n/a 
-4.759 
n/a 
n/a 
n/a 
n/a 
-4.759 
n/a 
n/a 
n/a 
n/a 
-4.759 
n/a 
n/a 
n/a 
n/a 
-3.995 -4.4525 -2.186 -3.135 -4.0305 -1.7565 -6.947001 -10.128 -3.8725 -4.4525 
-8.449 -6.1875 -5.2115 -5.254001 -4.6115 -10.411 -18.4902 -14.2001 -7.713 
-10.064 -9.918001 -6.6885 -5.316501 -13.8906 -21.9542 -22.5623 -18.0406 
-13.9029 -10.423 -6.691 -14.996 -25.4338 -26.0263 -26.4028 
-14.4079 -10.436 -16.5391 -26.5392 -29.5059 -29.8668 
-1.4985 -5.101 -4.4525 -1.7565 -3.995 -3.7965 -1.4985 -3.994 -4.4525 0 
-5.9925 -10.2755 -5.591001 -5.423 -8.081 -4.8165 -5.212501 -8.821 -4.4525 
-11.6338 -10.631 -9.076501 -9.6245 -9.3675 -7.736001 -9.574 -8.821 
-11.9893 -14.1165 -13.4106 -10.413 -12.2974 -12.7383 -9.574 
-15.4748 -18.4506 -14.1991 -13.3429 -17.2997 -12.7383 
-5.1845 -4.245 -2.8645 -5.2025 -2.0935 -3.2295 -3.2495 -4.6945 -3.277 0 
-7.991 -6.6265 -6.4345 -6.3855 -4.9135 -5.5675 -5.97 -5.913001 -3.277 
-9.989 -9.731001 -6.9525 -7.85 -6.436 -7.2375 -6.7335 -5.913001 
-13.1953 -10.137 -8.135 -9.179501 -8.1815 -7.718 -6.7335 
-13.6013 -11.4333 -9.402 -10.0445 -8.23 -7.718 
-1.756 -2.985 -4.257 -2.186 -4.668 -4.888 -2.356 -5.749 -4.4605 -3.9875 -1.4985 -3.995 -2.229 -5.637 0 
-4.2025 -6.995 -6.1085 -5.629 -7.318501 -5.3445 -7.391001 -8.545 -8.2155 -4.653 -4.712 -5.324 -6.962 -5.637 
-8.353001 -8.396501 -9.3855 -8.3675 -8.688001 -9.975 -10.523 -12.4724 -8.713 -7.506001 -5.586 -7.5035 -6.962 
-9.261001 -10.4265 -10.3355 -9.1685 -13.4299 -13.2046 -14.4504 -12.9699 -11.6224 -8.529 -7.6355 -7.5035 
-10.648 -10.716 -10.6585 -14.0158 -16.6595 -17.132 -14.9479 -15.8793 -12.6454 -9.885 -7.6355 
