-4.759 
n/a 
n/a 
n/a 
n/a 
-4.759 
n/a 
n/a 
n/a 
n/a 
-4.759 
n/a 
n/a 
n/a 
n/a 
-4.759 
n/a 
n/a 
n/a 
n/a 
-1.4985 -3.5085 -3.264 -1.7565 -2.5685 -1.4985 -4.744 -4.4155 -3.7515 -2.742 -2.489 -4.347 -7.7175 0 
-4.4755 -4.98 -3.6125 -3.938 -3.7015 -5.761001 -9.175501 -5.496 -6.0975 -3.301 -6.113 -9.2955 -6.1295 
-5.271 -5.0055 -6.58 -4.8455 -7.4435 -9.722501 -10.042 -7.5325 -6.636 -6.6245 -9.9805 -8.3135 
-5.2885 -7.7205 -7.810501 -8.478001 -11.7772 -10.747 -12.2439 -7.9645 -9.6645 -10.575 -10.0165 
-7.862501 -9.1905 -11.8608 -13.0243 -12.8017 -12.9489 -12.6759 -11.1158 -13.7886 -10.48 
-3.7965 -2.5685 -5.854 -4.744 -5.538 -7.7175 0 
-5.4915 -9.1105 -10.8025 -10.3415 -10.5525 -6.1295 
-12.6067 -14.284 -16.4 -14.309 -9.5055 
-17.7802 -19.8815 -20.3675 -14.309 
-23.3777 -23.849 -20.3675 
-3.0415 -3.5005 -2.5685 -1.4985 -4.744 -3.7515 -1.4985 -3.5085 -4.744 -2.4945 -7.7175 
-7.2985 -5.532001 -3.7015 -5.761001 -8.897001 -4.6795 -4.4755 -9.254 -6.35 -9.698001 
-9.369 -6.557 -7.4435 -9.633 -9.6695 -7.692501 -10.389 -10.9506 -13.8391 
-10.0655 -10.5296 -11.6877 -10.6097 -12.8707 -13.7544 -12.0856 -18.4397 
-14.0381 -14.7738 -12.6644 -13.8109 -18.9326 -15.451 -19.5747 
-2.3345 -4.996 -2.5685 -1.4985 -3.7515 -4.744 0 -1.4985 -3.5085 -4.744 -2.742 -2.489 -4.347 -7.7175 
-5.761 -6.9515 -3.7015 -4.4675 -9.089001 -4.744 -1.4985 -4.4755 -9.254 -6.979501 -3.301 -6.113 -9.2955 
-7.5325 -7.4635 -6.1875 -10.275 -9.089001 -6.497001 -4.4755 -10.389 -11.5801 -7.5695 -6.6245 -9.9805 
-8.032001 -9.146501 -12.4202 -10.275 -10.9704 -9.6815 -10.389 -12.7151 -12.1701 -11.208 -10.575 
-10.0065 -15.5318 -12.4202 -12.1564 -14.1549 -15.7924 -12.7151 -13.3051 -15.8086 -15.0635 
