-4.759 
n/a 
n/a 
n/a 
n/a 
-4.759 
n/a 
n/a 
n/a 
n/a 
-4.759 
n/a 
n/a 
n/a 
n/a 
-4.759 
n/a 
n/a 
n/a 
n/a 
-1.934 -1.4985 -3.5085 -3.893 -1.7565 -3.4715 0 -6.6385 0 -2.186 -4.4505 -3.4715 -1.756 -4.9055 0 -2.186 -4.554 -3.4715 
-2.6125 -4.4755 -5.4435 -4.1785 -4.699 -3.4715 -5.886001 -5.886001 -2.186 -7.3575 -5.952 -4.7575 -6.319 -4.0825 -2.186 -6.006001 -6.396501 
-6.026 -5.6365 -5.686 -6.1655 -4.699 -9.611501 -5.886001 -9.0845 -7.3575 -8.2135 -7.206 -9.378 -6.3075 -6.914001 -6.006001 -8.455501 
-7.1595 -5.819 -7.5205 -6.1655 -10.759 -9.611501 -9.0845 -10.195 -8.2135 -9.139501 -11.2375 -8.831 -8.7795 -11.1089 -8.455501 
-7.235 -7.547 -7.5205 -12.9509 -10.759 -13.0026 -10.195 -10.212 -9.139501 -11.7284 -11.4279 -11.8258 -13.1384 -13.8446 
-3.5085 -3.4715 -6.6385 0 -1.934 -4.4505 -3.4715 -1.756 -2.8965 -4.9055 0 -4.554 -3.4715 0 
-6.756001 -10.211 -5.886001 -1.934 -5.8895 -5.952 -4.7575 -3.751 -7.6425 -4.0825 -4.554 -6.396501 -3.4715 
-13.6832 -9.611501 -8.5445 -5.8895 -7.186501 -7.206 -6.688 -9.26 -7.764501 -8.257 -6.396501 -6.396501 
-13.6832 -12.4626 -12.9739 -7.186501 -8.196501 -9.1105 -13.1004 -9.319 -12.2042 -11.5283 -6.396501 
-16.5343 -16.892 -14.5345 -8.196501 -9.9055 -15.7225 -13.1004 -13.8651 -15.4755 -11.5283 
-3.5085 -3.4715 -6.6385 0 -4.4505 -3.4715 -1.756 -4.5335 -4.9055 0 -4.554 -3.4715 0 
-6.756001 -10.211 -5.886001 -4.4505 -5.952 -4.7575 -6.4115 -8.554501 -4.0825 -4.554 -6.396501 -3.4715 
-13.6832 -9.611501 -10.265 -5.952 -7.206 -8.754001 -9.9835 -8.4265 -8.257 -6.396501 -6.396501 
-13.6832 -14.1831 -12.2275 -7.206 -11.5705 -11.7925 -10.8005 -13.1084 -11.5283 -6.396501 
-18.2548 -16.1456 -13.89 -11.5705 -15.3626 -12.5461 -15.4824 -16.3797 -11.5283 
-1.934 -3.5085 -3.4715 -6.6385 0 -2.186 -6.067 -3.4715 -3.098 -4.5335 -4.9055 0 -2.186 -4.554 -3.4715 
-5.161 -6.756001 -10.211 -5.886001 -2.186 -8.146501 -6.9975 -6.545 -6.6135 -8.554501 -4.0825 -2.186 -6.006001 -6.396501 
-8.509501 -13.6832 -9.611501 -9.0845 -8.146501 -10.389 -10.5975 -10.6089 -11.9545 -8.4265 -6.914001 -6.006001 -8.455501 
-15.6875 -13.6832 -13.0026 -15.5014 -10.389 -13.989 -14.6614 -15.9499 -11.9545 -9.818001 -11.1089 -8.455501 
-15.6875 -17.0743 -19.4195 -17.7439 -13.989 -18.0529 -20.0024 -15.9499 -13.346 -14.2241 -13.8446 
