-4.759 
n/a 
n/a 
n/a 
n/a 
-4.759 
n/a 
n/a 
n/a 
n/a 
-4.759 
n/a 
n/a 
n/a 
n/a 
-4.759 
n/a 
n/a 
n/a 
n/a 
-3.851 -1.7695 -3.8275 0 -10.5655 -3.5435 0 -4.29 -3.5435 0 -8.816 -3.5435 -3.152 -4.4195 -3.222 -4.502 0 
-4.0015 -5.686 -3.8275 -9.560501 -12.827 -3.5435 -4.29 -6.607501 -3.5435 -8.816 -12.7257 -6.654 -6.468 -6.174 -6.446 -4.502 
-7.606 -5.686 -13.8872 -13.9214 -13.9214 -8.226001 -6.607501 -6.607501 -13.7865 -12.7257 -15.8362 -10.1385 -7.725 -7.707001 -6.446 
-7.606 -16.1982 -18.2481 -13.9214 -18.8271 -9.4145 -6.607501 -17.3943 -17.6962 -15.8362 -19.3207 -11.3955 -9.282001 -7.707001 
-18.4612 -20.5591 -18.2481 -18.8271 -20.0156 -9.4145 -17.3943 -21.304 -20.8067 -19.3207 -20.5777 -12.9525 -9.282001 
-3.8275 -3.251 -4.8635 -1.934 -1.4985 -8.9785 -1.7565 -9.542001 -4.0965 0 -4.29 -4.0965 0 -8.4905 -4.0965 
-6.6365 -6.8455 -4.9455 -2.6125 -10.181 -9.842 -10.319 -11.988 -4.0965 -4.29 -9.622501 -4.0965 -8.4905 -13.0812 
-9.352 -6.924 -5.6805 -11.6892 -10.4185 -18.4557 -13.5226 -12.3446 -8.106001 -9.622501 -9.622501 -13.5398 -13.0812 
-9.385 -7.646 -15.255 -11.9267 -19.343 -22.3347 -13.653 -16.6847 -14.4637 -9.622501 -19.1328 -18.1305 
-9.9315 -17.2611 -15.4925 -20.8512 -23.222 -22.3347 -17.9931 -23.0424 -14.4637 -19.1328 -23.7235 
-3.433 -1.7565 -2.3615 -3.8275 0 -15.79 -4.0375 -4.29 -4.0375 -1.756 -5.7225 -4.922 -3.152 -3.43 -4.794 
-4.1845 -3.523 -5.965 -3.8275 -17.342 -21.6659 -7.892001 -7.790501 -5.5295 -6.959 -11.6301 -7.047 -5.144 -9.5835 
-5.5485 -6.889 -5.965 -20.6232 -21.6659 -25.5204 -10.718 -10.287 -11.5751 -13.1494 -13.7551 -9.541 -10.494 
-8.644 -6.889 -23.5075 -24.9471 -25.5204 -28.3464 -13.2145 -16.404 -17.7655 -15.2744 -16.2491 -15.0596 
-8.644 -24.5401 -27.8314 -28.8016 -28.3464 -30.8429 -19.3315 -22.5944 -19.8905 -17.7684 -21.7677 
-2.5045 -1.8085 -3.777 -1.7565 -2.3615 -3.8275 -1.4985 -4.6555 -1.7565 -9.110001 0 -4.2815 0 -5.7225 -3.152 -4.4195 -3.222 -4.502 0 
-3.3625 -4.3955 -4.411 -3.523 -5.965 -5.4605 -5.938001 -6.0515 -8.48 -6.757 -4.2815 -4.2815 -5.7225 -9.5425 -6.468 -6.174 -6.446 -4.502 
-4.4445 -4.6235 -5.6815 -6.889 -7.517 -9.272501 -6.2485 -10.1265 -7.684 -8.759501 -4.2815 -9.501501 -9.5425 -12.8585 -7.725 -7.707001 -6.446 
-4.6725 -5.863 -8.524501 -8.228001 -11.5176 -9.394 -10.097 -10.0675 -10.028 -8.759501 -9.501501 -13.5563 -12.8585 -14.1155 -9.282001 -7.707001 
-5.8735 -8.6665 -9.527 -12.2926 -11.6391 -13.5981 -10.208 -10.755 -10.028 -15.0021 -13.5563 -16.8723 -14.1155 -15.6725 -9.282001 
