-4.759 
n/a 
n/a 
n/a 
n/a 
-4.759 
n/a 
n/a 
n/a 
n/a 
-4.759 
n/a 
n/a 
n/a 
n/a 
-4.759 
n/a 
n/a 
n/a 
n/a 
-2.0935 -3.6055 -3.4605 0 -3.0365 -3.1425 -2.489 -1.8085 -3.2795 -1.7565 -3.301 -4.31 0 
-4.7925 -6.85 -3.4605 -3.0365 -5.212501 -3.7875 -3.799 -4.5305 -4.4575 -5.003 -7.3465 -4.31 
-7.765 -6.85 -6.502 -5.212501 -5.338 -4.8655 -6.949 -4.854 -8.006001 -8.7255 -7.3465 
-7.765 -9.611 -9.160501 -5.338 -6.0365 -8.184 -7.389 -8.1975 -10.381 -8.7255 
-10.3675 -12.2429 -9.234 -6.0365 -8.912001 -8.5205 -10.485 -10.6335 -10.381 
-3.6055 -3.4605 -2.8645 -3.7375 -3.917 -4.31 0 
-6.85 -5.754001 -6.6755 -7.186501 -8.408501 -4.31 
-8.443501 -9.910501 -10.2135 -12.0514 -8.408501 
-13.0474 -13.5217 -15.7456 -12.0514 
-16.6586 -19.0538 -15.7456 
-3.2795 -1.7565 -4.8875 -2.0935 -3.6055 -4.2115 0 
-4.4575 -6.6565 -7.3275 -4.7925 -9.184501 -4.2115 
-7.877501 -8.3295 -9.8055 -9.872001 -9.184501 
-9.991501 -10.5975 -15.0314 -9.872001 
-12.2595 -15.8234 -15.0314 
-3.6055 -3.308 -4.7925 -3.3875 -2.674 -3.4865 -4.31 0 
-7.186501 -8.1195 -8.4035 -4.5095 -5.966 -8.313001 -4.31 
-12.85 -12.3123 -9.615 -8.061501 -10.76 -8.313001 
-17.0428 -13.5238 -13.2844 -13.1713 -10.76 
-18.2543 -17.1932 -18.3942 -13.1713 
