-4.759 
n/a 
n/a 
n/a 
n/a 
-4.759 
n/a 
n/a 
n/a 
n/a 
-4.759 
n/a 
n/a 
n/a 
n/a 
-4.759 
n/a 
n/a 
n/a 
n/a 
-4.475 -4.424 -4.442 0 
-9.928 -9.803 -4.442 
-15.447 -9.803 
-15.447 
n/a 
-5.923 0 -3.723 -3.956 -4.442 
-5.923 -3.723 -8.418 -9.0985 
-10.01 -8.418 -14.1595 
-14.8414 -14.1595 
-20.5829 
-5.923 0 -4.475 -4.19 -4.442 
-5.923 -4.475 -7.54 -6.831 
-9.486 -7.54 -8.017501 
-9.613001 -8.017501 
-10.8851 
-5.923 -3.723 -2.3615 -4.442 0 
-10.01 -6.4655 -8.5775 -4.442 
-12.8889 -13.1465 -8.5775 
-19.5699 -13.1465 
-19.5699 
