-4.759 
n/a 
n/a 
n/a 
n/a 
-4.759 
n/a 
n/a 
n/a 
n/a 
-4.759 
n/a 
n/a 
n/a 
n/a 
-4.759 
n/a 
n/a 
n/a 
n/a 
-2.7835 -1.8085 -3.127 -2.186 -4.49 -1.934 -2.8705 -3.5965 -3.757 -2.4265 -2.742 -4.2065 -1.4985 -3.9515 -1.934 -3.432 
-4.329 -4.9625 -4.6745 -5.414001 -4.943 -4.1055 -6.400001 -6.7955 -5.6705 -4.095 -5.714 -4.732 -5.3925 -5.8125 -5.689 
-7.2805 -7.9555 -6.4045 -5.7535 -7.098001 -7.507 -10.5225 -9.892 -6.894 -6.9595 -6.095 -8.019 -7.04 -10.688 
-9.707001 -9.639501 -6.756 -7.903501 -8.999001 -12.1435 -14.49 -11.3065 -9.9945 -7.3095 -9.2775 -9.429 -12.2303 
-11.405 -9.9715 -9.225 -9.694 -14.2145 -16.111 -15.9045 -14.407 -10.614 -10.248 -10.5755 -14.7849 
-1.7695 -3.5665 0 -4.9185 -1.4985 -3.473 -3.9515 
-5.017 -3.5665 -4.9185 -5.3875 -4.624001 -5.994 
-5.017 -9.0135 -5.3875 -8.3865 -7.128 
-11.1064 -9.279 -8.3865 -9.177001 
-11.3719 -12.8472 -9.177001 
-3.881 -2.186 -3.473 -1.7565 -4.2065 -1.4985 -4.1805 0 
-6.112 -6.325001 -4.882 -7.361501 -4.732 -5.4645 -4.1805 
-10.089 -8.806001 -11.3682 -8.781501 -8.482 -5.4645 
-13.0586 -15.417 -12.7882 -12.5435 -8.482 
-19.6696 -16.837 -16.5502 -12.5435 
-3.881 -2.186 -4.2065 -1.4985 -3.5025 -4.4095 -3.9515 0 
-6.112 -7.58 -4.732 -4.16 -7.601 -8.7715 -3.9515 
-12.1262 -8.0115 -9.1975 -8.656 -12.5608 -8.7715 
-12.5577 -12.5562 -14.0667 -13.9302 -12.5608 
-17.1024 -17.4254 -19.3409 -13.9302 
