-4.759 
n/a 
n/a 
n/a 
n/a 
-4.759 
n/a 
n/a 
n/a 
n/a 
-4.759 
n/a 
n/a 
n/a 
n/a 
-4.759 
n/a 
n/a 
n/a 
n/a 
-5.4185 -2.341 -4.3645 -2.8645 -4.622 -3.436 -3.5315 -8.092 -4.9295 -1.4985 -3.7075 -4.828 -2.915 
-7.009001 -7.027 -7.395 -5.673 -7.7485 -6.4045 -11.8695 -12.443 -5.868 -4.6235 -8.788501 -8.654 
-12.4592 -9.2755 -10.259 -9.7075 -10.2865 -15.2665 -16.8871 -13.9546 -9.629001 -9.3605 -12.7599 
-14.7077 -12.4771 -14.2935 -12.6819 -20.0065 -20.693 -18.2138 -18.2174 -14.7902 -13.4709 
-17.9093 -16.5116 -17.2679 -22.4019 -24.575 -21.5245 -22.3572 -23.3786 -18.9006 
-7.893001 0 -8.706 -5.258 -3.251 -4.024 -2.915 -2.264 -3.7075 -2.229 -5.3035 -4.828 0 -2.9705 -2.7415 -4.622 -3.3245 -3.277 -3.251 0 
-7.893001 -8.706 -14.2908 -7.9255 -6.242001 -7.206 -4.093 -5.29 -5.5255 -6.775 -9.8125 -4.828 -2.9705 -4.512 -5.66 -8.481001 -6.3425 -5.885 -3.251 
-17.2532 -14.2908 -16.9583 -11.2215 -9.349501 -8.358001 -8.028001 -7.39 -10.76 -11.9148 -9.8125 -7.065 -4.512 -6.814 -9.647501 -10.4505 -9.969501 -5.885 
-22.838 -16.9583 -20.2543 -14.329 -10.2345 -12.4756 -8.674001 -13.2045 -15.8998 -11.9148 -12.2185 -9.115 -6.814 -10.6735 -10.762 -15.5533 -9.969501 
-25.5055 -20.2543 -23.3618 -15.214 -14.3521 -13.1216 -14.9713 -18.3443 -15.8998 -14.3208 -14.2685 -11.5228 -10.6735 -12.6796 -16.2452 -15.5533 
-3.5315 -5.6655 -3.7375 -3.158 -3.251 -4.622 -4.3645 -12.16972 -2.341 -4.3645 -3.7555 -3.135 -2.915 -2.7455 -3.7075 -2.229 -3.1715 0 
-8.452001 -10.849 -7.4665 -6.6355 -9.244 -8.396 -17.89922 -14.51072 -7.027 -9.3365 -5.555 -5.6755 -4.0865 -5.5785 -5.5255 -5.4145 -3.1715 
-14.9758 -15.105 -8.843 -13.1559 -13.1304 -22.34832 -20.24022 -19.19672 -12.3816 -11.163 -8.049001 -6.315001 -7.816501 -7.87 -9.7775 -5.4145 
-19.2448 -16.4815 -15.6766 -17.0423 -27.08272 -24.68932 -24.92622 -24.55132 -14.2081 -13.657 -8.799001 -10.2435 -8.9195 -12.617 -9.7775 
-20.6213 -23.3151 -19.563 -30.99462 -29.42372 -29.37532 -30.28082 -26.37782 -16.7021 -14.407 -12.8497 -10.4355 -13.9983 -12.617 
-13.3115 -2.341 -4.3645 -2.9705 -2.7415 -4.024 -3.3245 -3.277 -3.251 -4.024 -2.915 -2.7455 -3.7075 -2.229 -5.3035 -4.828 0 
-15.5562 -7.027 -7.384 -4.512 -5.275001 -8.072001 -6.3425 -5.885 -8.3435 -7.206 -4.0865 -5.5785 -5.5255 -6.775 -9.8125 -4.828 
-21.0064 -9.2965 -8.316501 -7.1495 -10.4765 -11.7356 -9.969501 -9.9205 -11.6811 -8.172 -7.816501 -7.87 -10.76 -11.9148 -9.8125 
-23.2759 -10.0195 -10.396 -12.8642 -14.1401 -15.3626 -14.1952 -13.5793 -12.6471 -12.1964 -8.9195 -13.5995 -15.8998 -11.9148 
-23.9989 -12.1676 -16.5003 -16.5278 -17.7671 -19.5883 -17.854 -14.5453 -16.6715 -13.2994 -14.9808 -18.7393 -15.8998 
