-4.759 
n/a 
n/a 
n/a 
n/a 
-4.759 
n/a 
n/a 
n/a 
n/a 
-4.759 
n/a 
n/a 
n/a 
n/a 
-4.759 
n/a 
n/a 
n/a 
n/a 
-3.9415 0 -10.235 0 -5.1645 0 0 -7.8 -4.116 0 
-3.9415 -10.235 -10.235 -5.1645 -5.1645 0 -7.8 -12.6008 -4.116 
-14.6389 -10.235 -15.4575 -5.1645 -5.1645 -7.8 -12.6008 -12.6008 
-14.6389 -15.4575 -15.4575 -5.1645 -14.0609 -12.6008 -12.6008 
-19.8614 -15.4575 -15.4575 -14.0609 -18.8617 -12.6008 
-1.934 -3.9415 0 -8.831 0 -5.1645 0 0 -4.0275 -3.685 0 
-5.2535 -3.9415 -8.831 -8.831 -5.1645 -5.1645 0 -4.0275 -7.307 -3.685 
-5.2535 -13.2349 -8.831 -14.4153 -5.1645 -5.1645 -4.0275 -7.307 -7.307 
-15.0555 -13.2349 -14.4153 -14.4153 -5.1645 -10.1765 -7.307 -7.307 
-15.0555 -18.8192 -14.4153 -14.4153 -10.1765 -13.7174 -7.307 
-3.9415 0 -8.831 0 -5.1645 0 0 -4.0275 -3.6505 0 
-3.9415 -8.831 -8.831 -5.1645 -5.1645 0 -4.0275 -6.8435 -3.6505 
-13.2349 -8.831 -14.4153 -5.1645 -5.1645 -4.0275 -6.8435 -6.8435 
-13.2349 -14.4153 -14.4153 -5.1645 -10.1765 -6.8435 -6.8435 
-18.8192 -14.4153 -14.4153 -10.1765 -13.2539 -6.8435 
-3.9415 0 -6.8035 0 -5.1645 0 0 -4.0275 -3.9825 0 
-3.9415 -6.8035 -6.8035 -5.1645 -5.1645 0 -4.0275 -7.633 -3.9825 
-10.6475 -6.8035 -9.2015 -5.1645 -5.1645 -4.0275 -7.633 -7.633 
-10.6475 -9.2015 -9.2015 -5.1645 -10.1765 -7.633 -7.633 
-13.0455 -9.2015 -9.2015 -10.1765 -14.0434 -7.633 
