-4.759 
n/a 
n/a 
n/a 
n/a 
-4.759 
n/a 
n/a 
n/a 
n/a 
-4.759 
n/a 
n/a 
n/a 
n/a 
-4.759 
n/a 
n/a 
n/a 
n/a 
-2.7835 -3.594 -4.1785 -2.8645 -1.7695 -3.7905 -1.756 -3.699 -1.756 -3.4865 -3.89 -2.4265 -3.2645 -2.489 -1.934 -1.8085 -4.4265 -4.2555 0 
-7.51 -8.87 -6.576 -4.4755 -4.482 -6.6025 -5.6115 -5.4425 -4.9215 -7.165501 -5.754 -4.563 -3.7195 -4.348 -3.2685 -5.3885 -8.332001 -4.2555 
-13.2968 -11.5035 -7.8755 -7.314 -7.2225 -9.3625 -7.66 -8.138 -9.036 -8.861 -7.634501 -4.8385 -5.5955 -5.4615 -6.659501 -9.382 -8.332001 
-15.9303 -12.803 -11.1946 -9.9665 -10.2695 -10.7505 -10.396 -10.6465 -10.389 -11.0597 -7.78 -6.7125 -6.7085 -8.64 -10.553 -9.382 
-17.2298 -16.1221 -13.8471 -13.1679 -11.6575 -13.4865 -13.1993 -11.9995 -12.5877 -11.2052 -10.158 -7.6585 -9.656 -12.5931 -10.553 
-4.571 -2.229 -1.8085 -5.6055 -1.4985 -12.16972 -1.756 -4.562 -3.772 0 
-7.635 -3.813 -8.2015 -6.6405 -14.76202 -13.92572 -6.1 -8.070001 -3.772 
-10.3885 -10.5414 -9.8585 -20.35902 -16.51802 -18.26972 -9.2495 -8.070001 
-17.1169 -12.1984 -23.63782 -22.11502 -20.86202 -21.41922 -9.2495 
-18.7739 -25.97772 -25.39382 -26.45902 -24.01152 -21.41922 
-2.7835 -1.4985 -3.594 -3.768 -3.2645 -3.7905 -1.8085 -3.301 -3.89 -2.0935 -3.7775 0 -2.4265 -3.2645 -2.489 -4.47 -1.934 -1.8085 -5.287 -3.3755 0 
-3.7575 -4.568 -5.2065 -7.9405 -6.134501 -4.255 -4.019 -5.219 -5.5035 -5.6405 -3.7775 -2.4265 -4.563 -3.7195 -5.4965 -5.709001 -3.2685 -6.5505 -8.405001 -3.3755 
-7.786 -6.633 -9.281 -10.335 -6.8165 -6.9505 -5.3655 -6.432 -9.894 -5.6405 -6.492001 -4.563 -4.8385 -6.5295 -6.317 -6.489 -7.800001 -8.876 -8.405001 
-10.1025 -10.1385 -11.8023 -10.352 -9.425 -9.109501 -6.509 -11.0699 -9.894 -7.920501 -8.345501 -4.8385 -8.2115 -7.3955 -6.9995 -11.8339 -9.084001 -8.876 
-13.608 -12.5554 -11.8193 -13.6745 -11.6078 -10.143 -11.1947 -11.0699 -12.2318 -9.6005 -8.6315 -8.2115 -8.844501 -8.071501 -12.616 -13.1179 -9.084001 
-2.4265 -3.2645 -2.489 -4.9385 -1.934 -1.8085 -4.015 -4.832 -1.934 -3.333 -1.7695 -2.674 -3.1495 -8.061501 -2.5045 -1.4985 -3.668 0 
-4.563 -3.7195 -5.776 -5.7735 -3.2685 -4.5105 -7.6285 -6.4335 -3.9835 -4.022 -3.8225 -5.737 -12.5062 -11.0176 -3.583 -5.2425 -3.668 
-4.8385 -6.822001 -6.759501 -6.3075 -5.544 -8.134501 -9.4125 -8.191 -4.0425 -5.9985 -6.422501 -15.2845 -15.4623 -12.0961 -6.988501 -5.2425 
-8.839001 -7.843 -7.4395 -8.481501 -8.9965 -9.8065 -11.2612 -8.248 -6.009 -8.3075 -16.1276 -18.2406 -16.5408 -15.5016 -6.988501 
-9.639501 -8.632 -9.567 -12.832 -10.4675 -11.6842 -11.3182 -10.361 -8.3125 -18.3394 -19.0837 -19.3191 -19.9463 -15.5016 
