-4.759 
n/a 
n/a 
n/a 
n/a 
-4.759 
n/a 
n/a 
n/a 
n/a 
-4.759 
n/a 
n/a 
n/a 
n/a 
-4.759 
n/a 
n/a 
n/a 
n/a 
-3.0835 -4.584 0 -10.536 -9.145 0 -6.144 0 -3.5125 
-7.693501 -4.584 -10.536 -19.681 -9.145 -6.144 -6.144 -3.5125 
-7.693501 -16.0872 -19.681 -19.681 -15.8492 -6.144 -10.3225 
-19.5603 -25.2322 -19.681 -26.3852 -15.8492 -10.3225 
-28.7053 -25.2322 -26.3852 -26.3852 -20.0277 
-3.0835 -3.522 0 -3.5125 -1.7565 -5.3745 -4.891 -1.7565 -5.1845 -6.844 
-6.3975 -3.522 -3.5125 -4.312 -6.5 -7.061501 -6.8725 -6.580501 -6.9655 
-6.3975 -6.0345 -4.312 -9.087 -8.8485 -7.1715 -7.181 -7.1625 
-9.605801 -7.4135 -9.087 -11.8937 -9.0345 -7.185 -7.202001 
-10.9848 -12.4815 -11.8937 -12.0797 -9.069 -7.2055 
-4.0105 -3.522 0 -8.567 -2.229 -3.5125 
-8.1415 -3.522 -8.567 -10.8025 -5.187 
-8.1415 -12.8524 -10.8025 -13.7605 
-17.8655 -15.0879 -13.7605 
-20.101 -18.0459 
-4.344 -4.0245 0 -3.5125 -1.7565 -5.3745 -4.891 0 
-8.309501 -4.0245 -3.5125 -4.312 -6.5 -7.061501 -4.891 
-8.309501 -8.1675 -4.312 -9.087 -8.8485 -7.061501 
-12.8665 -8.842001 -9.087 -11.8937 -8.8485 
-13.541 -14.2048 -11.8937 -11.8937 
