-4.759 
n/a 
n/a 
n/a 
n/a 
-4.759 
n/a 
n/a 
n/a 
n/a 
-4.759 
n/a 
n/a 
n/a 
n/a 
-4.759 
n/a 
n/a 
n/a 
n/a 
-3.17 -1.7565 -3.277 -2.4945 -4.413 -1.7695 -3.429 -4.0175 -3.402 -2.264 -10.105 -2.229 -4.0175 0 
-4.179 -4.25 -5.237 -5.849 -5.36 -4.032 -7.974501 -6.528501 -3.793 -13.401 -12.615 -5.211 -4.0175 
-5.4445 -5.3725 -8.6335 -6.531 -6.6585 -8.293 -9.5915 -6.619501 -15.541 -15.911 -15.597 -5.211 
-6.1755 -8.678501 -9.2615 -8.007501 -12.1305 -10.107 -9.624001 -18.9509 -18.051 -18.893 -15.597 
-9.337001 -9.290501 -11.0356 -13.4975 -13.9445 -10.1695 -22.0806 -21.4609 -21.033 -18.893 
-3.17 -1.7565 -3.277 -3.998 -1.7565 -3.4635 -1.4985 -4.029 -1.7565 -8.392 0 
-4.179 -4.25 -7.4145 -5.128 -6.172 -4.6325 -5.353001 -5.1 -10.4035 -8.392 
-5.4445 -7.581501 -8.748 -8.889 -6.712 -8.627501 -6.248001 -14.9574 -10.4035 
-8.566 -8.8395 -12.6618 -9.6815 -9.48 -8.717501 -16.1904 -14.9574 
-10.1145 -12.7919 -13.4543 -12.4869 -9.493 -19.0705 -16.1904 
-3.17 -3.1385 -3.998 -4.621 -4.5445 -2.5045 -10.105 -4.6175 -2.9905 0 
-4.946 -6.358 -8.265 -8.936501 -7.177501 -13.5269 -15.0035 -6.649 -2.9905 
-7.5565 -10.9342 -10.7495 -11.5659 -18.9271 -18.4254 -17.035 -6.649 
-12.1507 -13.4187 -14.5567 -23.3155 -23.8256 -20.4569 -17.035 
-14.6352 -17.2259 -26.3063 -28.214 -25.8571 -20.4569 
-4.138 -4.9225 -11.0905 -3.852 -4.6645 -1.7565 -3.9535 -1.7565 -4.126 0 
-10.4945 -17.0272 -14.9425 -9.675001 -5.5015 -6.593 -5.163 -6.3205 -4.126 
-22.5992 -20.8792 -20.7655 -10.532 -11.3372 -7.971 -9.4645 -6.3205 
-26.4512 -26.7022 -21.6225 -16.3677 -12.7152 -12.4507 -9.4645 
-32.2742 -27.5592 -27.4582 -17.7457 -17.1949 -12.4507 
