-4.759 
n/a 
n/a 
n/a 
n/a 
-4.759 
n/a 
n/a 
n/a 
n/a 
-4.759 
n/a 
n/a 
n/a 
n/a 
-4.759 
n/a 
n/a 
n/a 
n/a 
-3.594 -1.7565 -6.0785 -1.756 -2.8965 -4.928 
-5.572 -7.6165 -7.724 -3.751 -6.830501 
-12.3328 -9.1 -8.998 -6.9405 
-13.8163 -10.6215 -12.8231 
-15.3378 -14.4466 
-3.452 -3.396 -1.756 -2.8965 -3.853 0 
-5.291 -4.9215 -3.751 -5.782001 -3.853 
-7.357 -7.2505 -6.1565 -5.782001 
-9.199 -10.3928 -6.1565 
-12.6999 -10.3928 
-3.452 -3.326 -2.8965 -3.602 0 
-7.2515 -6.438001 -5.493 -3.602 
-10.5535 -8.889001 -5.493 
-13.0045 -8.889001 
-13.0045 
-3.452 -3.326 -1.756 -2.8965 -3.602 
-7.2515 -4.4115 -3.751 -5.493 
-8.8905 -6.6265 -6.916 
-10.703 -9.529 
-13.6055 
