-4.759 
n/a 
n/a 
n/a 
n/a 
-4.759 
n/a 
n/a 
n/a 
n/a 
-4.759 
n/a 
n/a 
n/a 
n/a 
-4.759 
n/a 
n/a 
n/a 
n/a 
-1.4985 -3.0835 -3.193 -1.7565 -4.721 -3.6905 -2.186 -5.1805 -2.5045 -4.721 -7.190001 
-3.535 -5.165 -4.5615 -6.466001 -9.7605 -5.976 -6.3525 -6.8345 -7.3715 -8.616 
-5.390501 -5.4395 -9.507001 -10.634 -12.046 -8.474501 -7.4865 -12.2001 -10.293 
-5.5835 -10.1225 -13.7968 -12.9195 -14.5445 -10.0505 -13.0903 -15.1216 
-10.3955 -14.4123 -16.0823 -15.418 -16.1205 -15.6369 -16.0118 
-7.190001 -2.186 -3.4625 -5.1805 -2.264 -1.4985 -3.0835 -3.193 -1.7565 -4.721 -3.6905 
-8.7165 -4.4835 -7.206 -6.6725 -2.9195 -3.535 -5.165 -4.5615 -6.466001 -9.7605 
-11.51 -7.5825 -8.495501 -7.166 -5.1055 -5.390501 -5.4395 -9.507001 -10.634 
-14.609 -8.901501 -9.0935 -8.1505 -5.8815 -5.5835 -10.1225 -13.7968 
-15.928 -9.714001 -10.7175 -8.879001 -6.038001 -10.3955 -14.4123 
-7.190001 -2.186 -5.0375 -1.934 -4.721 0 -5.1845 -3.6905 0 -3.6905 -3.0835 -3.193 
-8.7165 -6.1785 -7.27 -6.561 -4.721 -5.1845 -8.646 -3.6905 -3.6905 -6.8195 -5.165 
-13.205 -8.613501 -12.4498 -6.561 -8.662001 -8.646 -8.646 -6.637 -6.8195 -7.928501 
-15.64 -13.9547 -12.4498 -11.0778 -13.0231 -8.646 -12.2849 -10.341 -7.928501 
-20.9812 -13.9547 -16.9666 -15.4389 -13.0231 -12.2849 -15.9889 -11.45 
-7.190001 -5.1805 -4.721 -3.6905 -3.0835 -3.193 
-9.779501 -9.413 -9.7605 -6.8195 -5.165 
-14.1936 -14.9937 -12.8895 -7.928501 
-19.7743 -18.1227 -13.9985 
-22.9033 -19.2317 
