-4.759 
n/a 
n/a 
n/a 
n/a 
-4.759 
n/a 
n/a 
n/a 
n/a 
-4.759 
n/a 
n/a 
n/a 
n/a 
-4.759 
n/a 
n/a 
n/a 
n/a 
-2.5685 -3.509 -2.7455 -4.02 0 -4.1485 -4.628 -5.939 -3.509 0 -3.0465 -2.5195 -6.2885 -2.9825 0 
-6.011 -5.192 -6.2445 -4.02 -4.1485 -9.278 -5.9615 -10.8025 -3.509 -3.0465 -5.613501 -8.0275 -9.8655 -2.9825 
-7.7345 -9.9945 -6.2445 -7.9085 -9.278 -10.6533 -10.886 -10.8025 -6.3585 -5.613501 -11.5851 -12.5803 -9.8655 
-12.7622 -9.9945 -11.7298 -13.5928 -10.6533 -15.5778 -10.886 -13.652 -9.950701 -11.5851 -16.1379 -12.5803 
-12.7622 -15.4798 -17.4141 -14.9681 -15.5778 -15.5778 -13.7355 -17.2442 -15.9223 -16.1379 -16.1379 
-2.0935 -4.02 -3.4635 -2.5685 -2.9195 0 -4.1485 -6.6585 0 -3.0465 -2.5195 -6.2885 -2.9825 0 
-6.331 -7.4655 -7.283501 -5.2735 -2.9195 -4.1485 -11.0145 -6.6585 -3.0465 -5.613501 -8.0275 -9.8655 -2.9825 
-9.382501 -11.9225 -10.7175 -5.2735 -7.8785 -11.0145 -11.0145 -10.598 -5.613501 -11.5851 -12.5803 -9.8655 
-14.1149 -15.3565 -10.7175 -9.941 -15.1739 -11.0145 -14.954 -13.165 -11.5851 -16.1379 -12.5803 
-17.5489 -15.3565 -15.385 -17.423 -15.1739 -14.954 -17.521 -19.1366 -16.1379 -16.1379 
-1.4985 -3.127 -2.9705 -2.186 -3.9595 -4.154 -4.02 -4.46 -2.186 -3.9595 -2.5195 -1.8085 -3.4605 -4.281 -6.2885 
-4.269 -5.7935 -3.89 -5.2155 -7.434 -8.1195 -6.6655 -6.7295 -5.2155 -5.087 -3.8815 -4.9875 -7.9975 -10.8861 
-6.7545 -6.429 -7.0645 -8.734501 -11.6557 -11.088 -8.662001 -8.341 -6.018001 -6.216 -6.755 -8.489 -14.7282 
-7.489 -9.072001 -11.1157 -13.1064 -14.6242 -13.0845 -10.2535 -10.0745 -7.007 -9.0295 -10.177 -15.2853 
-10.485 -13.8536 -15.4876 -16.0749 -16.6207 -14.676 -11.987 -11.5751 -9.940001 -12.5981 -16.9733 
-2.5685 -1.4985 -2.915 -4.154 -4.02 0 -4.1485 -4.628 -4.743 -3.4635 0 -2.4945 -5.008 -2.5195 -6.2885 -3.4605 0 
-3.7015 -4.1675 -5.133 -8.1195 -4.02 -4.1485 -9.278 -4.7515 -8.418 -3.4635 -2.4945 -6.495 -6.0525 -8.0275 -9.941 -3.4605 
-5.5655 -6.7685 -8.971001 -8.1195 -7.9085 -9.278 -9.3885 -8.421 -8.418 -7.427501 -6.495 -7.559 -12.2285 -12.6558 -9.941 
-7.763 -10.269 -8.971001 -12.331 -13.5928 -9.3885 -13.196 -8.421 -12.9674 -11.643 -7.559 -14.0486 -16.8568 -12.6558 
-11.6457 -10.269 -13.3027 -18.0153 -13.7033 -13.196 -13.196 -12.9848 -17.1829 -12.707 -14.0486 -18.6769 -16.8568 
