-4.759 
n/a 
n/a 
n/a 
n/a 
-4.759 
n/a 
n/a 
n/a 
n/a 
-4.759 
n/a 
n/a 
n/a 
n/a 
-4.759 
n/a 
n/a 
n/a 
n/a 
-3.1495 -5.149 -4.3845 -1.7565 -1.4985 -6.864 -3.9725 -2.7415 -9.000501 -8.164001 0 
-7.207001 -9.355 -5.646 -2.4195 -7.8675 -8.775001 -6.3315 -13.1078 -9.946001 -8.164001 
-10.513 -9.636001 -6.378 -8.476001 -9.040001 -10.5035 -17.045 -14.0533 -9.946001 
-10.794 -10.2265 -12.7647 -9.764001 -10.6745 -21.217 -17.9905 -14.0533 
-11.3845 -16.6132 -14.0527 -11.4377 -21.388 -22.1625 -17.9905 
-6.864 -4.0965 -5.2115 -1.7695 -8.826501 -6.864 -3.8405 
-8.968 -9.649 -5.282 -11.1415 -10.985 -8.532001 
-14.7139 -9.674001 -15.3508 -13.3 -12.653 
-14.7389 -19.857 -17.5093 -14.968 
-24.9219 -22.0155 -19.1773 
-8.826501 -8.164001 -3.8405 -1.7565 -6.864 -3.59 0 
-10.523 -12.5281 -4.563 -8.661 -9.337 -3.59 
-14.8871 -13.2506 -10.316 -11.4122 -9.337 
-15.6096 -19.0036 -13.0672 -11.4122 
-21.3626 -21.7548 -13.0672 
-6.864 -4.0965 -3.325 -1.4985 -4.1 -1.7565 -8.826501 -8.164001 
-8.968 -7.027501 -3.898 -5.0695 -5.164001 -10.111 -10.523 
-12.0924 -7.741001 -6.657 -5.5715 -14.5773 -11.8075 
-12.8059 -9.516001 -6.859 -15.2836 -16.2738 
-14.5809 -9.525001 -16.5315 -16.9801 
