-4.759 
n/a 
n/a 
n/a 
n/a 
-4.759 
n/a 
n/a 
n/a 
n/a 
-4.759 
n/a 
n/a 
n/a 
n/a 
-4.759 
n/a 
n/a 
n/a 
n/a 
-4.819 0 -5.0325 -3.7075 -3.321 -3.1015 -5.0615 -3.7075 
-4.819 -5.0325 -8.907001 -6.9195 -6.0165 -8.623501 -8.599 
-10.2485 -8.907001 -12.4416 -10.0185 -12.4827 -12.6638 
-14.442 -12.4416 -15.5406 -17.4797 -16.523 
-17.9766 -15.5406 -23.0018 -21.52 
-1.934 -1.4985 -6.2015 -6.143001 -3.402 -2.264 -5.0325 0 -3.882 -2.4265 -4.4665 -3.2015 -4.4285 -1.7565 -3.188 -3.6885 -2.3345 -5.0615 -3.7075 
-2.6125 -6.4455 -10.9945 -7.361001 -3.793 -7.892 -5.0325 -3.882 -5.945001 -5.679 -9.0635 -8.815001 -4.6405 -5.13 -6.6785 -6.29 -7.691 -8.599 
-7.211 -11.2605 -14.834 -8.072001 -8.6565 -7.892 -10.419 -5.945001 -8.786501 -10.5225 -14.9402 -9.293 -8.078501 -8.467501 -9.522501 -12.2073 -11.8793 
-12.0766 -15.1 -15.642 -13.5437 -8.6565 -13.7451 -12.482 -8.786501 -13.7462 -16.3992 -15.4182 -12.8984 -11.8418 -11.6309 -15.571 -16.3956 
-15.9161 -15.908 -21.0813 -13.6933 -14.889 -15.8081 -15.3235 -13.7462 -19.6229 -16.8772 -19.0236 -16.6617 -15.0052 -17.6794 -19.7593 
-4.129 -4.126 -4.617 -2.186 -2.9645 -5.0325 -3.3775 -2.872 -2.3615 -2.95 -2.7275 -5.007 -2.186 -3.3425 -3.3715 -3.6885 -3.2015 -2.264 -5.0615 -3.319 0 
-8.4655 -10.4595 -7.1635 -6.4285 -7.525001 -6.9235 -6.062 -4.6665 -4.4645 -6.2605 -5.116 -7.498501 -5.2235 -6.7015 -7.545 -5.744 -5.716001 -7.498 -8.0295 -3.319 
-15.0596 -13.006 -11.8598 -10.287 -9.561501 -9.726001 -7.807 -5.967501 -7.9835 -8.946 -7.653501 -10.8736 -8.653 -11.451 -10.0345 -8.4685 -10.016 -10.459 -8.0295 
-17.6061 -17.7023 -15.7183 -13.0181 -12.5298 -11.5198 -9.2685 -10.064 -10.513 -11.7309 -11.0896 -14.3031 -13.4369 -13.9405 -12.9766 -13.0343 -13.6062 -10.459 
-22.3024 -21.5608 -18.4494 -15.9864 -14.3236 -12.9813 -13.5732 -13.0051 -13.2979 -15.167 -14.5191 -19.087 -15.9264 -16.8826 -17.5424 -16.6245 -13.6062 
-3.0835 -5.0325 -1.7695 -3.0465 -4.617 -2.872 0 -5.42 -4.3285 -3.3715 -2.645 -4.2915 -2.5045 -5.0615 -3.7075 
-8.826501 -7.183001 -3.683 -6.979 -7.0785 -2.872 -5.42 -9.497 -7.785501 -5.0265 -6.462 -6.5585 -6.798 -8.599 
-11.3146 -9.481501 -7.83 -9.5245 -7.0785 -7.053 -9.497 -13.2524 -9.154501 -8.283501 -8.946501 -11.451 -11.5315 
-13.6131 -14.1039 -10.2425 -9.5245 -11.6761 -11.495 -13.2524 -14.6214 -13.1049 -10.434 -13.933 -16.1845 
-18.2355 -16.5164 -10.2425 -14.2881 -16.1181 -15.2504 -14.6214 -18.5718 -15.2554 -15.6103 -18.6665 
