-4.759 
n/a 
n/a 
n/a 
n/a 
-4.759 
n/a 
n/a 
n/a 
n/a 
-4.759 
n/a 
n/a 
n/a 
n/a 
-4.759 
n/a 
n/a 
n/a 
n/a 
-1.934 -2.7405 -8.0505 -5.847 0 -5.943501 0 
-4.858 -9.6455 -8.0965 -5.847 -5.943501 -5.943501 
-12.1746 -9.649 -8.0965 -9.752001 -5.943501 
-12.1781 -9.649 -9.9835 -9.752001 
-12.1781 -11.8854 -9.9835 
-1.934 -2.7405 0 -10.22 0 -5.943501 0 
-4.858 -2.7405 -10.22 -10.22 -5.943501 -5.943501 
-4.858 -13.7359 -10.22 -16.2571 -5.943501 
-16.265 -13.7359 -16.2571 -16.2571 
-16.265 -19.773 -16.2571 
-1.934 -11.429 -5.847 0 -5.943501 0 
-14.3219 -18.2322 -5.847 -5.943501 -5.943501 
-20.7613 -18.2322 -9.752001 -5.943501 
-20.7613 -22.1372 -9.752001 
-24.6663 -22.1372 
-1.934 -2.7405 0 -10.22 0 -5.943501 0 
-4.858 -2.7405 -10.22 -10.22 -5.943501 -5.943501 
-4.858 -13.7359 -10.22 -16.2571 -5.943501 
-16.265 -13.7359 -16.2571 -16.2571 
-16.265 -19.773 -16.2571 
