-4.759 
n/a 
n/a 
n/a 
n/a 
-4.759 
n/a 
n/a 
n/a 
n/a 
-4.759 
n/a 
n/a 
n/a 
n/a 
-4.759 
n/a 
n/a 
n/a 
n/a 
-5.022 -3.277 -3.17 -6.403 -1.7695 -7.295501 0 -1.934 -3.6065 -4.644 -1.7565 -2.95 0 
-6.5915 -6.322001 -9.933001 -6.6235 -7.3255 -5.228001 -1.934 -4.9755 -6.686501 -5.2855 -4.3865 -2.95 
-9.566501 -13.3222 -10.3025 -10.743 -7.514 -7.783501 -4.9755 -7.676 -7.156 -5.7935 -4.3865 
-16.6349 -13.6917 -15.369 -11.69 -9.743 -11.6587 -7.676 -8.222 -7.615 -5.7935 
-17.0044 -18.7582 -15.369 -13.919 -13.6378 -14.5244 -8.222 -8.7605 -7.615 
-3.75 -6.660501 -2.8195 
-10.1 -10.4265 
-13.866 
n/a 
n/a 
-3.135 -1.7565 -3.1495 -3.1385 0 -5.7565 -1.7695 -1.4985 -6.726 -1.756 -1.4985 -7.49 -1.934 -1.4985 -3.948 -4.644 0 
-3.9195 -3.914 -5.148 -3.1385 -5.7565 -6.202 -2.7955 -7.738001 -8.6765 -3.0405 -8.5775 -9.118 -2.6125 -4.7695 -7.111 -4.644 
-5.107501 -5.984 -5.148 -7.9635 -6.202 -6.844501 -8.658 -9.2945 -9.807 -10.3155 -10.4825 -9.344501 -5.9685 -8.061001 -7.111 
-6.838 -5.984 -9.421 -8.377501 -6.844501 -13.257 -10.8501 -10.1195 -17.082 -12.2205 -10.709 -13.3071 -9.207001 -8.061001 
-6.838 -10.081 -9.845 -8.844501 -13.257 -15.4491 -11.6751 -17.3945 -18.987 -12.447 -14.6716 -16.5456 -9.207001 
-3.17 -1.7565 -3.277 -5.0305 -1.934 -3.5455 -1.756 -3.75 -1.934 -3.6065 -4.644 0 
-4.179 -4.25 -8.005 -5.755001 -4.8495 -5.364501 -5.571 -6.196 -4.9755 -6.686501 -4.644 
-5.4445 -8.279 -8.420501 -8.2965 -6.7225 -6.547501 -7.917001 -9.842001 -7.676 -6.686501 
-9.046 -8.562 -10.7025 -10.1035 -8.107 -8.5205 -11.8966 -12.7077 -7.676 
-9.245501 -10.7025 -12.5095 -11.3924 -10.513 -12.6675 -14.7623 -12.7077 
