-4.759 
n/a 
n/a 
n/a 
n/a 
-4.759 
n/a 
n/a 
n/a 
n/a 
-4.759 
n/a 
n/a 
n/a 
n/a 
-4.759 
n/a 
n/a 
n/a 
n/a 
-3.995 -3.8255 -4.237 -3.135 -1.7565 -4.612 -3.6135 -4.1115 -5.127 -2.186 -4.3905 -3.6135 -4.1115 -5.127 -3.518 -5.8765 -2.356 -3.4715 -1.756 -5.127 -2.356 -3.4715 -5.8765 -6.5865 -4.374 -4.164 -4.2425 -3.518 -2.186 -4.129 -2.95 -5.8955 -2.186 -3.0365 -1.934 -3.3635 -3.158 -5.82 -2.925 -1.7695 -7.035501 -2.4265 -2.186 -5.285501 -1.7695 -4.7925 -4.033 -2.925 -1.7695 -4.0395 -4.2425 -1.934 -9.284 -4.471 -2.4945 -4.683 -3.135 -3.6885 -2.356 -4.225 -4.299 
-8.127 -8.138 -7.578 -3.9195 -6.3465 -7.8725 -6.951 -8.441 -6.702001 -5.7915 -9.1485 -6.951 -8.441 -7.731 -10.293 -6.602 -5.443 -4.7575 -6.6265 -7.8465 -5.443 -9.3195 -13.8536 -6.9885 -9.388 -9.48 -7.0915 -5.4795 -5.7485 -6.666 -8.1875 -8.307 -4.5415 -5.238 -4.921 -6.4475 -8.283001 -9.241501 -3.71 -9.372001 -10.278 -3.292 -7.921 -7.395 -6.7415 -8.241 -6.8245 -3.71 -6.113 -8.633501 -6.732 -9.632501 -13.2363 -6.1815 -6.303 -7.778501 -6.564 -4.639 -6.308001 -9.278501 
-12.8941 -12.1808 -8.4965 -10.443 -9.945201 -12.5326 -11.9131 -10.7418 -8.873501 -10.064 -12.7556 -11.9131 -11.7708 -14.9402 -11.0185 -8.757 -6.2885 -8.443501 -9.174 -9.631001 -11.6952 -17.4624 -14.2556 -12.6761 -14.9824 -12.169 -8.298 -9.203 -9.6975 -11.347 -11.8835 -10.553 -6.658501 -8.01 -8.6665 -12.5985 -13.01 -10.1095 -13.4285 -13.239 -11.063 -9.781 -10.876 -11.1345 -11.8085 -12.3835 -7.128 -9.490001 -11.3156 -11.425 -15.1009 -16.0893 -15.6038 -10.6846 -9.3485 -11.5313 -7.048 -8.717 -12.0025 
-16.9369 -13.0993 -15.3768 -14.0417 -14.6053 -17.4947 -14.2139 -12.9133 -13.4518 -13.9641 -17.7177 -15.2429 -18.98 -15.6657 -13.1735 -9.658 -10.238 -10.3605 -11.0043 -16.1878 -19.8381 -17.8644 -19.9432 -18.2705 -17.6714 -13.3755 -12.3841 -13.4544 -15.0013 -15.6073 -14.0965 -13.3823 -10.66 -11.9155 -14.8733 -17.3106 -13.8671 -20.3951 -16.3409 -15.3559 -18.9546 -11.785 -12.2285 -15.8887 -15.2347 -12.6905 -13.2346 -14.7426 -14.1071 -19.7939 -21.5787 -18.0538 -20.1069 -13.7301 -13.1695 -12.0153 -11.4756 -15.0303 
-17.8554 -19.9796 -18.9755 -18.7018 -19.5674 -19.7955 -16.3854 -17.4916 -17.3519 -18.9262 -21.0475 -22.4521 -19.7055 -17.8207 -14.0745 -13.7007 -12.155 -12.1908 -17.5611 -24.3307 -20.2401 -23.552 -25.5376 -20.9595 -18.8779 -17.4616 -16.6355 -18.7582 -18.8368 -17.5603 -16.7613 -17.3838 -14.5655 -18.1223 -19.4454 -17.8711 -24.2942 -22.9011 -18.4578 -22.1751 -20.8726 -13.8585 -18.135 -18.816 -15.6277 -18.7971 -18.4872 -17.5341 -22.476 -26.2717 -23.2892 -22.5569 -23.1524 -17.5511 -13.6535 -16.4429 -17.7889 
-3.6835 -3.8465 -3.5065 -1.4985 -4.109 -4.6225 -2.8645 -4.157 -1.4985 -3.893 -1.7565 -4.94 -5.173 -1.934 -1.4985 -4.6985 0 -4.0885 -1.7695 -4.157 -6.043 -5.232 -2.5195 -5.127 0 -5.508 0 -6.4605 -5.135 0 -6.345 -1.756 -5.8135 -5.1245 -1.4985 -4.9515 -1.7565 -5.127 -1.756 -5.508 -2.674 -4.157 -2.3345 -3.627 0 -1.756 -4.621 0 -4.6065 -3.5065 -5.1915 -3.1495 -4.033 -2.4945 -3.4915 -3.93 -3.1575 -2.5045 -2.9995 -2.95 -3.5455 -1.4985 -3.228 -7.8755 -3.277 0 -1.4985 -3.8405 -2.0935 -2.9705 -4.5205 -3.127 -2.8645 -3.1125 -5.209 -2.5195 -4.208 -5.428 -3.689 -3.926 -5.054 -4.0745 -4.4615 -2.3335 -5.127 -3.942 -3.93 -3.1575 -2.3615 -3.152 -3.228 -3.962 -2.7455 -2.9965 -3.748 -3.277 -3.393 
-6.208 -6.984 -4.358 -5.435 -6.138 -6.778001 -5.4365 -5.535 -4.3925 -4.1785 -5.953001 -5.667 -6.4505 -2.6125 -5.1995 -4.6985 -4.0885 -5.043 -5.7 -8.925501 -6.8275 -7.7285 -7.684501 -5.127 -5.508 -5.508 -6.4605 -7.1465 -5.135 -6.345 -7.3605 -7.0325 -6.1815 -7.271501 -6.3455 -5.501 -6.071001 -6.5575 -6.8545 -8.571501 -5.625 -5.35 -6.677 -3.627 -1.756 -7.2615 -4.621 -4.6065 -7.1875 -9.992001 -8.7535 -6.403 -5.588 -5.375 -5.5535 -4.9745 -5.804501 -4.488 -4.5905 -5.587 -3.91 -3.9575 -9.3765 -8.195 -3.277 -1.4985 -4.7545 -5.434 -4.642 -7.9685 -6.329 -5.885 -3.5345 -6.844 -5.6335 -6.775001 -6.9465 -9.359001 -7.0785 -9.145 -7.608001 -6.5395 -4.959 -6.983001 -8.789001 -7.3735 -4.9745 -5.4355 -6.128 -6.205501 -5.9055 -7.048 -5.403501 -5.623 -5.8405 -4.243 
-8.765 -7.5495 -7.388 -6.339 -8.2465 -9.281 -6.45 -7.089 -4.5425 -7.411 -6.231 -6.928 -6.8125 -5.99 -5.1995 -8.418 -5.043 -6.9345 -9.391001 -9.200001 -8.1825 -9.288501 -7.684501 -7.809501 -5.508 -9.406501 -7.1465 -7.1465 -9.033001 -7.3605 -9.471001 -7.1175 -8.199 -9.9305 -6.541 -8.064501 -7.335001 -8.1455 -9.047001 -9.5165 -6.6965 -7.861 -6.677 -6.079 -7.2615 -7.2615 -8.8575 -7.1875 -13.908 -13.6464 -12.2726 -7.287001 -7.9895 -6.7655 -6.1855 -7.225501 -6.594 -4.7035 -5.9725 -5.8455 -5.502 -8.4615 -10.6765 -7.963 -4.839 -4.7545 -6.365 -6.3945 -8.17 -8.587001 -9.080501 -6.13 -7.181 -7.1565 -9.324 -8.038 -10.733 -12.8241 -9.863501 -9.533001 -9.0705 -6.635 -9.052001 -10.0715 -12.3321 -7.4795 -7.2795 -8.717501 -9.609501 -7.592 -8.119 -8.865001 -7.134501 -7.710001 -6.2535 
-9.116501 -9.503 -7.4265 -8.3535 -9.7405 -9.541 -8.0485 -7.16 -7.5775 -7.6695 -7.191501 -7.13 -7.211 -5.99 -8.6525 -8.532001 -6.9345 -9.925 -9.664001 -9.762501 -9.573 -9.288501 -9.9615 -7.809501 -9.406501 -9.434001 -7.1465 -9.889501 -9.521001 -9.471001 -9.516001 -8.682 -9.992001 -9.955001 -9.023001 -8.8815 -8.9075 -9.852501 -9.717 -9.64 -9.152 -7.861 -8.272 -9.856501 -7.2615 -9.156501 -9.995501 -13.908 -17.5624 -17.1655 -13.1566 -9.3265 -8.493 -7.094 -8.501 -8.0185 -6.8935 -6.064001 -6.1075 -7.678 -9.366 -8.433001 -8.426001 -8.882 -7.805 -6.365 -6.6875 -9.45 -8.635 -9.828501 -9.382 -8.5655 -7.471 -9.818501 -9.4945 -12.0833 -14.1981 -15.6091 -9.869 -10.05 -9.2545 -9.8155 -10.2095 -14.3202 -12.4381 -9.2135 -9.7895 -10.543 -10.534 -9.611 -9.8155 -9.972501 -8.685 -8.186501 
-9.548 -9.5175 -8.9475 -9.748 -9.791 -9.948001 -8.106 -9.325001 -7.8005 -8.565001 -7.334001 -7.391 -7.211 -9.041 -8.704 -9.7415 -9.925 -9.9315 -9.918 -10.0675 -9.573 -10.0385 -9.9615 -10.025 -9.434001 -9.434001 -9.889501 -9.9095 -9.854501 -9.516001 -9.995001 -10.0215 -9.9995 -10.1805 -9.663501 -9.865001 -10.022 -10.038 -9.828501 -9.984 -9.152 -9.293501 -9.974501 -9.856501 -9.156501 -9.998 -18.0142 -17.5624 -21.0815 -18.0495 -15.1961 -9.590501 -8.880501 -9.289001 -9.47 -8.215501 -8.352 -6.2135 -8.0815 -9.7325 -9.3535 -8.4315 -9.2285 -9.861501 -8.861501 -6.6875 -9.6575 -9.637 -9.834001 -9.8395 -9.843 -8.804501 -9.8455 -9.837501 -13.732 -15.5484 -16.9831 -15.6146 -10.055 -10.0555 -10.21 -10.211 -14.5012 -14.4262 -14.1721 -10.5035 -10.5455 -10.56 -10.561 -10.0835 -10.091 -10.0935 -8.9425 
-3.995 -4.2485 -1.7695 -4.0725 -4.3655 -2.7455 -3.8095 -3.3715 -3.5215 -1.8085 -3.6135 -4.1115 -3.3755 -1.7695 -12.16972 -5.127 -3.922 -1.4985 -3.6135 -4.1115 -1.7565 -6.288 -1.4985 -4.1115 -1.7565 -5.127 -3.4715 -1.7695 -5.9965 -3.013 -4.2425 -2.3615 -2.186 -4.168 -2.0935 -3.0435 -1.756 -5.8955 -1.7695 -1.934 -3.3635 -3.158 -5.0595 -2.3345 -5.285501 -1.7695 -4.7925 -3.5725 0 -5.127 -3.432 -1.7565 -4.471 -3.787 -4.834 -1.7695 -4.712 -12.16972 -4.7615 0 
-8.0625 -6.2815 -6.035 -10.634 -6.749 -7.399 -7.4235 -5.047 -5.1775 -4.4545 -6.951 -8.296501 -3.992 -14.92142 -17.29672 -7.8925 -4.7665 -4.4525 -6.951 -5.6415 -7.7555 -8.22 -4.843 -5.6415 -6.071001 -7.927501 -5.353 -6.678501 -9.551001 -7.855 -7.6265 -3.5005 -5.269 -5.994 -4.811 -4.5065 -7.643001 -7.4815 -4.9225 -4.921 -6.4475 -8.2925 -6.4705 -8.062 -7.395 -6.7415 -8.522 -3.5725 -5.127 -9.021501 -5.596 -6.015501 -8.892 -9.113001 -7.4755 -7.313001 -18.03032 -16.93122 -4.7615 
-10.022 -11.2998 -13.2093 -13.0175 -12.3503 -11.5456 -9.163501 -6.5745 -8.494 -8.252001 -11.7686 -9.596001 -17.96072 -20.04842 -20.06222 -9.522 -9.132501 -8.095 -8.950001 -12.3271 -9.8287 -11.6655 -6.177 -10.6426 -9.191001 -10.5898 -10.304 -10.328 -14.715 -11.553 -8.295501 -6.867 -6.919001 -9.719501 -5.946001 -10.863 -10.5585 -11.938 -8.575001 -8.6665 -12.4482 -10.6095 -13.3865 -11.1105 -11.1345 -11.139 -8.765 -9.828001 -9.021501 -11.5849 -10.826 -11.1063 -14.4066 -12.1789 -13.5412 -20.95292 -22.79182 -16.93122 
-15.0403 -18.4741 -15.5928 -18.6188 -16.4969 -13.2856 -10.8674 -9.8085 -12.4571 -13.4994 -13.0681 -24.01952 -23.08772 -22.81392 -21.69172 -13.9904 -12.9566 -9.586 -15.7258 -14.4003 -13.2742 -12.9995 -11.5617 -13.7626 -12.4125 -15.5408 -14.1055 -15.5798 -18.413 -12.222 -11.6844 -8.8655 -10.096 -11.1457 -14.1669 -13.9114 -14.7187 -16.2269 -12.3961 -14.583 -14.7652 -17.5255 -14.683 -11.8415 -14.103 -10.586 -15.5977 -13.7225 -11.5849 -16.8149 -15.9168 -16.6209 -17.4725 -18.2446 -27.18112 -25.71442 -22.79182 
-22.2146 -20.8576 -21.1941 -22.7654 -18.2369 -14.9895 -14.1014 -13.8678 -17.7045 -14.7989 -27.49162 -29.14652 -25.85322 -24.44342 -26.16012 -17.8145 -14.4476 -16.409 -17.799 -17.8458 -14.6082 -18.3842 -14.6817 -16.9841 -17.3635 -19.3423 -19.3573 -19.2778 -19.082 -15.6109 -13.6829 -12.3179 -11.7048 -19.6554 -16.4907 -18.7009 -18.5632 -20.048 -18.3126 -16.9 -21.6812 -18.822 -16.9515 -16.1573 -14.1673 -17.4187 -19.4922 -16.2859 -16.8149 -21.9057 -21.4314 -19.6868 -23.5382 -31.88452 -31.94262 -25.71442 

n/a 
n/a 
n/a 
n/a 
