-4.759 
n/a 
n/a 
n/a 
n/a 
-4.759 
n/a 
n/a 
n/a 
n/a 
-4.759 
n/a 
n/a 
n/a 
n/a 
-4.759 
n/a 
n/a 
n/a 
n/a 
-13.93922 -3.6845 -4.2705 
-16.43922 -6.205 
-18.74472 
n/a 
n/a 
-8.0885 -5.1475 -1.7695 -4.2705 0 
-13.783 -6.9445 -6.566 -4.2705 
-15.58 -12.4908 -6.566 
-21.1263 -12.4908 
-21.1263 
-2.1715 -8.0885 -4.7505 -5.1475 -3.8255 -3.5015 
-9.826 -13.386 -10.9075 -9.668 -9.1335 
-15.7381 -19.543 -15.428 -15.0966 
-21.8951 -24.0635 -20.8566 
-26.4156 -29.4921 
-11.059 -4.174 -5.3745 -3.034 -4.2215 
-14.2145 -9.481501 -8.318501 -7.1885 
-19.168 -12.6069 -12.6286 
-22.2934 -16.917 
-26.6035 
