-4.759 
n/a 
n/a 
n/a 
n/a 
-4.759 
n/a 
n/a 
n/a 
n/a 
-4.759 
n/a 
n/a 
n/a 
n/a 
-4.759 
n/a 
n/a 
n/a 
n/a 
-1.4985 -3.594 -1.7565 -4.4025 -1.7565 -8.27 -3.644 -4.029 -1.7695 -4.422 -3.3715 -5.1305 -1.7565 -3.5505 -1.756 -1.7695 -2.489 -2.356 -4.769 0 
-4.568 -4.857 -6.0435 -7.045 -9.440001 -12.3408 -9.186001 -4.395 -5.5085 -8.3985 -6.689 -5.6875 -5.005 -4.5495 -3.963 -3.1405 -5.295 -7.4645 -4.769 
-5.042 -7.2975 -8.903001 -15.3347 -13.5694 -17.8828 -9.515501 -7.180501 -8.8415 -10.27 -6.95 -8.136001 -5.808 -7.3205 -5.529 -5.719 -11.1671 -7.4645 
-7.447501 -10.1345 -17.2803 -19.4641 -19.1114 -18.2123 -12.4128 -11.2777 -10.348 -10.3075 -9.191501 -9.021001 -8.335501 -8.788501 -7.8815 -11.7349 -11.1671 
-10.223 -18.5118 -21.4097 -25.0061 -19.4409 -21.1096 -16.51 -12.7842 -10.359 -10.47 -9.998501 -11.6791 -9.995001 -11.3196 -14.251 -11.7349 
-5.1845 -4.9225 -3.5505 -4.9835 -4.597 -2.0935 -3.3715 -4.7005 -1.7565 -4.471 -1.7695 -4.422 -2.5045 -3.3235 -2.5045 -4.39 0 
-9.13 -8.2845 -6.865 -8.436 -6.4105 -4.713 -6.274 -4.764 -6.015501 -6.128 -5.5085 -7.1675 -3.7105 -3.8485 -7.851501 -4.39 
-12.6266 -12.0664 -10.688 -11.2843 -9.368501 -7.4575 -6.3465 -7.47 -7.487 -8.835501 -7.9665 -8.113501 -3.8545 -8.5395 -7.851501 
-16.4085 -15.8894 -13.5363 -14.2423 -12.4118 -7.462 -9.1105 -8.9045 -10.2645 -11.6307 -8.7685 -8.31 -8.541 -8.5395 
-20.2315 -18.7377 -16.4943 -17.2856 -12.4163 -10.6278 -10.7335 -11.8668 -13.0597 -12.4327 -9.0425 -10.199 -8.541 
-5.1845 -4.422 -3.7865 -2.9645 -3.3365 -2.0935 -4.052 -3.301 -4.53 -4.335 0 
-10.674 -9.305 -7.985001 -6.068501 -6.4785 -7.442501 -8.1475 -7.883 -7.3145 -4.335 
-15.557 -13.8985 -11.3578 -8.774 -12.5305 -11.8974 -13.1613 -9.285501 -7.3145 
-20.1505 -17.2713 -14.0633 -15.1156 -16.9854 -16.9112 -14.5638 -9.285501 
-23.5233 -19.9768 -20.4049 -19.5705 -21.9992 -18.3137 -14.5638 
-4.426 -1.7565 -1.4985 -3.6115 -4.7285 -4.1555 -4.6455 -9.6455 -8.27 0 -3.594 -1.7565 -4.4025 -4.5875 -3.043 -1.7695 -4.5055 -3.6065 -3.9755 -1.7565 -3.5505 -2.356 -4.5935 -4.614 
-5.47 -2.4195 -4.081 -6.5495 -8.4455 -7.503 -14.3445 -19.0178 -8.27 -3.594 -4.857 -6.0435 -10.0965 -5.61 -3.528 -4.9495 -8.244 -5.153 -4.312 -5.005 -6.176001 -6.076 -7.436501 
-5.9535 -5.180501 -6.670501 -9.978001 -10.8245 -17.5093 -25.1439 -19.4866 -12.2908 -4.857 -7.2975 -12.2377 -11.0322 -5.971 -5.903501 -8.595 -9.191501 -5.1935 -6.854 -7.430501 -9.645 -9.500501 
-8.462501 -7.797 -10.054 -12.3354 -22.1158 -28.1519 -25.3081 -23.5074 -13.5538 -7.2975 -14.1281 -13.1734 -11.3932 -8.266 -9.264501 -9.465501 -9.222 -7.704 -9.2725 -11.0709 -13.0695 
-10.2375 -11.2985 -12.4478 -23.6267 -31.9234 -28.1519 -29.3289 -24.7704 -15.9943 -14.1281 -15.0638 -13.5344 -13.6882 -12.1172 -9.817 -9.517 -10.4355 -9.922001 -13.0547 -14.4954 
