-4.759 
n/a 
n/a 
n/a 
n/a 
-4.759 
n/a 
n/a 
n/a 
n/a 
-4.759 
n/a 
n/a 
n/a 
n/a 
-4.759 
n/a 
n/a 
n/a 
n/a 
-3.074 0 -2.925 -3.6845 -1.4985 -2.915 -4.154 -2.985 -3.739 0 
-3.074 -2.925 -5.672 -4.8155 -4.1675 -5.133 -6.0415 -5.844 -3.739 
-6.184 -5.672 -6.864501 -7.356501 -6.7685 -7.1055 -8.203001 -5.844 
-8.648001 -6.864501 -9.3795 -9.908001 -8.948501 -9.816501 -8.203001 
-9.826 -9.3795 -12.0982 -12.1776 -11.7845 -9.816501 
-2.925 -3.074 -3.5895 -2.356 -3.739 -5.593 -3.074 
-4.9325 -5.322001 -6.712 -6.1805 -9.928 -8.908001 
-6.54 -8.631001 -11.1069 -12.8357 -13.3668 
-9.896001 -13.1589 -17.7621 -16.2745 
-14.4239 -19.8141 -21.2009 
-2.925 -2.4945 -4.1685 -5.801 -2.915 -3.074 
-3.7675 -5.8625 -11.1605 -9.5225 -6.322001 
-6.803501 -13.4931 -14.882 -13.1143 
-14.6749 -17.2146 -18.4738 
-18.3964 -20.8064 
-1.934 -3.994 -1.7695 -2.3335 -2.925 -3.074 -3.6845 -2.915 -2.7455 -2.985 -3.739 0 
-4.095 -4.3645 -4.46 -4.0295 -4.9325 -5.86 -6.475 -4.0865 -4.943 -5.844 -3.739 
-4.418 -6.4695 -7.1955 -6.632501 -7.177501 -8.0665 -7.057 -6.1965 -6.9365 -5.844 
-6.4855 -8.185 -8.939 -9.014501 -9.345501 -8.5535 -8.744 -9.002001 -6.9365 
-8.1875 -9.295501 -11.4154 -11.2847 -9.776001 -10.513 -11.5837 -9.002001 
