-4.759 
n/a 
n/a 
n/a 
n/a 
-4.759 
n/a 
n/a 
n/a 
n/a 
-4.759 
n/a 
n/a 
n/a 
n/a 
-4.759 
n/a 
n/a 
n/a 
n/a 
-2.4265 -3.757 -1.4985 -4.489 -2.9705 -6.903 -1.4985 -5.6655 0 
-5.0425 -4.9595 -5.5275 -7.502501 -9.4025 -8.087501 -6.495501 -5.6655 
-6.3815 -9.792001 -8.2565 -14.2289 -9.9875 -13.3623 -6.495501 
-11.4072 -12.521 -15.0647 -14.8139 -15.2623 -13.3623 
-14.1362 -19.3292 -15.6497 -20.0887 -15.2623 
-1.4985 -4.9725 -4.697 -4.392 0 
-6.092 -10.8419 -5.6 -4.392 
-12.3978 -11.7449 -5.6 
-13.3008 -11.7449 
-13.3008 
-2.7835 -2.7295 -3.0465 -1.4985 -4.3955 -4.0675 -2.4265 -2.186 -1.8085 -5.5465 -4.489 -2.0935 -1.4985 -4.231 0 
-4.405 -4.932 -4.046 -4.95 -8.6355 -6.786 -3.292 -3.164 -7.479501 -10.151 -6.8535 -2.9725 -5.5675 -4.231 
-6.2815 -5.9795 -7.8125 -9.7915 -10.7575 -7.376 -4.4005 -8.493501 -12.4462 -12.5155 -7.703001 -7.284 -5.5675 
-7.3855 -9.644501 -12.6392 -12.0811 -11.3475 -8.694 -9.92 -14.1174 -14.8107 -13.365 -12.3045 -7.284 
-11.2393 -14.3226 -14.9288 -12.6711 -12.6655 -14.2859 -15.7203 -16.4819 -15.6602 -17.9665 -12.3045 
-5.279 -3.871 0 -1.756 -3.688 -3.0465 -1.7695 -3.849 -4.191 -4.489 0 
-9.540501 -3.871 -1.756 -5.687 -7.2225 -4.532001 -7.458001 -8.534 -7.5705 -4.489 
-9.540501 -5.23 -5.687 -10.2695 -9.639501 -10.4505 -12.4508 -12.1991 -7.5705 
-10.751 -9.564501 -10.2695 -12.6865 -15.8744 -15.4433 -16.1159 -12.1991 
-15.0855 -14.1078 -12.6865 -18.9214 -20.8672 -19.1084 -16.1159 
