-4.759 
n/a 
n/a 
n/a 
n/a 
-4.759 
n/a 
n/a 
n/a 
n/a 
-4.759 
n/a 
n/a 
n/a 
n/a 
-4.759 
n/a 
n/a 
n/a 
n/a 
-2.5045 -3.543 -1.4985 -4.037 -3.5035 0 -1.934 -3.345 -3.1715 -4.219 0 -5.3265 -2.186 -3.8255 -4.0885 -4.037 -2.186 -4.645 -1.7695 -4.698 -1.756 -1.4985 -4.765 -2.8645 -1.4985 -3.2895 -1.7695 -4.037 -3.54 -3.9755 -1.7565 -4.0785 0 
-5.323 -5.62 -5.689 -8.77 -3.5035 -1.934 -4.618 -5.613501 -6.618 -4.219 -5.3265 -6.389 -5.1825 -9.169001 -8.120501 -6.0785 -6.196 -5.484001 -6.187 -5.804501 -3.0405 -5.8175 -7.604001 -4.3545 -4.862 -4.985001 -4.8205 -8.0765 -5.8685 -4.312 -6.0765 -4.0785 
-5.8685 -9.417001 -9.168 -8.77 -5.214 -4.618 -6.176 -9.499001 -6.618 -8.771501 -6.389 -9.1595 -10.6215 -13.4888 -11.4774 -9.75 -7.2695 -7.537501 -7.3325 -6.471001 -7.395 -8.946001 -9.311501 -7.2805 -5.677 -7.742001 -8.879001 -10.8004 -5.9265 -8.3085 -6.0765 
-9.6145 -12.9808 -9.168 -10.634 -7.918001 -6.176 -10.381 -9.499001 -11.7909 -9.559501 -9.1595 -14.7771 -14.9413 -16.8457 -15.1489 -10.762 -9.370001 -8.756001 -7.9395 -10.3345 -10.5745 -10.459 -12.4003 -7.471 -8.466001 -12.3065 -11.8423 -10.8584 -9.601501 -8.3085 
-13.2151 -12.9808 -11.135 -13.338 -8.796 -10.381 -10.381 -14.7385 -12.5789 -12.6548 -14.7771 -19.0969 -18.2982 -20.5172 -16.1609 -12.8625 -10.587 -9.852001 -12.0464 -13.514 -12.0875 -13.5478 -12.5908 -10.702 -13.2573 -15.2698 -11.9003 -14.5334 -9.601501 
-1.4985 -3.598 -1.7565 -8.476501 -4.5585 -3.5795 0 -1.934 -3.6055 -3.8145 0 -5.3585 -3.6825 -4.492 -2.645 -3.264 -1.7565 -4.1855 -2.742 -2.674 -5.9655 -3.264 -1.7565 -3.499 -1.756 -1.4985 -5.7275 -2.7765 -3.6845 -2.985 -3.0835 -3.54 -4.541 -1.7565 -1.4985 -4.52 
-5.213 -4.922 -10.2485 -10.389 -8.4875 -3.5795 -1.934 -4.8595 -7.191501 -3.8145 -5.3585 -7.743501 -8.014501 -7.192 -6.818001 -3.6125 -5.711 -6.738501 -4.275 -8.941 -8.057 -3.6125 -5.2975 -4.9 -3.0405 -6.142 -8.153001 -5.2495 -5.857 -5.1065 -5.4995 -6.8085 -6.0445 -2.4195 -5.6385 
-5.729 -13.8548 -12.4654 -14.318 -8.4875 -5.5965 -4.8595 -7.6485 -7.191501 -8.447001 -7.743501 -12.8519 -9.745501 -12.3738 -6.996001 -6.116 -7.876 -8.205 -10.1345 -11.2959 -8.0895 -6.236 -6.398 -6.111 -7.7735 -8.311001 -10.674 -7.498 -8.3505 -7.1595 -8.692 -7.97 -7.042001 -6.3025 
-14.979 -16.0717 -16.3944 -14.318 -10.459 -8.1555 -7.6485 -7.6485 -12.3454 -11.598 -12.8519 -14.5829 -16.0573 -12.5518 -10.163 -8.036501 -9.861001 -14.7931 -12.6482 -11.3284 -9.67 -7.6905 -7.661 -9.9775 -9.8255 -10.8652 -12.9225 -10.702 -10.7763 -9.454 -9.687 -9.323 -10.1675 
-17.1959 -20.0007 -16.3944 -16.2895 -13.4904 -11.4173 -7.6485 -12.9552 -15.4964 -16.7064 -14.5829 -20.8947 -16.2353 -15.7188 -12.0835 -10.0845 -16.6867 -17.3068 -12.6807 -12.9089 -11.7871 -8.579 -11.7677 -12.0295 -12.3771 -13.1137 -16.1265 -13.1278 -13.0708 -10.299 -11.04 -12.4485 
-1.4985 -3.4865 -4.458 -1.7565 -2.3615 -8.1095 -5.325 -4.5585 -2.4945 -4.0515 -3.93 -3.4185 -2.0935 -1.4985 -4.4285 -3.6825 -2.5195 -3.345 -3.8145 -1.756 -4.765 -2.7765 -4.037 -1.934 -3.54 -3.9755 -1.7565 -4.1085 -3.6035 -4.037 0 
-4.9305 -6.942 -4.973 -3.523 -11.7592 -14.3933 -6.6645 -7.250501 -5.9095 -7.387001 -8.215 -5.5325 -2.9725 -4.759 -6.877 -6.271501 -5.099 -6.369 -5.497 -6.75 -6.97 -6.066501 -5.223001 -5.0325 -5.8685 -4.312 -7.153501 -8.5175 -7.5695 -4.037 
-7.459001 -7.3415 -6.913 -13.3649 -18.043 -15.7328 -9.204 -10.9437 -9.333501 -12.2294 -10.9246 -6.4975 -5.9985 -6.986 -9.417001 -9.272 -7.686 -7.601001 -9.762001 -8.393001 -8.317501 -6.784 -8.787001 -7.7145 -5.9265 -10.27 -11.8839 -13.0495 -7.5695 
-7.5385 -8.909 -16.9835 -19.6487 -19.3825 -18.2723 -12.9478 -14.3677 -14.2803 -14.939 -11.8896 -8.7795 -8.7355 -9.4925 -10.6485 -12.0688 -8.7075 -12.1726 -11.4912 -10.163 -9.159501 -10.621 -11.8622 -7.930001 -11.9357 -15.258 -16.4159 -13.0495 
-9.1055 -19.0979 -23.2673 -20.9882 -21.922 -22.0161 -16.3718 -19.3145 -16.9899 -15.904 -14.1716 -11.3507 -11.424 -10.661 -13.4453 -13.0903 -13.5427 -13.9018 -13.2612 -11.228 -13.4691 -13.6962 -12.0777 -14.1118 -16.9237 -19.79 -16.4159 
-2.742 -2.489 -5.8435 -1.756 -2.0935 -4.765 -4.52 -3.54 -4.541 -2.4945 -3.7855 -2.0935 -4.6935 -2.985 -3.65 
-3.301 -6.7825 -7.5435 -4.3175 -6.607 -7.6485 -8.2605 -6.8085 -6.0505 -5.125 -5.6715 -5.872 -7.064 -6.516 
-7.2165 -8.153001 -10.0745 -8.924 -9.597 -12.3408 -11.8274 -8.438001 -8.615001 -6.5415 -8.809501 -8.375501 -9.606 
-8.955501 -11.2198 -14.7032 -12.2182 -14.5423 -15.9077 -13.4569 -10.0885 -9.9125 -9.933001 -11.567 -11.0027 
-12.1795 -15.8485 -17.9974 -17.1635 -18.1092 -17.5372 -15.1074 -11.386 -13.4704 -12.8279 -14.1942 
