-4.759 
n/a 
n/a 
n/a 
n/a 
-4.759 
n/a 
n/a 
n/a 
n/a 
-4.759 
n/a 
n/a 
n/a 
n/a 
-4.759 
n/a 
n/a 
n/a 
n/a 
-4.891 -5.044 -4.299 -2.5045 -12.16972 -2.264 -4.208 -3.508 
-10.932 -6.7535 -6.425 -15.36922 -14.43372 -6.144 -6.679 
-12.6415 -9.712 -19.74412 -17.63322 -18.31372 -7.633 
-15.6 -23.12872 -22.00812 -21.51322 -19.80272 
-29.01672 -25.39272 -25.88812 -23.00222 
-1.934 -3.508 -2.1715 0 -2.688 -3.8245 -4.126 -1.4985 -4.4225 -3.616 -4.6775 -5.368 -3.6835 -3.956 -3.2 
-5.049 -5.112 -2.1715 -2.688 -6.231501 -8.179501 -5.706501 -5.0975 -8.5175 -6.8195 -9.3055 -8.8375 -7.504001 -7.5895 
-7.881001 -5.112 -5.222 -6.231501 -12.0573 -10.0505 -9.685501 -9.092501 -12.3984 -11.9493 -12.9698 -13.0024 -11.6193 
-7.881001 -8.0765 -8.939501 -12.0573 -13.9283 -14.0295 -13.7625 -13.5268 -17.5282 -15.6136 -17.1347 -17.1177 
-10.9219 -12.2522 -15.5071 -13.9283 -17.9073 -18.1065 -18.1968 -18.6566 -21.1925 -19.7785 -21.25 
-1.934 -3.508 -2.1715 0 -4.891 -5.198 -1.4985 -2.688 -5.898 -3.8195 0 
-5.049 -5.112 -2.1715 -4.891 -9.0485 -6.178501 -3.702 -9.289501 -8.824 -3.8195 
-7.881001 -5.112 -7.5765 -9.0485 -9.668 -8.4805 -9.6705 -12.2655 -8.824 
-7.881001 -11.8508 -12.5186 -9.668 -11.97 -14.668 -12.7787 -12.2655 
-14.6962 -16.7929 -13.1381 -11.97 -18.1575 -17.7762 -12.7787 
-3.508 -2.1715 0 -4.299 -2.264 -6.144 -3.5015 -1.934 -10.3915 0 
-5.112 -2.1715 -4.299 -5.322001 -8.295501 -11.1415 -4.704 -13.3319 -10.3915 
-5.112 -7.047 -5.322001 -9.795501 -13.4504 -12.344 -16.6027 -13.3319 
-10.071 -8.624001 -9.795501 -14.9984 -14.6529 -24.2427 -16.6027 
-12.1252 -13.2635 -14.9984 -16.2009 -26.5516 -24.2427 
