-4.759 
n/a 
n/a 
n/a 
n/a 
-4.759 
n/a 
n/a 
n/a 
n/a 
-4.759 
n/a 
n/a 
n/a 
n/a 
-4.759 
n/a 
n/a 
n/a 
n/a 
-3.54 -6.677001 -1.7565 -4.7555 0 
-8.757501 -8.999001 -8.2825 -4.7555 
-11.3713 -15.6432 -8.2825 
-18.0155 -15.6432 
-18.0155 
-9.811501 -2.871 -3.355 -2.186 0 -6.5125 0 
-12.9259 -5.7015 -5.3935 -2.186 -6.5125 -6.5125 
-15.7564 -7.4955 -5.3935 -9.425501 -6.5125 
-17.5504 -7.4955 -13.0288 -9.425501 
-17.5504 -15.3668 -13.0288 
-3.54 -3.319 -1.7565 -3.9035 -7.884 -2.356 -8.506001 0 
-7.644 -4.165 -5.809 -12.7091 -10.195 -10.8625 -8.506001 
-8.069 -8.5105 -15.2936 -15.0201 -18.7015 -10.8625 
-12.5939 -18.2083 -17.6046 -23.5266 -18.7015 
-22.2917 -20.5193 -26.1111 -23.5266 
-12.16972 -1.7565 -3.1495 -3.6055 -2.871 -3.849 0 -8.506001 0 -1.756 -8.034 0 
-13.92622 -3.914 -7.4575 -5.363 -6.353 -3.849 -8.506001 -8.506001 -1.756 -9.824001 -8.034 
-16.08372 -8.000501 -9.3725 -8.983001 -6.353 -12.5156 -8.506001 -10.3285 -9.824001 -9.824001 
-20.17022 -9.98 -13.0763 -8.983001 -15.2068 -12.5156 -10.3285 -18.3965 -9.824001 
-22.14972 -13.6878 -13.0763 -18.3766 -15.2068 -14.3381 -18.3965 -18.3965 
