-4.759 
n/a 
n/a 
n/a 
n/a 
-4.759 
n/a 
n/a 
n/a 
n/a 
-4.759 
n/a 
n/a 
n/a 
n/a 
-4.759 
n/a 
n/a 
n/a 
n/a 
-4.7175 0 -3.8325 -3.6215 0 -3.72 -3.6215 -1.756 -3.8565 -3.6215 
-4.7175 -3.8325 -7.481 -3.6215 -3.72 -6.736501 -5.3685 -4.9165 -7.615 
-9.094 -7.481 -7.481 -7.538 -6.736501 -8.222 -9.271001 -8.1885 
-12.9509 -7.481 -11.9883 -9.329 -8.222 -12.2573 -12.9264 
-12.9509 -11.9883 -13.7793 -10.719 -12.2573 -15.9127 
-5.147 -4.3535 0 -3.674 -1.756 -3.8355 -3.4635 -3.09 -3.9225 -3.277 
-10.688 -4.3535 -3.674 -5.2535 -5.0985 -6.409 -5.448 -6.8025 -5.4525 
-10.688 -6.348001 -5.2535 -8.837501 -7.592501 -8.3435 -9.031 -8.445001 
-12.6825 -7.203001 -8.837501 -10.6215 -9.201501 -12.1251 -10.8105 
-13.5375 -10.028 -10.6215 -12.2305 -13.0677 -13.9046 
-5.0835 0 -4.3535 -3.441 0 -3.891 -4.651 
-5.0835 -4.3535 -7.0795 -3.441 -3.891 -7.076 
-10.0895 -7.0795 -7.0795 -7.4975 -7.076 
-12.9993 -7.0795 -11.891 -11.4451 
-12.9993 -11.891 -15.8386 
-4.3215 0 -3.3435 -3.674 0 -4.0565 -3.074 -3.9285 
-4.3215 -3.3435 -4.9025 -3.674 -4.0565 -7.155 -5.4325 
-8.229 -4.9025 -4.9025 -6.872001 -7.155 -9.3745 
-8.556001 -4.9025 -8.5675 -9.878501 -9.3745 
-8.556001 -8.5675 -11.7186 -12.098 
