-4.759 
n/a 
n/a 
n/a 
n/a 
-4.759 
n/a 
n/a 
n/a 
n/a 
-4.759 
n/a 
n/a 
n/a 
n/a 
-4.759 
n/a 
n/a 
n/a 
n/a 
-6.7085 -2.4945 -4.4935 0 -4.9225 0 -4.4075 0 -5.971 0 -5.371 -5.0795 0 -3.7435 -4.217 0 -5.249 0 -4.373 -1.7565 -5.3525 -1.756 -10.2555 
-7.448 -7.139501 -4.4935 -4.9225 -4.9225 -4.4075 -4.4075 -5.971 -5.971 -5.371 -5.973001 -5.0795 -3.7435 -7.314 -4.217 -5.249 -5.249 -4.373 -4.455 -6.362 -6.4725 -10.837 
-12.7968 -7.139501 -7.569 -4.9225 -8.938 -4.4075 -10.199 -5.971 -8.431 -5.973001 -5.973001 -7.898 -7.314 -7.314 -7.211 -5.249 -8.799 -4.455 -7.3975 -7.2865 -12.9432 
-12.7968 -11.103 -7.569 -8.938 -8.938 -10.199 -10.199 -8.431 -8.508 -5.973001 -7.918 -10.7575 -7.314 -9.8785 -7.211 -8.799 -8.822001 -7.3975 -8.243501 -13.3015 
-16.7603 -11.103 -12.2915 -8.938 -15.1609 -10.199 -12.659 -8.508 -8.508 -7.918 -11.3697 -10.7575 -9.8785 -9.8785 -11.4494 -8.822001 -9.702001 -8.243501 -14.1805 
-3.9485 -2.356 -2.3335 -3.4635 -4.4935 -2.742 -2.489 -3.0365 0 -4.9225 0 -4.2875 0 -5.349 0 -5.0795 -4.63 0 -3.8385 -5.8075 0 -4.6595 -4.217 0 -5.134 0 -6.267 
-4.311 -4.7045 -6.444 -6.8105 -7.046 -3.301 -5.1315 -3.0365 -4.9225 -4.9225 -4.2875 -4.2875 -5.349 -5.349 -5.0795 -7.1645 -4.63 -3.8385 -7.331 -5.8075 -4.6595 -6.318 -4.217 -5.134 -5.134 -6.267 
-6.6215 -9.1295 -10.3116 -9.245501 -7.6355 -5.8575 -5.1315 -9.26 -4.9225 -8.286 -4.2875 -7.422501 -5.349 -8.502001 -7.1645 -7.1645 -8.699 -7.331 -7.331 -8.885 -6.318 -6.318 -7.344 -5.134 -8.17 
-11.2697 -12.9123 -12.7466 -9.7475 -10.66 -5.8575 -10.5135 -9.26 -8.286 -8.286 -7.422501 -7.422501 -8.502001 -11.3316 -7.1645 -11.8501 -12.9199 -7.331 -9.908001 -9.8465 -6.318 -8.5115 -7.344 -8.17 
-15.0525 -15.3473 -13.2486 -12.9276 -10.66 -11.5025 -10.5135 -12.9291 -8.286 -9.657001 -7.422501 -10.3745 -11.3316 -11.3316 -11.8501 -16.071 -12.9199 -9.908001 -11.0445 -9.8465 -8.5115 -8.5115 -10.2535 
-3.9485 -2.356 -2.3335 -1.4985 -3.4635 -3.074 -3.7965 0 -3.8225 -4.2875 0 -5.349 0 -5.0795 -4.217 0 -3.8385 -5.8075 0 -4.6595 -4.217 0 -6.267 0 -3.7435 -5.23 0 
-4.311 -4.7045 -3.3515 -3.6265 -7.585501 -5.1585 -3.7965 -3.8225 -6.2075 -4.2875 -5.349 -5.349 -5.0795 -7.519 -4.217 -3.8385 -7.331 -5.8075 -4.6595 -6.318 -4.217 -6.267 -6.267 -3.7435 -8.4175 -5.23 
-6.6215 -6.5635 -5.757 -7.686 -9.788 -5.1585 -6.9185 -6.2075 -6.2075 -7.422501 -5.349 -8.502001 -7.519 -7.519 -8.136 -7.331 -7.331 -8.885 -6.318 -6.318 -8.4875 -6.267 -9.411 -8.4175 -8.4175 
-8.052501 -8.993501 -9.146001 -9.8255 -9.788 -8.528 -10.5035 -6.2075 -8.7165 -7.422501 -8.502001 -9.861001 -7.519 -11.8154 -9.622 -7.331 -9.908001 -9.8465 -6.318 -9.880501 -8.4875 -9.411 -14.6688 -8.4175 
-10.759 -12.8739 -11.8813 -9.8255 -13.3109 -12.642 -10.5035 -8.7165 -8.7165 -10.3745 -9.861001 -9.861001 -11.8154 -13.3014 -9.622 -9.908001 -11.0445 -9.8465 -9.880501 -9.880501 -11.9331 -14.6688 -14.6688 
-3.9225 -3.45 -3.4635 -3.9285 0 -4.9225 0 -5.5515 0 -5.349 0 -4.6595 -4.217 0 -6.1495 -1.7565 -5.0795 0 -6.267 -1.756 -5.23 0 
-5.533 -7.134501 -8.178 -3.9285 -4.9225 -4.9225 -5.5515 -5.5515 -5.349 -5.349 -4.6595 -6.318 -4.217 -6.1495 -7.166 -7.2015 -5.0795 -6.267 -7.2275 -6.5935 -5.23 
-9.204 -12.3306 -8.178 -8.43 -4.9225 -11.0145 -5.5515 -11.136 -5.349 -8.5825 -6.318 -6.318 -9.115 -7.166 -9.318001 -7.2015 -8.998501 -7.2275 -8.6805 -6.5935 
-14.5287 -12.3306 -13.0131 -8.43 -11.0145 -11.0145 -11.136 -11.136 -8.5825 -9.514501 -6.318 -11.8284 -9.7675 -9.318001 -9.318001 -10.553 -9.9895 -8.6805 -8.6805 
-14.5287 -17.1657 -13.0131 -14.8754 -11.0145 -16.599 -11.136 -14.3695 -9.514501 -9.514501 -11.8284 -12.4809 -12.4209 -9.318001 -12.8083 -12.9266 -11.6895 -8.6805 
