-4.759 
n/a 
n/a 
n/a 
n/a 
-4.759 
n/a 
n/a 
n/a 
n/a 
-4.759 
n/a 
n/a 
n/a 
n/a 
-4.759 
n/a 
n/a 
n/a 
n/a 
-3.1495 -4.164 -1.756 -4.911 -2.0935 -8.283501 
-8.3085 -6.1115 -6.0905 -8.6355 -11.117 
-10.3475 -9.038 -9.9615 -17.999 
-13.274 -14.8164 -19.325 
-19.0524 -24.1799 
-4.621 -3.047 -8.5955 -2.0935 -4.338 -1.7565 -4.4715 0 
-6.166 -11.08 -11.1112 -6.072001 -5.2325 -5.9655 -4.4715 
-14.847 -13.5957 -15.0897 -6.478 -7.6125 -5.9655 
-17.3627 -17.5742 -15.4957 -8.895 -7.6125 
-21.3412 -17.9802 -17.9127 -8.895 
-2.7295 -2.674 -3.047 -1.7695 -4.2765 -10.4705 
-3.8 -7.0315 -5.9705 -4.5005 -15.9466 
-8.039001 -9.7015 -8.977501 -16.393 
-10.9026 -12.7887 -21.0828 
-13.9898 -24.894 
-4.2765 -7.948 -3.3755 -3.047 -1.934 -8.5955 0 
-13.4241 -11.7927 -6.8195 -5.078 -10.2235 -8.5955 
-17.2688 -15.2367 -9.59 -14.0951 -10.2235 
-20.7128 -18.0072 -18.5465 -14.0951 
-23.4833 -26.9637 -18.5465 
