-4.759 
n/a 
n/a 
n/a 
n/a 
-4.759 
n/a 
n/a 
n/a 
n/a 
-4.759 
n/a 
n/a 
n/a 
n/a 
-4.759 
n/a 
n/a 
n/a 
n/a 
-1.4985 -4.231 -1.7565 -4.489 -1.756 -4.621 -3.998 -2.3335 -3.982 -3.1425 -4.2675 -1.4985 -6.504 -1.7565 -3.7345 -4.29 -4.257 -1.934 -1.4985 -3.5455 -4.1355 
-5.5675 -5.486501 -6.212 -6.2105 -6.6635 -10.1075 -5.1075 -6.815001 -7.216001 -6.3785 -5.025001 -8.636001 -9.483 -5.835001 -8.599 -6.901 -6 -2.6125 -4.554 -7.652 
-5.956 -9.600501 -7.283 -7.7605 -12.2912 -10.7395 -9.253501 -7.988501 -9.750501 -7.157 -12.9765 -10.598 -13.6093 -11.2411 -11.5628 -8.028501 -6.687 -5.298 -8.3905 
-9.837501 -10.3765 -8.790501 -13.555 -12.9232 -14.8855 -9.8035 -10.6095 -10.0535 -15.1797 -14.9385 -14.7243 -19.0154 -14.2049 -12.6903 -8.864 -8.672501 -9.634501 
-10.4455 -12.188 -14.6942 -14.187 -17.0692 -15.4355 -12.5861 -10.9125 -18.7114 -17.1417 -19.0648 -20.1304 -21.9792 -15.3324 -13.5258 -10.76 -13.1856 
-1.4985 -4.2245 -1.7565 -8.486501 -1.934 -3.091 -4.142 -4.1355 -1.7565 -3.091 -3.59 -2.925 -4.1315 -2.3335 -6.0965 -1.7565 -4.2815 -2.186 -4.304 -2.3345 -1.4985 -3.982 0 
-5.2345 -5.277 -9.499001 -10.3865 -4.2105 -7.6625 -6.6515 -6.009501 -4.0655 -5.8 -6.1945 -6.492001 -5.608 -8.675501 -7.881001 -5.607 -6.25 -7.849 -7.18 -3.233 -7.043 -3.982 
-5.753 -14.0325 -13.0594 -13.3119 -8.557001 -9.5745 -7.5625 -8.323501 -6.6385 -8.586 -10.1305 -8.008 -12.4276 -10.5524 -12.1359 -7.538 -12.4114 -9.132501 -8.213501 -8.634 -7.043 
-14.9446 -17.4623 -15.7232 -17.7016 -10.701 -10.5393 -10.3885 -10.238 -9.320001 -12.592 -11.6485 -14.8924 -14.3045 -14.8073 -14.0669 -13.8994 -13.6949 -9.7235 -13.9115 -8.634 
-17.958 -19.9073 -20.1129 -19.8456 -11.6658 -13.3653 -12.303 -12.9195 -13.3506 -14.11 -18.5329 -16.7693 -18.5594 -16.7383 -20.4283 -15.1829 -14.2859 -15.4729 -13.9115 
-9.110001 -4.231 -5.2475 -3.982 -2.742 -3.429 -1.4985 -7.7825 -2.264 -4.2815 -1.934 -4.142 -3.7575 0 
-12.232 -8.4195 -9.838001 -6.8605 -4.5865 -4.4635 -9.061001 -10.016 -6.476001 -6.152 -5.173 -6.985001 -3.7575 
-16.9457 -13.373 -13.1831 -8.673 -5.881001 -12.6 -11.5017 -14.3498 -8.276001 -9.854501 -9.7325 -6.985001 
-21.8992 -16.7181 -14.9956 -9.700001 -14.3297 -15.0407 -15.8355 -16.1498 -12.2675 -14.5484 -9.7325 
-25.2443 -18.5306 -16.0226 -18.3385 -16.7704 -19.3745 -17.6355 -20.1413 -16.9614 -14.5484 
-1.4985 -4.231 -1.7565 -4.489 -5.053 -2.8645 -4.22 -1.7695 -2.8705 -3.5455 -4.1355 -4.2815 -4.1315 -1.4985 -3.213 -1.7695 -3.013 -4.176 
-5.5675 -5.486501 -6.212 -8.596001 -8.76 -7.995 -4.8015 -4.124 -6.775001 -7.652 -8.633001 -8.881001 -5.811501 -4.3955 -4.908 -3.7215 -8.187501 
-5.956 -9.600501 -9.774 -12.6596 -13.9733 -9.205 -6.956 -7.603 -10.396 -12.7929 -13.5139 -10.4595 -8.743 -6.08 -6.0235 -9.013 
-9.837501 -13.5253 -13.968 -17.8729 -15.1833 -11.7349 -10.7024 -11.296 -15.5369 -17.6738 -15.0924 -13.391 -9.3745 -8.197001 -11.5226 
-13.9165 -17.7193 -19.1813 -19.0829 -17.7132 -15.4813 -14.3954 -16.4369 -20.4178 -19.2523 -18.0239 -14.0225 -11.9849 -13.9797 
