-4.759 
n/a 
n/a 
n/a 
n/a 
-4.759 
n/a 
n/a 
n/a 
n/a 
-4.759 
n/a 
n/a 
n/a 
n/a 
-4.759 
n/a 
n/a 
n/a 
n/a 
-2.3615 -2.186 -1.4985 -3.4795 -3.995 -1.756 -3.7075 -3.7805 -3.488 -6.875 -3.218 -3.7075 -4.6855 -4.365 -4.4155 -3.5315 -4.4485 -3.218 -4.3655 -3.42 0 
-3.5005 -3.339 -5.2115 -8.1335 -5.3025 -5.7245 -6.981 -7.981501 -9.222501 -11.117 -5.632 -7.3475 -7.6405 -6.259 -8.446001 -5.9125 -8.487 -8.6525 -5.636 -3.42 
-4.3105 -8.256001 -10.733 -10.147 -7.6875 -8.7535 -11.5856 -14.0668 -13.8069 -13.531 -11.9008 -10.702 -7.664001 -8.7015 -11.3808 -9.550501 -14.1621 -10.3045 -5.636 
-9.5535 -13.9045 -12.7465 -12.6564 -11.2491 -13.4271 -17.6709 -18.6512 -16.2209 -19.7998 -15.2553 -10.7815 -10.564 -12.1571 -15.0188 -15.2996 -15.8141 -10.3045 
-15.3132 -15.918 -15.2559 -16.218 -15.9227 -19.5124 -22.2553 -21.0652 -22.4897 -23.1543 -15.3348 -13.6815 -14.0196 -15.7951 -20.7679 -16.9516 -15.8141 
-1.4985 -3.7075 -5.8885 -1.4985 -3.307 -1.7565 -1.4985 -5.732 -3.3755 -2.5045 -1.8085 -4.201 -1.7565 -4.347 -18.52272 -3.7805 -3.277 -2.5195 -1.4985 -5.549 -3.307 0 -4.955 -2.871 -5.8135 -5.1795 0 -2.5045 -4.259 -2.5195 -1.4985 -5.549 -3.5455 -4.918 
-4.6235 -8.4215 -7.105 -4.581 -4.8035 -2.4195 -6.261001 -5.8985 -6.006001 -3.913 -5.440001 -5.451 -5.3115 -22.62382 -22.88632 -6.184 -5.3755 -3.1695 -6.2895 -6.995 -3.307 -4.955 -7.2405 -8.764501 -9.491501 -5.1795 -2.5045 -6.5675 -6.069 -3.1695 -6.2895 -8.48 -5.943501 
-8.479 -8.604501 -9.078 -5.081501 -5.2765 -6.848501 -6.3015 -8.3035 -7.2185 -5.985 -5.923 -7.2275 -24.28552 -27.14102 -22.99182 -7.117 -5.8885 -7.563 -7.149001 -6.995 -8.8205 -7.2405 -10.7175 -10.703 -9.491501 -7.4735 -6.5675 -6.9845 -6.457 -7.563 -9.2405 -9.456 
-8.621 -9.599001 -9.0935 -5.3855 -7.813 -6.862501 -8.412001 -9.173501 -9.126 -6.4725 -7.291 -26.39502 -28.19752 -27.24652 -23.67382 -7.8875 -9.0295 -8.033501 -7.149001 -10.3225 -10.249 -10.7175 -10.743 -10.703 -10.6355 -9.967001 -6.9845 -7.3025 -10.3475 -10.2535 -9.529501 
-9.620501 -9.603001 -9.4395 -7.8535 -7.8165 -8.984 -9.278001 -9.553501 -9.4245 -7.849 -26.72432 -30.46182 -28.30302 -27.92852 -24.31332 -9.0295 -9.1525 -8.033501 -10.3275 -10.339 -10.727 -10.743 -10.743 -10.743 -10.74 -10.09 -7.3025 -10.513 -10.4535 -10.4045 
-2.3615 -3.4795 -3.995 -1.7565 -3.383 -3.535 -4.202 -1.7695 -3.488 -3.859 -3.193 -1.756 -3.5315 -2.543 -4.184 -3.193 0 
-7.275001 -8.1335 -6.804 -5.5535 -5.298 -8.5275 -5.9255 -5.748 -8.589001 -5.9705 -4.7435 -6.0295 -5.572001 -5.624001 -6.4385 -3.193 
-12.2694 -11.4635 -10.4945 -6.973001 -10.2865 -10.674 -10.7526 -11.1266 -10.8445 -7.478 -8.528 -8.067 -7.418 -7.81 -6.4385 
-15.5994 -15.154 -11.914 -12.2957 -12.6166 -15.5011 -16.1312 -13.3821 -12.352 -11.6599 -9.0445 -9.271501 -10.66 -7.81 
-19.2899 -16.5735 -17.2367 -14.6258 -17.4437 -20.8797 -18.3867 -14.8896 -16.5339 -12.1764 -9.791 -12.5185 -10.66 
-3.5455 -3.1495 -3.4795 0 -1.4985 -3.7075 -2.229 -3.535 -4.4995 -4.0705 -3.5015 -2.264 -3.488 -2.461 -1.756 -1.4985 -3.6885 -2.871 -2.264 -3.5315 -2.543 
-5.647 -5.004 -3.4795 -1.4985 -4.6235 -5.5255 -5.6655 -7.809501 -8.161 -5.208 -5.1645 -4.790501 -5.572001 -4.766 -3.0405 -4.992001 -6.5855 -4.9845 -4.8735 -5.572001 
-7.51 -5.004 -5.2895 -4.6235 -5.9985 -9.463 -10.718 -12.1332 -8.443501 -6.276 -7.399 -6.573501 -8.1125 -6.08 -6.4425 -7.601501 -8.529 -8.2865 -6.5465 
-7.51 -6.274 -7.97 -5.9985 -10.2695 -14.8361 -15.0417 -12.4157 -10.4595 -8.5725 -9.441501 -8.586 -9.2445 -9.4615 -8.833 -9.229501 -11.8034 -9.876 
-8.5635 -9.293501 -9.308001 -10.2695 -15.6426 -19.1598 -15.3242 -14.4317 -13.0516 -10.6664 -10.61 -9.824 -12.8776 -11.873 -10.233 -12.7249 -13.3929 
