-4.759 
n/a 
n/a 
n/a 
n/a 
-4.759 
n/a 
n/a 
n/a 
n/a 
-4.759 
n/a 
n/a 
n/a 
n/a 
-4.759 
n/a 
n/a 
n/a 
n/a 
-1.4985 -3.2875 -3.757 -2.5235 -4.0905 
-4.127 -7.7755 -6.8015 -6.362 
-8.323501 -11.1312 -10.7495 
-11.7504 -15.0792 
-15.6984 
-2.5685 -1.4985 -3.2295 -1.4985 -3.5015 0 -3.1435 -2.7455 -2.5235 -4.0905 0 
-3.7015 -5.705501 -3.844 -4.737 -3.5015 -3.1435 -6.2235 -4.709 -6.362 -4.0905 
-7.943 -6.4975 -5.859 -4.737 -6.838 -6.2235 -8.5565 -8.769501 -6.362 
-8.445001 -9.945001 -5.859 -7.984 -9.489 -8.5565 -12.8956 -8.769501 
-10.025 -9.945001 -8.830501 -10.503 -11.8872 -12.8956 -12.8956 
-6.4075 -7.643 -4.1735 -7.926001 
-14.6665 -10.139 -11.136 
-17.1625 -17.5859 
-24.6094 
n/a 
-12.16972 -4.1735 -7.926001 
-16.34322 -11.136 
-23.30572 
n/a 
n/a 
