-4.759 
n/a 
n/a 
n/a 
n/a 
-4.759 
n/a 
n/a 
n/a 
n/a 
-4.759 
n/a 
n/a 
n/a 
n/a 
-4.759 
n/a 
n/a 
n/a 
n/a 
-1.4985 -4.7595 -4.4845 -5.4435 -4.5625 -2.5195 0 -3.4075 -4.644 0 
-5.9285 -6.616 -11.117 -9.828501 -5.8165 -2.5195 -3.4075 -5.3585 -4.644 
-7.424001 -13.8875 -15.502 -11.1387 -5.8165 -5.903 -5.3585 -5.3585 
-15.0017 -18.2725 -16.8122 -11.1387 -9.4865 -7.041 -5.3585 
-19.3867 -19.5827 -16.8122 -14.8087 -10.7585 -7.041 
-3.4075 -4.644 -3.955 -4.336 
-5.3585 -6.693 -8.71 
-6.6965 -12.2212 
-12.2303 
n/a 
-8.985001 -4.8085 -2.0935 -3.4075 -4.644 
-14.0257 -7.236 -5.4425 -5.3585 
-16.4532 -9.3585 -7.3215 
-18.5757 -9.568501 
-18.7857 
-4.999 -5.2785 -1.934 -3.4075 -4.644 
-12.1109 -6.8645 -5.572001 -5.3585 
-13.6969 -11.1699 -7.357501 
-18.0023 -12.9554 
-19.7878 
