-4.759 
n/a 
n/a 
n/a 
n/a 
-4.759 
n/a 
n/a 
n/a 
n/a 
-4.759 
n/a 
n/a 
n/a 
n/a 
-4.759 
n/a 
n/a 
n/a 
n/a 
-10.9655 0 -6.518 -7.245 
-10.9655 -6.518 -8.316 
-17.4835 -8.316 
-19.2815 
n/a 
-4.928 -4.352 0 -6.518 -7.245 0 
-8.701 -4.352 -6.518 -8.316 -7.245 
-8.701 -8.0135 -8.316 -8.316 
-9.881001 -9.715501 -8.316 
-9.9125 -9.715501 
-4.352 -4.0455 0 -6.518 -7.245 0 -6.518 -7.245 0 
-6.6575 -4.0455 -6.518 -8.316 -7.245 -6.518 -8.316 -7.245 
-6.6575 -8.283501 -8.316 -8.316 -9.564501 -8.316 -8.316 
-8.736 -9.165501 -8.316 -9.566501 -10.1125 -8.316 
-9.928 -9.165501 -9.566501 -10.1165 -10.1125 
-3.5435 0 -6.518 -7.245 
-3.5435 -6.518 -8.316 
-11.4885 -8.316 
-13.2865 
n/a 
