-4.759 
n/a 
n/a 
n/a 
n/a 
-4.759 
n/a 
n/a 
n/a 
n/a 
-4.759 
n/a 
n/a 
n/a 
n/a 
-4.759 
n/a 
n/a 
n/a 
n/a 
-3.321 -1.4985 -4.015 -3.959 -2.7415 -4.09 -1.934 -5.269 0 
-4.481 -5.1595 -7.469001 -6.7755 -5.289001 -5.2875 -7.124 -5.269 
-8.5465 -8.768001 -9.762501 -9.062 -6.215 -10.4105 -7.124 
-12.322 -11.6165 -12.22 -10.3045 -11.7694 -10.4105 
-15.1705 -14.074 -13.4625 -15.8589 -11.7694 
-2.872 -5.712501 -4.09 -3.222 -1.8085 -4.127 -1.756 -5.59 -3.59 0 
-9.096001 -10.7095 -6.136 -4.144 -5.2565 -5.780001 -6.813 -9.0385 -3.59 
-15.347 -12.6561 -6.474 -6.99 -6.803 -10.1635 -9.8465 -9.0385 
-17.4482 -12.9941 -8.619 -8.3435 -11.6171 -13.197 -9.8465 
-17.7862 -15.1391 -9.836 -13.3924 -14.6506 -13.197 
-2.872 -5.036 -4.09 -4.179 -2.5045 -1.8085 -4.4985 -1.756 -5.644 -3.59 0 
-5.752 -9.303 -8.1105 -5.561 -3.3625 -7.463 -5.678 -6.9455 -8.115 -3.59 
-13.1655 -12.6321 -9.2085 -6.060501 -9.012501 -8.7045 -10.426 -8.855 -8.115 
-17.5758 -13.8821 -9.5185 -10.688 -10.0255 -13.5985 -12.3355 -8.855 
-18.6738 -14.1921 -14.1986 -11.701 -14.9195 -15.508 -12.3355 
-3.6705 0 -2.4265 -4.8445 -4.179 -2.5045 -1.8085 -4.127 -1.756 -5.177 -4.1265 
-3.6705 -2.4265 -6.506001 -9.5245 -5.561 -3.3625 -5.2565 -5.780001 -6.724 -7.9845 
-4.959001 -6.506001 -10.459 -11.1671 -6.060501 -6.7995 -6.803 -9.694501 -9.123501 
-9.103001 -10.459 -12.1016 -11.6666 -8.473001 -8.3585 -10.2535 -10.6625 
-13.1966 -12.1016 -12.6011 -14.0791 -9.696001 -11.961 -11.2215 
