-4.759 
n/a 
n/a 
n/a 
n/a 
-4.759 
n/a 
n/a 
n/a 
n/a 
-4.759 
n/a 
n/a 
n/a 
n/a 
-4.759 
n/a 
n/a 
n/a 
n/a 
-2.5685 -1.4985 -4.7855 -3.3435 -4.066 -1.934 -1.8085 -4.015 -4.082 0 
-3.7015 -6.361 -7.6495 -6.981 -5.226 -3.2685 -4.5105 -7.6785 -4.082 
-7.973 -9.641001 -12.2218 -8.436001 -6.1255 -5.544 -7.944 -7.6785 
-11.502 -14.4493 -13.6768 -9.340501 -9.92 -9.215501 -7.944 
-16.3103 -15.9043 -14.5813 -13.3044 -13.5915 -9.215501 
-2.5685 -1.4985 -4.7855 -3.3435 -1.934 -3.402 -2.264 -3.135 -5.373 -4.1665 
-3.7015 -6.361 -7.6495 -4.8115 -7.027 -3.793 -4.988 -8.497001 -10.1035 
-7.973 -9.641001 -10.0505 -10.6531 -7.2145 -6.4855 -10.2585 -13.5335 
-11.502 -12.278 -15.9775 -10.8406 -9.685501 -12.344 -15.295 
-14.139 -18.205 -16.165 -13.3116 -15.5798 -17.3805 
-2.5685 -4.7855 -2.229 -3.3435 -2.186 -3.402 -2.264 -2.9995 -3.519 0 
-6.5705 -8.522 -5.0415 -4.9685 -4.6135 -3.793 -4.6735 -5.151 -3.519 
-10.634 -11.5575 -6.410501 -7.64 -4.731 -6.481501 -7.614501 -5.151 
-13.6695 -12.9265 -9.175 -7.75 -7.8565 -9.0765 -7.614501 
-15.0385 -15.691 -9.280001 -11.0207 -10.609 -9.0765 
-2.5685 -3.6835 -3.3435 -2.7455 -7.6445 0 
-6.053 -5.7725 -6.288 -10.6095 -7.6445 
-7.4295 -8.993501 -14.9322 -10.6095 
-11.0003 -17.7253 -14.9322 
-19.7321 -17.7253 
