-4.759 
n/a 
n/a 
n/a 
n/a 
-4.759 
n/a 
n/a 
n/a 
n/a 
-4.759 
n/a 
n/a 
n/a 
n/a 
-4.759 
n/a 
n/a 
n/a 
n/a 
-4.584 0 -4.4485 -6.844 -3.8275 
-4.584 -4.4485 -12.3467 -8.3745 
-9.513 -12.3467 -13.8772 
-17.7668 -13.8772 
-19.2973 
-4.0105 -4.867 0 -3.8275 -2.0935 -6.844 -4.288 
-9.665001 -4.867 -3.8275 -5.976 -8.861 -10.304 
-9.665001 -8.696 -5.976 -10.6735 -12.5272 
-13.6736 -11.5025 -10.6735 -14.3397 
-16.4801 -16.2 -14.3397 
-3.0835 -3.518 -3.522 0 -4.4145 -6.844 -3.8275 
-5.979 -7.7975 -3.522 -4.4145 -10.007 -8.3745 
-10.7595 -7.7975 -7.936 -10.007 -10.012 
-10.7595 -12.7309 -14.1203 -10.012 
-15.6929 -18.9152 -14.1253 
-4.432 -4.703 0 -6.844 -3.8275 -4.288 
-8.7325 -4.703 -6.844 -8.3745 -7.441 
-8.7325 -12.5748 -8.3745 -8.8 
-16.9855 -14.1053 -8.8 
-18.516 -14.5308 
