-4.759 
n/a 
n/a 
n/a 
n/a 
-4.759 
n/a 
n/a 
n/a 
n/a 
-4.759 
n/a 
n/a 
n/a 
n/a 
-4.759 
n/a 
n/a 
n/a 
n/a 
-10.9655 
n/a 
n/a 
n/a 
n/a 
-10.9655 0 -2.3615 -3.32 -4.431 -2.7455 -1.4985 -3.6615 -1.7695 -3.9355 -3.851 -1.7695 -1.4985 -3.4635 -3.8235 
-10.9655 -2.3615 -4.3375 -8.132 -5.132 -3.637 -4.9455 -4.667 -6.629001 -7.838 -4.0015 -2.7955 -3.6265 -7.170001 
-13.327 -4.3375 -8.4735 -8.215 -5.7945 -6.6775 -5.743001 -9.527 -10.9927 -8.187 -4.5775 -4.96 -7.2155 
-15.303 -8.4735 -8.5535 -8.762 -8.345 -7.742001 -11.247 -14.0477 -11.3417 -8.534 -6.467 -9.113501 
-19.439 -8.5535 -9.0205 -11.4839 -9.627501 -13.0676 -15.7677 -14.3967 -11.6887 -10.5457 -11.8583 
-12.16972 
n/a 
n/a 
n/a 
n/a 
-6.3505 
n/a 
n/a 
n/a 
n/a 
