-4.759 
n/a 
n/a 
n/a 
n/a 
-4.759 
n/a 
n/a 
n/a 
n/a 
-4.759 
n/a 
n/a 
n/a 
n/a 
-4.759 
n/a 
n/a 
n/a 
n/a 

n/a 
n/a 
n/a 
n/a 
-3.729 -4.0105 -8.874001 -12.16972 0 -12.16972 -11.0235 
-8.3765 -14.0779 -21.31032 -12.16972 -12.16972 -23.19322 
-18.7149 -26.51422 -21.31032 -24.33944 -23.19322 
-31.15122 -26.51422 -33.48004 -35.36294 
-31.15122 -38.68394 -44.50354 
-1.934 -1.4985 -4.8135 -1.7565 -1.4985 -3.729 -1.4985 -7.969 -1.7565 -5.4175 -6.7085 -1.756 -6.942 -2.186 -4.1935 0 
-2.6125 -5.4845 -6.0305 -2.4195 -4.763 -5.25 -8.8035 -8.753 -7.37 -7.1765 -8.393001 -8.6765 -9.165001 -5.2835 -4.1935 
-6.955 -6.236001 -6.310501 -5.4075 -6.3475 -12.9536 -9.156 -10.5865 -8.2015 -8.644 -9.386001 -11.1023 -12.3783 -5.2835 
-7.8085 -6.502 -7.837 -6.748001 -14.2747 -13.3061 -10.6105 -10.6055 -9.271501 -9.4055 -12.3498 -14.3156 -12.3783 
-8.006001 -8.21 -8.963501 -14.7478 -14.6272 -14.7606 -10.6305 -10.636 -9.838 -12.3953 -15.5631 -14.3156 
-2.4265 -2.8645 -5.285 -4.1365 -1.7565 -6.942 -5.9185 -1.756 -5.4175 -6.7085 -1.934 -1.4985 -3.0835 -3.6575 -4.179 
-4.1435 -9.341001 -6.688001 -6.0305 -8.6125 -7.795001 -7.416501 -7.3875 -7.1765 -8.272501 -2.6125 -3.535 -7.0225 -7.3225 
-10.9568 -10.9912 -8.0495 -13.4515 -8.952001 -9.39 -9.812 -8.742001 -8.325 -8.934501 -4.5575 -7.160501 -11.4115 
-12.607 -12.3527 -15.8623 -13.791 -9.859501 -9.8885 -9.8745 -10.4345 -8.991 -11.5837 -7.797501 -11.7799 
-13.9685 -20.1655 -16.2018 -14.6985 -10.055 -9.922501 -11.717 -11.1005 -11.7556 -14.8237 -12.6407 
