-4.759 
n/a 
n/a 
n/a 
n/a 
-4.759 
n/a 
n/a 
n/a 
n/a 
-4.759 
n/a 
n/a 
n/a 
n/a 
-4.759 
n/a 
n/a 
n/a 
n/a 
-3.288 0 -17.859 
-3.288 -11.783 
-11.7975 
n/a 
n/a 
-3.288 0 -17.859 -4.3775 
-3.288 -11.783 -14.2285 
-11.7975 -9.264501 
-12.765 
n/a 
-21.147 0 -4.3775 -1.7565 -6.3395 -10.1825 0 
-15.491 -4.3775 -6.3195 -7.830501 -17.2606 -10.1825 
-12.9725 -6.3195 -10.451 -19.1652 -17.2606 
-12.7685 -10.451 -21.7857 -19.1652 
-15.2604 -21.7857 -21.7857 
-3.288 0 -7.154 -4.1735 0 -6.5315 -4.3775 
-3.288 -7.154 -8.081 -4.1735 -6.5315 -8.977 
-10.862 -8.081 -8.081 -7.8755 -8.977 
-11.789 -8.081 -8.0895 -9.0505 
-11.789 -8.0895 -9.057 
