-4.759 
n/a 
n/a 
n/a 
n/a 
-4.759 
n/a 
n/a 
n/a 
n/a 
-4.759 
n/a 
n/a 
n/a 
n/a 
-4.759 
n/a 
n/a 
n/a 
n/a 
-3.147 -3.711 -5.309 -3.152 -3.074 -3.6705 0 
-7.2255 -8.593 -6.841 -5.0635 -6.1185 -3.6705 
-12.8353 -10.19 -8.7575 -7.8215 -6.1185 
-14.4323 -12.1065 -11.7025 -7.8215 
-16.3488 -15.0515 -11.7025 
-3.147 -4.1455 -5.3815 -3.074 -3.937 -3.8125 0 
-7.877 -8.3025 -8.269501 -6.669001 -8.164001 -3.8125 
-12.4992 -11.4299 -12.1037 -11.0766 -8.164001 
-15.6266 -15.2641 -16.5113 -11.0766 
-19.4608 -19.6717 -16.5113 
-3.711 -4.9175 -3.074 -4.254 -3.147 
-8.865001 -8.4165 -5.9305 -7.0645 
-12.7312 -11.5712 -9.247001 
-15.8859 -14.8877 
-19.2024 
-3.711 -5.309 -2.4945 -4.254 -3.147 
-8.593 -7.1465 -6.880001 -7.0645 
-10.354 -10.5325 -10.2135 
-13.74 -13.866 
-17.0735 
