-4.759 
n/a 
n/a 
n/a 
n/a 
-4.759 
n/a 
n/a 
n/a 
n/a 
-4.759 
n/a 
n/a 
n/a 
n/a 
-4.759 
n/a 
n/a 
n/a 
n/a 
-7.2515 -2.264 -1.4985 -4.5735 -1.7565 -4.0145 0 
-9.6425 -2.9195 -5.2005 -5.421 -5.774001 -4.0145 
-10.102 -6.7345 -5.5915 -9.706 -5.774001 
-14.116 -7.019001 -9.743501 -9.706 
-14.4005 -11.344 -9.743501 
-5.022 -3.9005 -2.3345 -7.2515 
-9.9755 -7.527 -8.995501 
-13.6966 -14.4974 
-20.667 
n/a 
-5.0485 -1.7565 -4.0145 -2.3345 -7.2515 
-5.5 -5.774001 -6.3755 -8.995501 
-10.598 -7.8385 -13.5019 
-12.6625 -15.3023 
-20.1263 
-4.414 -1.7565 -12.16972 -2.7455 -1.4985 -4.0145 -3.918 0 
-5.851 -14.87542 -14.91522 -3.637 -5.0175 -8.498501 -3.918 
-19.62792 -17.62092 -15.80672 -7.127501 -9.844001 -8.498501 
-22.37342 -18.51242 -19.29722 -12.344 -9.844001 
-23.26492 -22.00292 -24.51372 -12.344 
