-4.759 
n/a 
n/a 
n/a 
n/a 
-4.759 
n/a 
n/a 
n/a 
n/a 
-4.759 
n/a 
n/a 
n/a 
n/a 
-4.759 
n/a 
n/a 
n/a 
n/a 
-3.2615 -4.0155 -5.0685 -1.7565 -4.431 -1.934 -4.051 -3.959 0 -1.934 -1.4985 -3.158 -3.428 0 -3.0365 -3.152 -3.5725 -3.992 -4.461 -1.934 -1.4985 -4.431 0 
-6.139 -7.4515 -5.8925 -6.3585 -6.232 -5.608 -5.893 -3.959 -1.934 -2.6125 -4.178 -5.7095 -3.428 -3.0365 -4.453 -5.476501 -9.113501 -8.911 -5.015501 -2.6125 -6.122001 -4.431 
-8.547501 -7.907 -7.9815 -7.681001 -10.172 -6.5045 -5.893 -5.2625 -2.6125 -5.265 -6.6765 -5.7095 -6.385 -4.453 -6.601 -11.8259 -14.2705 -9.816501 -5.630001 -7.2345 -6.122001 
-8.8715 -9.243501 -9.056 -11.8528 -11.0685 -6.5045 -7.395 -5.7365 -5.265 -7.34 -6.6765 -8.5465 -7.0965 -6.601 -13.554 -16.9829 -15.176 -10.753 -10.6735 -7.2345 
-10.007 -10.3685 -13.3148 -12.7493 -11.0685 -8.062501 -8.1905 -8.5485 -7.34 -7.34 -8.924001 -8.905001 -9.506001 -13.554 -18.711 -17.8884 -16.1125 -15.7965 -10.6735 
-3.2615 -1.4985 -4.0155 -4.07 -4.431 -4.4825 -1.934 -2.8965 -3.959 0 -3.0365 -2.7415 -1.8085 -4.2605 -1.7565 -3.1495 -5.716 -3.8255 -4.4195 -1.934 -3.428 0 
-4.032 -5.148 -7.7305 -8.196501 -9.514501 -5.5625 -4.391 -4.940001 -3.959 -3.0365 -4.2225 -3.891 -5.3945 -5.676001 -3.914 -7.915501 -9.863501 -7.811501 -6.069 -4.979 -3.428 
-7.457 -8.6665 -12.2824 -13.552 -10.623 -7.734 -5.7075 -4.940001 -6.476 -4.2225 -4.725 -7.525 -6.749001 -7.966001 -8.671 -12.568 -14.0431 -8.668 -9.456501 -4.979 
-10.3605 -13.477 -17.6379 -14.6605 -12.7945 -8.55 -5.7075 -7.446 -7.817 -4.725 -8.2335 -8.7465 -10.5525 -13.1142 -13.4793 -16.7476 -14.8996 -12.4903 -9.456501 
-15.7696 -18.8325 -18.7464 -16.832 -13.6105 -8.55 -7.892 -8.755 -8.2845 -8.2335 -9.403001 -12.6654 -15.7007 -17.9225 -17.6589 -17.6041 -18.7219 -12.4903 
-2.5045 -3.3235 -2.5045 -1.7695 -1.4985 -4.6225 -3.7435 -1.7565 -3.914 -4.7855 -2.674 -4.938 -2.3345 -3.2775 -4.4965 -3.326 
-3.7105 -3.8485 -4.334 -2.7955 -6.51 -7.538501 -4.905 -5.071 -8.876 -6.294 -5.9755 -6.2025 -5.3825 -7.535 -7.3655 
-3.8545 -5.489 -5.035 -7.8585 -8.9125 -7.653501 -6.278 -9.450001 -9.460501 -9.396 -7.9975 -8.422 -8.894 -10.159 
-5.4915 -6.252501 -9.809 -9.4715 -9.045001 -8.755501 -9.927 -9.782001 -10.124 -10.144 -9.9245 -12.2861 -11.8666 
-6.255001 -9.910001 -9.9755 -9.4925 -9.259501 -10.0215 -9.9385 -10.142 -10.1585 -10.159 -14.2374 -15.2587 
-3.2615 -4.0155 -5.0685 -1.7565 -4.241 -3.9075 -4.005 -1.934 -4.6835 0 -3.9075 -4.0555 -1.7695 -4.2215 -3.5725 -1.934 -3.3635 
-6.139 -7.4515 -5.8925 -5.321 -7.832 -8.334001 -4.808 -7.482 -4.6835 -3.9075 -8.302 -4.7475 -5.1985 -6.422501 -5.073 -4.921 
-8.547501 -7.907 -8.9175 -9.346001 -10.586 -9.280001 -10.7175 -7.482 -8.851 -8.302 -9.238001 -7.9885 -7.035501 -7.794501 -9.198501 
-8.8715 -9.76 -14.4465 -12.2144 -11.532 -15.3391 -10.7175 -11.9853 -13.6849 -9.238001 -12.725 -9.9505 -8.2875 -12.355 
-10.8989 -15.4466 -17.3149 -13.1604 -17.5911 -15.3391 -15.2208 -16.8192 -14.6209 -12.725 -14.687 -11.2025 -12.9922 
