-4.759 
n/a 
n/a 
n/a 
n/a 
-4.759 
n/a 
n/a 
n/a 
n/a 
-4.759 
n/a 
n/a 
n/a 
n/a 
-4.759 
n/a 
n/a 
n/a 
n/a 
-2.5045 -1.8085 -4.8015 -1.7565 -2.3615 -5.213 -6.184 -4.3355 -4.706 -1.934 -3.5455 0 -4.4935 -4.3355 -1.934 -3.641 0 -4.963 -4.3355 -1.934 -3.502 -1.756 -3.616 -4.1115 -1.934 -3.75 0 
-3.3625 -6.308001 -5.884501 -3.523 -6.9075 -12.2976 -8.1955 -8.3785 -5.462501 -4.8495 -3.5455 -4.4935 -5.761 -6.371 -5.245 -3.641 -4.963 -8.415501 -6.371 -4.8155 -5.513 -5.2995 -5.8985 -6.1155 -5.3465 -3.75 
-7.542 -7.521 -7.735001 -7.578001 -14.4297 -14.3091 -12.7067 -9.844501 -8.849501 -4.8495 -5.777 -5.761 -7.419001 -9.5165 -5.245 -7.297 -8.415501 -10.341 -8.966001 -6.947001 -9.184 -7.439 -7.752501 -9.1 -5.3465 
-9.0155 -9.9375 -12.204 -15.1898 -16.4412 -18.8203 -14.1727 -13.2429 -8.849501 -7.617001 -6.736501 -7.419001 -9.925 -9.5165 -9.7775 -11.6789 -10.341 -13.0662 -11.2833 -11.729 -10.587 -9.516001 -11.028 -9.1 
-11.4722 -14.4779 -19.8158 -17.2013 -20.9524 -20.2863 -17.5711 -13.2429 -11.6586 -9.256001 -8.584001 -9.925 -9.925 -14.2618 -14.24 -13.6044 -13.0662 -15.3835 -16.0653 -13.132 -13.1076 -12.8941 -11.028 

n/a 
n/a 
n/a 
n/a 
-1.4985 -4.8925 -2.4945 -9.729501 -4.3355 0 -8.134501 -4.3355 0 -8.465 -4.1115 0 -1.756 -7.366 -4.1115 
-5.535501 -6.469501 -13.5195 -11.9295 -4.3355 -7.138 -8.4055 -4.3355 -8.148001 -9.411 -4.1115 -1.756 -9.34 -9.8015 
-7.405 -16.1719 -16.054 -12.0551 -9.438001 -8.688001 -8.688001 -9.558001 -9.9305 -9.9305 -5.537 -9.774 -10.9385 
-17.2162 -18.3808 -16.054 -17.6258 -10.042 -8.688001 -12.7454 -13.2611 -9.9305 -11.0405 -13.398 -10.1255 
-19.3533 -18.3808 -21.6247 -18.2298 -10.042 -12.7454 -16.4481 -13.2611 -11.0405 -19.1938 -13.7495 
-2.5045 -4.8925 -2.0935 -2.3615 -3.0365 -2.186 -4.975 -4.3355 -1.934 -1.4985 -3.5455 0 -4.4935 -4.3355 -1.934 -1.4985 -3.75 0 -4.1385 -4.3355 -1.934 -1.4985 -3.502 -1.756 -4.963 -4.1115 -1.934 -1.4985 -3.641 
-7.686001 -6.513 -3.854 -5.891 -3.66 -8.331 -6.198 -6.371 -2.6125 -4.554 -3.5455 -4.4935 -5.761 -6.371 -2.6125 -4.8715 -3.75 -4.1385 -5.686 -6.371 -2.6125 -4.5955 -5.513 -6.627 -6.226 -6.1155 -2.6125 -4.644 
-8.769501 -8.295501 -7.271 -6.4 -10.1945 -10.4345 -7.913001 -7.022501 -5.298 -4.554 -5.777 -5.761 -7.419001 -7.022501 -5.621 -4.8715 -6.7005 -5.686 -7.355 -7.022501 -5.258 -5.966001 -9.972501 -7.989 -7.792 -6.6895 -5.3205 
-10.8102 -12.0753 -7.7445 -13.1717 -12.298 -12.1495 -8.51 -8.694 -5.298 -6.112 -6.736501 -7.419001 -7.9285 -8.3465 -5.621 -7.572001 -8.3585 -7.355 -7.9135 -8.3985 -6.465 -10.1675 -11.4285 -9.5205 -8.298 -8.175501 
-14.59 -12.5488 -14.654 -15.2752 -14.013 -12.7465 -9.129001 -8.694 -6.647501 -7.0225 -8.584001 -7.9285 -8.701 -8.3465 -8.4615 -9.188001 -10.3345 -7.9135 -9.403 -9.445001 -10.5425 -11.6901 -12.96 -9.955001 -9.346001 
