-4.759 
n/a 
n/a 
n/a 
n/a 
-4.759 
n/a 
n/a 
n/a 
n/a 
-4.759 
n/a 
n/a 
n/a 
n/a 
-4.759 
n/a 
n/a 
n/a 
n/a 
-7.448 -4.25 -6.623 -5.508 -4.0045 
-9.006001 -12.1482 -12.9368 -7.724501 
-17.001 -18.462 -15.1533 
-23.3148 -20.6785 
-25.5313 
-8.9355 -4.25 -3.8735 -2.229 -5.402 
-11.57 -8.5355 -5.3655 -6.279 
-15.2002 -9.594 -10.9255 
-16.4265 -15.7436 
-22.5761 
-3.9555 -4.25 -3.8735 -2.229 -5.009501 0 
-5.8495 -8.5355 -5.3655 -7.1245 -4.7555 
-9.3225 -9.594 -10.632 -6.1915 
-10.5488 -14.7486 -10.3965 
-15.7034 -14.7486 
-8.9355 -4.25 -6.623 -5.402 
-11.57 -12.1482 -12.7555 
-20.1788 -18.2807 
-26.3113 
n/a 
