-4.759 
n/a 
n/a 
n/a 
n/a 
-4.759 
n/a 
n/a 
n/a 
n/a 
-4.759 
n/a 
n/a 
n/a 
n/a 
-4.759 
n/a 
n/a 
n/a 
n/a 
-2.5045 -3.106 0 -3.2615 -3.091 -5.437 -5.5785 -4.101 -1.7695 -4.088 -1.7695 -3.429 -6.0585 -3.6435 0 
-5.558001 -3.106 -3.2615 -5.3045 -7.42 -11.9819 -8.8155 -4.6905 -5.860001 -6.1505 -4.032 -10.9237 -10.543 -3.6435 
-5.558001 -6.9565 -5.3045 -8.8925 -14.5645 -15.2189 -9.179501 -7.447001 -7.072001 -8.089001 -11.8081 -15.4082 -10.543 
-8.6875 -9.0765 -8.8925 -16.2384 -17.8015 -15.5829 -10.7345 -8.177001 -8.705501 -16.2817 -16.2926 -15.4082 
-10.621 -12.7125 -16.2384 -19.4754 -18.1655 -17.1379 -11.4645 -10.2185 -17.3442 -20.7662 -16.2926 
-3.034 -2.9805 -2.7415 -3.106 -3.277 -3.5905 0 -3.2615 -4.993 -3.091 -5.437 -5.5785 -4.101 -1.7695 -4.088 -1.7695 -3.6645 -3.5035 -1.7695 -2.489 -1.8085 -6.0585 0 
-4.4605 -4.004 -6.2625 -5.105 -4.7035 -3.5905 -3.2615 -6.2695 -6.889 -7.42 -11.9819 -8.8155 -4.6905 -5.860001 -6.1505 -4.9955 -7.2025 -5.3545 -3.1405 -3.799 -6.594 -6.0585 
-5.2415 -7.278 -7.296 -5.816 -4.7035 -7.0235 -6.2695 -7.431 -9.219 -14.5645 -15.2189 -9.179501 -7.447001 -7.072001 -8.108001 -7.431 -9.2465 -6.4985 -4.2615 -8.261001 -6.594 
-7.588 -7.9905 -7.428 -5.816 -7.4465 -9.615 -7.431 -9.408501 -16.5891 -17.8015 -15.5829 -10.7345 -8.177001 -8.257501 -9.429001 -9.4005 -10.6885 -7.908 -8.3605 -8.261001 
-8.312 -8.035501 -7.428 -8.8065 -9.8125 -10.7595 -9.408501 -16.8762 -19.8261 -18.1655 -17.1379 -11.4645 -8.805 -9.577001 -11.5199 -10.9299 -12.098 -12.3822 -8.3605 
-2.5045 -1.4985 -3.7515 -1.7565 -3.106 0 -2.9805 -4.4945 -3.091 -5.437 -1.756 -4.101 -1.7695 -4.088 -2.0935 -4.9135 -3.5035 -1.7695 -5.5055 -1.8085 -6.0585 
-3.1915 -4.705501 -4.6045 -5.126 -3.106 -2.9805 -6.165 -6.371 -7.42 -6.5415 -5.32 -4.6905 -5.860001 -6.396 -6.104 -7.385 -5.3545 -5.7815 -6.481501 -6.594 
-5.443 -4.844501 -5.798 -5.126 -6.684501 -6.165 -6.982501 -8.8295 -8.4065 -9.7605 -5.9125 -7.447001 -7.377501 -10.688 -9.2065 -9.439501 -9.293 -6.7435 -12.0326 
-5.454 -5.809 -5.798 -7.817501 -9.599501 -6.982501 -9.244 -9.662001 -10.4765 -10.1025 -8.719001 -8.644001 -12.0195 -13.7905 -11.196 -13.5192 -9.851501 -12.3248 
-7.0075 -5.809 -7.842 -11.0341 -10.6235 -9.244 -10.2705 -11.8464 -10.8185 -13.1572 -10.0405 -13.5544 -15.122 -15.78 -15.2757 -14.0777 -16.2394 
-3.2615 -4.993 -5.437 -2.5045 -3.106 -2.9805 -4.101 -1.7695 -4.088 -1.7695 -3.956 -3.091 -3.6645 -2.5045 -1.8085 -6.0585 
-6.2695 -9.762 -7.3955 -5.558001 -6.684501 -5.2985 -4.6905 -5.860001 -6.1505 -4.6005 -6.3875 -6.4445 -6.227 -3.3625 -6.594 
-10.1505 -11.7421 -10.419 -7.944 -8.672501 -5.869 -7.447001 -7.072001 -8.811001 -6.588 -8.646501 -8.6115 -7.02 -7.1895 
-12.1306 -14.7656 -12.805 -9.404 -8.915501 -8.146001 -8.177001 -9.198001 -9.4125 -8.737 -11.3613 -9.298 -11.3134 
-15.1541 -17.1516 -14.265 -9.526501 -11.4209 -8.899501 -10.168 -9.589001 -11.8243 -11.4778 -12.0478 -13.6376 
