-4.759 
n/a 
n/a 
n/a 
n/a 
-4.759 
n/a 
n/a 
n/a 
n/a 
-4.759 
n/a 
n/a 
n/a 
n/a 
-4.759 
n/a 
n/a 
n/a 
n/a 
-3.5155 -3.6085 -1.756 -3.9685 -2.4945 -4.9295 -4.2915 
-6.3965 -5.232 -5.691 -6.8975 -7.798501 -10.7175 
-6.4415 -6.2885 -7.701 -12.5373 -14.1215 
-7.2675 -7.924001 -13.824 -18.8603 
-9.094501 -14.3182 -20.147 
-3.6085 0 -3.9685 -2.4945 -4.6825 -3.6885 
-3.6085 -3.9685 -6.8975 -8.595501 -9.169001 
-5.392 -6.8975 -13.3343 -13.3216 
-9.389001 -13.3343 -18.0604 
-16.1882 -18.0604 
-3.6085 -1.756 -3.9685 -2.4945 -3.5155 -3.915 -4.2915 0 
-5.232 -5.691 -6.8975 -5.238501 -7.025001 -6.235001 -4.2915 
-6.2885 -7.701 -9.370001 -8.862 -7.227 -6.235001 
-7.924001 -9.528 -9.8815 -9.127001 -7.227 
-9.7305 -9.882 -9.960501 -9.127001 
-3.6085 -1.756 -3.9685 -2.4945 -1.4985 -3.915 -3.6885 0 
-5.232 -5.691 -6.8975 -3.9315 -4.5295 -6.26 -3.6885 
-6.2885 -7.701 -7.958 -6.762 -6.6105 -6.26 
-7.924001 -8.137 -8.7335 -9.935 -6.6105 
-8.224501 -8.7355 -13.7359 -9.935 
