-4.759 
n/a 
n/a 
n/a 
n/a 
-4.759 
n/a 
n/a 
n/a 
n/a 
-4.759 
n/a 
n/a 
n/a 
n/a 
-4.759 
n/a 
n/a 
n/a 
n/a 
-7.588 0 -7.599 -7.4725 -4.3035 0 
-7.588 -7.599 -15.6211 -12.214 -4.3035 
-15.7048 -15.6211 -20.3626 -12.214 
-23.7269 -20.3626 -20.3626 
-28.4684 -20.3626 
-7.588 0 -7.599 -7.4725 -10.187 
-7.588 -7.599 -15.6211 -18.0975 
-15.7048 -15.6211 -26.2461 
-23.7269 -26.2461 
-34.3519 
-10.9655 -1.756 -7.599 -7.4725 -4.3035 
-12.7215 -9.352 -15.6211 -12.214 
-20.3175 -17.4471 -20.3626 
-28.4126 -22.1886 
-33.1541 
-12.16972 0 -7.599 -7.4725 -3.913 
-12.16972 -7.599 -15.6211 -11.8235 
-19.76872 -15.6211 -19.9721 
-27.79082 -19.9721 
-32.14182 
