-4.759 
n/a 
n/a 
n/a 
n/a 
-4.759 
n/a 
n/a 
n/a 
n/a 
-4.759 
n/a 
n/a 
n/a 
n/a 
-4.759 
n/a 
n/a 
n/a 
n/a 
-6.612 -5.528 -5.1845 -5.74 -3.594 -8.3385 -3.8135 -4.245 -3.594 
-12.133 -10.009 -5.7465 -10.66 -10.6475 -12.796 -8.586 -6.769001 
-16.133 -9.634 -10.733 -17.7135 -15.105 -17.5685 -11.392 
-16.561 -15.0321 -17.7865 -22.171 -19.8775 -20.3745 
-21.7861 -22.0856 -22.244 -26.9435 -22.6835 
-6.1945 -3.594 0 -5.1845 -3.284 -4.953 -3.594 -2.5195 -5.1845 -4.5095 -3.594 0 
-9.254001 -3.594 -5.1845 -8.2255 -7.669001 -7.654 -5.804 -7.594501 -10.281 -7.512 -3.594 
-9.254001 -7.2625 -8.2255 -13.1555 -9.2335 -9.975 -11.5452 -13.19 -13.2835 -7.512 
-13.3167 -12.1205 -13.1555 -14.72 -12.2873 -15.8164 -17.1407 -16.1925 -13.2835 
-18.1747 -17.0505 -14.72 -17.7738 -18.1287 -21.4119 -20.1432 -16.1925 
-4.245 -1.7565 -4.5095 0 -5.1845 -5.74 -4.4895 -1.7565 -3.284 -3.5585 0 
-6.1035 -6.655001 -4.5095 -5.1845 -5.7465 -10.841 -6.047 -5.0585 -5.26 -3.5585 
-11.6838 -6.655001 -11.046 -5.7465 -10.8893 -12.3985 -9.4615 -7.632 -5.26 
-11.6838 -13.6391 -11.608 -10.8893 -12.4468 -15.813 -12.179 -7.632 
-18.6679 -14.2011 -16.7508 -12.4468 -15.8613 -18.5305 -12.179 
-6.1945 -3.397 -3.452 0 -6.1945 -3.397 -3.452 -2.0935 -3.8135 -2.3345 -5.1845 -5.74 -3.397 -3.452 -3.922 0 
-10.3285 -6.251 -3.452 -6.1945 -10.3285 -6.251 -5.378 -5.4515 -6.1035 -7.449 -5.7465 -9.906 -6.251 -8.5185 -3.922 
-13.1825 -6.251 -10.523 -10.3285 -13.1825 -7.237 -8.683001 -7.362 -12.0164 -8.278 -9.910501 -10.1 -9.416 -8.5185 
-13.1825 -13.7558 -14.657 -13.1825 -14.1685 -9.2775 -10.4945 -13.8993 -12.8454 -12.8322 -10.1035 -10.243 -9.416 
-20.6873 -17.8898 -17.511 -14.1685 -16.209 -10.6885 -17.0318 -14.7283 -17.3996 -13.0252 -10.243 -10.243 
