-4.759 
n/a 
n/a 
n/a 
n/a 
-4.759 
n/a 
n/a 
n/a 
n/a 
-4.759 
n/a 
n/a 
n/a 
n/a 
-4.759 
n/a 
n/a 
n/a 
n/a 
-4.398 0 -3.0365 -2.186 -2.847 -3.932 -4.413 -2.0935 -1.4985 -4.6975 -1.7565 -3.0835 -3.2495 -5.1845 -4.922 -1.756 -3.1435 -4.245 
-4.398 -3.0365 -3.66 -4.1045 -7.5655 -7.573 -6.3025 -2.9725 -5.1545 -5.103 -5.237 -5.2245 -8.471001 -11.4009 -5.9195 -4.1365 -7.4775 
-7.31 -3.66 -4.256001 -8.363501 -11.3623 -8.47 -7.0445 -6.3625 -5.202 -8.995001 -7.956501 -11.0082 -15.0288 -12.3984 -8.722001 -8.076 
-8.9735 -4.256001 -8.419001 -12.4463 -12.2593 -9.568501 -8.005 -6.393 -9.1455 -12.0469 -13.8796 -17.566 -16.0263 -15.2009 -12.7953 
-9.5555 -8.419001 -12.561 -13.3433 -13.3578 -10.529 -8.019501 -10.3035 -12.1918 -17.97 -20.4374 -18.5635 -18.8288 -19.2742 
-3.5725 0 -3.0365 -2.186 -2.847 -4.5945 -4.0745 -2.7455 -3.6075 -3.2495 -5.1845 -4.925 0 
-3.5725 -3.0365 -3.66 -4.1045 -6.960001 -6.989 -6.434 -6.919 -6.251 -8.471001 -10.3545 -4.925 
-5.6995 -3.66 -4.256001 -7.835001 -7.849501 -8.8895 -9.969501 -9.797501 -12.1361 -13.9824 -10.3545 
-6.851 -4.256001 -7.843 -8.346001 -9.626501 -12.6556 -12.9792 -15.6826 -17.6475 -13.9824 
-7.5505 -7.843 -8.35 -10.389 -13.7944 -15.6653 -18.8643 -21.194 -17.6475 
-3.4765 -5.2175 0 -1.4985 -3.0835 -3.2495 -3.8405 -2.8645 -3.1125 -3.0365 -3.115 -2.4285 -2.5045 -1.4985 -3.8405 -2.95 -4.798 -2.186 -3.0365 -3.115 -2.847 -4.4265 -4.0745 -2.186 -3.0365 0 
-6.617001 -5.2175 -1.4985 -3.535 -5.2245 -7.3485 -6.226 -3.5345 -5.417 -6.346001 -5.7465 -4.7775 -3.1915 -4.7545 -6.965 -8.472 -8.508 -4.5415 -6.346001 -5.787001 -6.844501 -7.717501 -5.6805 -4.5415 -3.0365 
-6.617001 -7.0185 -3.535 -5.3335 -9.8125 -10.476 -6.98 -6.4815 -8.468 -8.845501 -8.2285 -5.583 -7.22 -8.5985 -13.0082 -12.4014 -11.1069 -7.831 -9.019501 -10.298 -9.271 -9.351501 -7.2685 -4.5415 
-7.768001 -9.1625 -5.3335 -9.846001 -13.0648 -11.5332 -10.39 -9.53 -11.1369 -12.2211 -9.484001 -9.830001 -10.361 -14.8457 -16.9376 -15.0003 -14.3964 -10.007 -13.3761 -12.7245 -11.0868 -11.1587 -7.2685 
-10.0405 -11.0986 -9.846001 -13.1101 -14.122 -14.9432 -13.4385 -12.4127 -14.5125 -13.4766 -14.0756 -13.2402 -16.8834 -18.7751 -19.5365 -18.2898 -16.5724 -14.461 -15.8026 -14.5403 -12.894 -11.1587 
-2.872 -3.0365 -2.186 -2.847 -4.413 -1.7565 -1.4985 -6.2055 -2.9705 -3.8755 -1.934 -8.3305 -3.8405 -1.756 -5.066 -3.8405 0 
-4.651 -3.66 -4.1045 -6.293 -4.9865 -2.4195 -7.455 -8.700001 -6.554 -5.2035 -8.854 -9.910501 -5.3535 -6.561 -6.9255 -3.8405 
-5.2045 -4.256001 -6.9175 -6.8925 -5.9495 -8.311001 -9.803 -12.3517 -9.099501 -11.817 -10.3175 -10.2275 -9.8125 -8.946001 -6.9255 
-5.811 -6.975 -7.627501 -8.014501 -12.4872 -10.7175 -13.5255 -14.8972 -15.965 -14.1657 -11.8545 -14.6515 -10.721 -8.946001 
-7.9785 -7.722001 -8.594001 -14.7966 -14.8937 -14.44 -16.071 -21.7627 -18.1415 -15.4227 -16.4605 -15.618 -10.721 
