-4.759 
n/a 
n/a 
n/a 
n/a 
-4.759 
n/a 
n/a 
n/a 
n/a 
-4.759 
n/a 
n/a 
n/a 
n/a 
-4.759 
n/a 
n/a 
n/a 
n/a 
0 -6.502501 0 -6.502501 0 -1.934 -2.3615 -3.535 -4.2335 -5.6525 -1.934 -4.4665 0 -1.4985 -4.2335 -3.8665 -4.2335 -3.995 0 -4.4515 0 0 
-6.502501 -6.502501 -6.502501 -6.502501 -1.934 -3.539 -5.8265 -7.184 -9.271 -7.285 -7.446 -4.4665 -1.4985 -5.605 -7.4855 -7.818 -8.5115 -3.995 -4.4515 -4.4515 0 
-6.502501 -8.679001 -6.502501 -8.532001 -3.539 -6.827 -9.9519 -12.6603 -12.0487 -13.5866 -7.446 -7.5115 -5.605 -9.039001 -10.2385 -12.5052 -8.5115 -6.726 -4.4515 -4.4515 
-8.679001 -8.679001 -8.532001 -10.4265 -6.827 -11.3852 -15.4282 -15.438 -18.3503 -13.5866 -10.66 -11.9976 -9.039001 -11.983 -15.0883 -12.5052 -11.6315 -6.726 -4.4515 
-8.679001 -10.622 -10.4265 -13.7145 -11.3852 -16.8615 -18.2059 -21.7396 -18.3503 -16.8006 -15.1461 -15.4316 -11.983 -16.8328 -15.0883 -15.6252 -11.6315 -6.726 
-6.502501 -3.1495 -3.535 -4.3645 -1.7565 -5.6525 -2.8965 -3.1575 -3.8665 -1.7695 -3.849 -5.8505 0 
-9.948501 -6.235001 -7.371 -6.9915 -6.823 -9.227 -4.4055 -6.8585 -6.148 -7.458001 -9.439 -5.8505 
-13.133 -9.894001 -9.602501 -9.456 -10.5135 -10.495 -7.72 -9.519501 -12.6183 -13.3558 -9.439 
-16.792 -12.1975 -12.2632 -13.2073 -11.7815 -13.8095 -10.71 -16.0528 -18.5161 -13.3558 
-19.0955 -14.8582 -16.0145 -14.4753 -15.096 -16.7995 -17.2433 -21.9506 -18.5161 
-6.502501 -2.186 -8.0765 -3.074 -3.849 -5.8505 
-8.225 -11.4729 -11.9007 -5.417 -9.439 
-17.8393 -15.2971 -14.2437 -10.564 
-21.6635 -17.6401 -19.3907 
-24.0065 -22.7871 
-1.756 -3.5065 -1.4985 -4.6465 -4.392 -2.186 -5.812 -4.181 0 -1.4985 -6.721 -4.4515 -2.186 -5.0575 -2.5045 -1.8085 -4.591 -3.841 -1.4985 -5.0005 -1.7565 -1.4985 -3.3365 -4.4515 -4.3095 -2.5045 -4.591 0 
-5.302 -4.358 -5.325 -8.867001 -5.9905 -6.8735 -9.1835 -4.181 -1.4985 -7.3795 -9.739 -6.113501 -6.216001 -5.826 -3.3625 -5.5965 -7.706 -5.721 -5.627501 -5.7045 -2.4195 -4.3335 -5.861 -8.863001 -6.387 -6.6295 -4.591 
-6.177001 -8.794001 -8.9785 -9.9985 -10.5225 -10.139 -9.1835 -6.238501 -7.3795 -10.1 -10.5065 -10.1635 -6.636 -6.521501 -7.412 -8.2825 -9.503 -9.885 -5.9825 -5.968 -5.66 -6.5515 -10.068 -10.9945 -9.164001 -6.6295 
-10.3745 -12.4581 -10.0575 -14.6135 -13.788 -10.139 -10.427 -10.6735 -10.1 -10.604 -14.5565 -10.3355 -7.2245 -10.335 -9.637 -9.910501 -13.6968 -10.167 -6.2075 -9.743 -7.258 -10.2035 -12.1183 -13.7715 -9.164001 
-14.0386 -13.5371 -14.6859 -17.879 -13.788 -10.6675 -14.862 -13.394 -10.604 -14.654 -14.7285 -10.678 -10.609 -12.56 -10.7615 -14.1459 -13.9788 -10.254 -9.854501 -11.381 -11.0654 -12.3294 -14.8953 -13.7715 
