-4.759 
n/a 
n/a 
n/a 
n/a 
-4.759 
n/a 
n/a 
n/a 
n/a 
-4.759 
n/a 
n/a 
n/a 
n/a 
-4.759 
n/a 
n/a 
n/a 
n/a 
-2.9965 -9.284 -6.558 -4.7955 
-12.8033 -16.166 -10.718 
-19.6853 -20.326 
-23.8453 
n/a 
-1.756 -3.1495 -2.4945 -4.504 -2.5045 -4.221 -1.7695 -1.4985 -5.1375 -3.115 -7.6625 -1.756 -6.568501 -3.5455 -4.602 -4.153 -7.398 
-5.1725 -4.459 -5.6415 -5.1795 -6.604501 -4.626 -2.7955 -6.425 -7.327001 -9.8065 -9.0155 -8.6675 -10.3285 -9.029501 -4.9935 -12.4336 
-6.0225 -8.001 -6.1095 -7.890501 -7.274001 -5.294 -8.0605 -9.408001 -14.2857 -10.7625 -16.103 -12.6407 -15.8905 -9.512501 -13.8821 
-9.4255 -8.3275 -8.5465 -8.415001 -7.9175 -11.4628 -11.3095 -16.3445 -15.2417 -17.85 -20.0762 -18.2027 -16.3735 -18.4417 
-9.780001 -10.8621 -9.1925 -9.1055 -14.1499 -14.7118 -18.246 -17.3005 -22.3292 -21.8232 -25.6382 -18.6857 -25.3027 

n/a 
n/a 
n/a 
n/a 
-1.934 -2.9965 -4.184 -7.9525 -2.4265 -2.7415 -3.2955 -4.521 -1.7695 -1.4985 -3.9355 -11.128 -1.756 -5.3475 -2.9705 -3.152 -3.4915 -3.6975 0 
-5.5765 -5.8575 -9.9135 -10.0415 -3.681 -4.978 -8.385 -5.107 -2.7955 -4.8035 -15.8493 -12.884 -6.7165 -7.954 -5.007 -6.054501 -7.7075 -3.6975 
-8 -10.634 -12.0025 -11.4378 -6.24 -10.0475 -8.682501 -5.763 -6.5695 -17.0945 -17.6053 -17.8445 -9.106501 -10.322 -7.802001 -10.442 -7.7075 
-13.6023 -12.723 -13.3988 -13.9968 -11.5923 -10.173 -10.0535 -9.182 -19.2165 -18.8505 -22.5658 -20.2345 -11.5157 -13.117 -12.3451 -10.442 
-15.6913 -14.1193 -15.9578 -19.3491 -11.7178 -11.544 -13.4725 -22.0978 -20.9725 -23.811 -24.9558 -22.6437 -14.3107 -17.6601 -12.3451 
