-4.759 
n/a 
n/a 
n/a 
n/a 
-4.759 
n/a 
n/a 
n/a 
n/a 
-4.759 
n/a 
n/a 
n/a 
n/a 
-4.759 
n/a 
n/a 
n/a 
n/a 
-2.3615 -5.1735 -2.186 -4.5305 -3.8115 -2.5195 -4.6655 -4.179 
-6.963 -6.963 -7.781501 -9.265001 -7.543 -6.498 -8.502001 
-8.077 -12.9243 -12.7388 -13.3699 -10.5975 -10.051 
-14.2175 -17.8816 -16.8437 -16.4244 -15.3869 
-19.1748 -21.9865 -19.8982 -21.2138 
-2.7295 -4.744 -2.3615 -5.1735 -1.934 -2.5685 -2.8705 -4.6655 -3.4795 -2.0935 -3.6835 -5.164 
-6.2475 -6.296 -6.963 -7.046 -4.244 -4.9325 -7.0765 -7.383 -5.4235 -5.189 -5.399 
-8.1635 -10.096 -8.6385 -9.042 -6.407001 -9.3585 -8.778501 -9.943001 -9.657001 -6.941 
-12.0875 -11.8549 -10.8907 -11.5702 -11.2664 -11.1703 -11.3935 -14.1765 -11.3486 
-13.8464 -14.1071 -13.4189 -16.4296 -13.0782 -13.7853 -15.627 -15.8681 
-2.871 -2.7765 -3.803 -2.3615 -5.5055 -3.5065 -1.4985 -4.6655 -3.4795 0 
-4.952 -7.035501 -5.6295 -7.264501 -8.521501 -4.358 -6.6035 -7.383 -3.4795 
-7.8605 -8.6955 -10.733 -10.228 -9.364 -8.9725 -9.201 -7.383 
-9.986501 -14.1538 -13.6965 -11.3521 -13.9785 -11.7392 -9.201 
-15.4448 -17.1173 -14.8206 -15.9666 -16.7452 -11.7392 
-1.934 -3.711 0 -2.3615 -3.8465 -2.7765 -3.584 -3.5065 -2.5195 -1.4985 -3.736 -4.126 0 
-5.6625 -3.711 -2.3615 -5.6075 -6.410501 -5.4595 -6.9845 -7.147 -3.1695 -4.6755 -8.745001 -4.126 
-5.6625 -6.568501 -5.6075 -7.409 -8.4205 -9.745001 -11.0678 -7.778 -6.5775 -9.4445 -8.745001 
-8.1085 -10.107 -7.409 -10.031 -13.3814 -14.0227 -11.6988 -11.492 -11.9205 -9.4445 
-11.8906 -12.0037 -10.031 -15.0827 -17.6591 -14.6537 -15.4128 -16.835 -11.9205 
