-4.759 
n/a 
n/a 
n/a 
n/a 
-4.759 
n/a 
n/a 
n/a 
n/a 
-4.759 
n/a 
n/a 
n/a 
n/a 
-4.759 
n/a 
n/a 
n/a 
n/a 
-3.522 0 -7.988 -6.844 -3.5125 
-3.522 -7.988 -9.2425 -10.2755 
-12.2734 -9.2425 -12.642 
-13.5279 -12.642 
-16.9274 
-3.999 0 -3.5125 -1.7565 -5.1845 0 -3.6885 0 
-3.999 -3.5125 -4.312 -6.580501 -5.1845 -3.6885 -3.6885 
-7.6445 -4.312 -8.658 -6.580501 -7.323501 -3.6885 
-8.5555 -8.658 -8.658 -8.634001 -7.323501 
-13.3935 -8.658 -9.9615 -8.634001 
-3.5125 -1.7565 -5.1845 -8.622001 
-4.312 -6.580501 -10.155 
-8.658 -10.4505 
-12.7186 
n/a 
-3.534 0 -3.5125 -1.7565 -5.1845 -9.354 
-3.534 -3.5125 -4.312 -6.580501 -10.66 
-5.918 -4.312 -8.658 -12.899 
-8.1045 -8.658 -15.1671 
-12.7385 -15.1671 
