-4.759 
n/a 
n/a 
n/a 
n/a 
-4.759 
n/a 
n/a 
n/a 
n/a 
-4.759 
n/a 
n/a 
n/a 
n/a 
-4.759 
n/a 
n/a 
n/a 
n/a 
-3.834 -3.1015 0 -3.9165 -5.1845 0 -5.7865 0 -5.943501 0 -9.727 0 -5.1645 -3.7805 -2.8645 -3.8055 -3.3195 -2.3345 -3.595 
-5.57 -3.1015 -3.9165 -10.2435 -5.1845 -5.7865 -5.7865 -5.943501 -5.943501 -9.727 -9.727 -5.1645 -6.8765 -7.26 -5.6715 -7.277 -5.405 -5.597 
-5.57 -7.029 -10.2435 -10.2435 -6.51 -5.7865 -7.4175 -5.943501 -10.7835 -9.727 -15.0927 -6.8765 -10.172 -9.998 -9.623501 -10.304 -9.120501 
-9.8325 -14.2872 -10.2435 -11.569 -6.51 -7.4175 -7.4175 -10.7835 -10.7835 -15.0927 -16.8047 -10.172 -13.1542 -14.2042 -12.7099 -14.0195 
-17.0907 -14.2872 -11.569 -11.569 -7.5115 -7.4175 -13.6775 -10.7835 -16.1492 -16.8047 -20.1002 -13.1542 -17.3604 -17.2906 -16.4254 
-4.732 -3.1015 -2.9805 -4.254 -2.5045 -1.8085 -3.3195 -3.819 -2.0935 -3.9165 -3.7805 -3.5795 -5.1845 0 -7.661 0 -5.943501 0 -9.727 0 -5.1645 0 
-6.285501 -5.3885 -5.5985 -5.522 -3.3625 -5.6155 -6.1505 -5.4395 -6.7285 -8.8585 -7.7535 -9.265501 -5.1845 -7.661 -7.661 -5.943501 -5.943501 -9.727 -9.727 -5.1645 -5.1645 
-8.2895 -8.9725 -6.3975 -5.7455 -6.882 -7.8865 -7.55 -10.4853 -12.4419 -13.2101 -13.6175 -9.265501 -8.594 -7.661 -9.6105 -5.943501 -10.7835 -9.727 -15.0927 -5.1645 
-11.9763 -10.058 -6.568501 -8.410001 -8.5235 -8.9455 -12.9446 -16.1987 -16.7935 -19.0741 -13.6175 -12.7622 -8.594 -9.6105 -9.6105 -10.7835 -10.7835 -15.0927 -15.0927 
-13.0618 -10.304 -9.2545 -9.655001 -9.385501 -14.4587 -18.658 -20.5503 -22.6575 -19.0741 -17.1142 -12.7622 -9.7635 -9.6105 -14.8499 -10.7835 -16.1492 -15.0927 
-2.645 -3.1575 -3.9165 -4.3225 -3.5005 -5.1845 0 -5.943501 -9.727 -1.756 -5.1645 -4.3225 -3.3195 -2.3345 -3.595 
-3.72 -6.252501 -8.752501 -6.693501 -8.775001 -5.1845 -5.943501 -10.7835 -10.8415 -7.1665 -7.378 -6.813001 -5.405 -5.597 
-6.31 -9.556001 -11.5343 -10.6095 -8.775001 -7.5965 -10.7835 -11.898 -16.252 -9.049 -9.8695 -9.276001 -9.120501 
-9.561001 -12.4328 -15.4503 -10.6095 -10.477 -13.4047 -11.898 -17.3085 -18.1345 -11.6441 -12.6643 -13.1407 
-12.4414 -16.3488 -15.4503 -12.3115 -16.2852 -14.5192 -17.3085 -19.191 -20.7296 -14.4389 -16.529 
-2.9805 -4.96 -3.3195 -2.645 -3.1575 -3.9165 -5.1845 0 -5.7865 0 -5.943501 0 -6.0115 -1.756 -5.1645 -4.3225 0 
-6.9405 -7.348 -6.093 -3.72 -6.252501 -10.2435 -5.1845 -5.7865 -5.7865 -5.943501 -5.943501 -6.0115 -7.805501 -7.1665 -7.378 -4.3225 
-8.514501 -10.115 -7.5705 -6.31 -13.5311 -10.2435 -6.51 -5.7865 -7.4175 -5.943501 -7.318001 -7.805501 -9.217001 -9.049 -7.378 
-11.7653 -11.8621 -10.3847 -13.6536 -13.5311 -11.569 -6.51 -7.4175 -7.4175 -7.318001 -8.3225 -9.217001 -10.674 -9.049 
-13.5124 -14.6763 -17.7283 -13.6536 -14.8566 -11.569 -7.5115 -7.4175 -7.546 -8.3225 -10.111 -10.674 -10.674 
