-4.759 
n/a 
n/a 
n/a 
n/a 
-4.759 
n/a 
n/a 
n/a 
n/a 
-4.759 
n/a 
n/a 
n/a 
n/a 
-4.759 
n/a 
n/a 
n/a 
n/a 
-3.4155 -2.742 -4.2615 -2.5235 -3.1725 -3.1335 -4.1405 0 
-5.066 -5.956 -5.955501 -4.263 -5.944 -4.9165 -4.1405 
-8.934501 -7.6675 -9.179001 -7.615001 -7.1755 -4.9165 
-10.459 -10.621 -12.673 -8.0305 -7.1755 
-13.4125 -14.115 -13.0885 -8.0305 
-3.4155 -2.882 -4.2615 -2.5235 -3.1725 -4.1405 
-6.6885 -6.475 -5.955501 -4.263 -6.985001 
-10.2985 -8.565001 -9.179001 -7.587 
-12.5849 -12.0217 -12.645 
-16.0416 -15.4877 
-3.4155 
n/a 
n/a 
n/a 
n/a 
-4.617 -2.742 -2.489 -4.518 -1.4985 -3.1335 -4.1405 -1.7565 -2.3585 0 
-6.8795 -3.301 -5.351501 -5.2805 -4.5045 -4.9165 -5.0505 -4.5045 -2.3585 
-7.1235 -6.9755 -7.16 -8.887501 -5.8825 -6.8715 -9.809 -4.5045 
-11.776 -8.46 -10.0475 -10.228 -8.002001 -12.0926 -9.809 
-13.2605 -11.4681 -11.388 -12.4947 -13.8727 -12.0926 
