-4.759 
n/a 
n/a 
n/a 
n/a 
-4.759 
n/a 
n/a 
n/a 
n/a 
-4.759 
n/a 
n/a 
n/a 
n/a 
-4.759 
n/a 
n/a 
n/a 
n/a 
-4.278 -4.682 -3.4095 
-9.908501 -9.4215 
-14.8094 
n/a 
n/a 
-3.135 -3.36 -5.1445 -2.5045 -1.4985 -4.811 -3.9285 -4.236 -1.934 -4.278 
-6.780001 -8.3655 -7.7675 -3.1915 -6.2165 -8.778001 -8.462 -6.306 -6.2645 
-12.4421 -11.8331 -8.594001 -8.353001 -9.8985 -13.2613 -9.6595 -11.1845 
-15.9097 -12.6596 -13.8571 -12.346 -14.4132 -14.4588 -14.6316 
-16.7362 -17.9227 -17.8501 -16.8607 -15.6107 -19.4309 
-3.135 -3.36 -5.759501 -1.4985 -4.258 -2.9705 -2.4945 -4.236 -3.9285 -1.934 -4.278 
-6.780001 -8.822001 -6.517001 -5.875 -6.532001 -4.302 -5.7585 -8.0015 -4.3695 -6.2645 
-12.8986 -9.975 -10.275 -7.8815 -7.177501 -7.219501 -9.124001 -8.327 -9.0255 
-14.0516 -13.733 -12.5229 -8.728001 -10.2485 -10.702 -9.449501 -13.0028 
-17.8096 -15.9809 -13.3694 -12.119 -13.731 -10.727 -14.0811 
-3.383 -4.236 -3.135 -4.811 -2.8645 -3.1125 -4.5865 -1.934 -4.278 -2.9705 -2.7415 -4.5855 -2.3345 -2.5685 -1.4985 -3.36 -3.882 0 
-6.0965 -7.627501 -6.804 -8.244 -3.5345 -6.216001 -6.923 -6.2645 -7.598001 -4.512 -7.452001 -6.627 -4.884 -3.7015 -4.598001 -8.219 -3.882 
-8.9825 -10.2985 -10.575 -8.962501 -6.618 -8.267 -10.733 -8.8915 -9.137501 -8.805 -8.854 -9.6875 -5.853 -6.8705 -8.609 -8.219 
-11.6567 -15.1915 -11.2935 -12.2198 -8.759501 -12.4294 -13.36 -10.586 -13.6509 -10.3545 -12.1393 -10.7747 -8.619 -11.4079 -8.609 
-16.5497 -15.91 -14.5508 -14.3613 -13.0259 -15.0564 -15.0545 -15.0994 -15.2004 -13.6398 -13.2265 -13.5407 -13.397 -11.4079 
