-4.759 
n/a 
n/a 
n/a 
n/a 
-4.759 
n/a 
n/a 
n/a 
n/a 
-4.759 
n/a 
n/a 
n/a 
n/a 
-4.759 
n/a 
n/a 
n/a 
n/a 
-7.485 -4.3465 -1.4985 -3.9005 -3.943 -1.7565 0 -10.105 0 -3.5725 -2.4265 -4.416 0 -2.4265 -2.742 -3.956 -4.732 -3.2615 -4.674 -3.277 -2.5045 -4.31 -2.4945 -4.963 -1.7565 -2.4265 0 
-12.4365 -5.372001 -4.797 -7.262501 -5.292 -1.7565 -10.105 -10.105 -3.5725 -5.918 -5.9575 -4.416 -2.4265 -4.095 -4.7665 -7.4925 -6.866 -9.019 -5.6755 -5.2345 -6.877001 -5.847001 -5.996 -6.3025 -4.305 -2.4265 
-13.462 -9.106001 -7.6085 -7.8005 -5.292 -12.8107 -10.105 -13.9585 -5.918 -8.884501 -5.9575 -6.8915 -4.095 -6.298 -7.908501 -10.0885 -13.2321 -9.653 -7.9815 -9.5515 -8.3155 -10.016 -7.356 -8.726501 -4.305 
-17.196 -12.0131 -8.0325 -7.8005 -17.117 -12.8107 -13.9585 -16.304 -8.884501 -8.884501 -8.2355 -7.9245 -6.298 -9.198501 -10.757 -16.7234 -13.8661 -12.1134 -12.3393 -11.1772 -12.8111 -11.1522 -10.022 -8.726501 
-20.1031 -12.4371 -8.0325 -19.8573 -17.117 -16.6642 -16.304 -19.2705 -8.884501 -11.1377 -9.113001 -9.7895 -9.198501 -12.071 -17.3919 -17.3574 -16.3265 -16.4712 -13.965 -15.6728 -13.9473 -13.8182 -10.022 
-7.485 -4.0835 -1.4985 -3.943 -2.0935 -2.5235 -8.392 -2.186 -3.5725 -4.448 -1.756 -2.742 -2.489 -4.289 0 -2.7295 -2.4945 -4.1685 -2.8705 -5.433 -1.7695 -1.4985 -3.895 -1.934 -2.3615 -4.2605 -2.5045 -2.4265 -4.493 -1.7695 -4.4075 -3.1435 -4.153 0 
-12.1735 -5.761001 -4.967 -5.0625 -3.869 -12.5629 -10.586 -4.471 -7.1355 -6.409501 -4.2795 -3.301 -5.9645 -4.289 -2.7295 -3.7725 -5.8625 -6.552001 -8.058001 -6.581 -2.7955 -5.594 -5.304501 -3.539 -5.3675 -6.1055 -4.228 -7.5895 -6.2215 -4.624 -6.192 -7.909 -4.153 
-13.851 -8.045001 -5.7095 -7.1435 -14.2804 -14.7569 -13.2846 -7.602 -8.460001 -8.607501 -4.9665 -6.835 -5.9645 -6.8605 -3.7725 -6.5535 -7.808001 -12.3425 -8.773001 -7.428 -6.567 -7.211 -7.1575 -5.869 -7.2115 -7.239501 -10.5886 -9.1315 -9.744 -6.386 -12.1457 -7.909 
-16.135 -8.403501 -7.7035 -18.0907 -16.4744 -17.4555 -16.4156 -8.7545 -9.911 -9.243501 -8.102 -6.835 -8.56 -7.756 -6.5535 -7.9145 -13.8457 -13.0575 -9.535001 -11.8495 -7.882 -8.4915 -9.197001 -7.7995 -8.4135 -14.1457 -12.1306 -12.9362 -11.6774 -12.3621 -12.1457 
-16.4935 -10.7595 -18.7455 -20.2847 -19.173 -20.5865 -17.5681 -10.0375 -10.762 -12.527 -8.102 -9.391001 -9.555 -10.8254 -7.9145 -14.0604 -14.5607 -13.8195 -14.3747 -13.1645 -9.413 -10.7175 -11.1309 -8.953001 -15.4933 -15.6877 -15.9353 -14.8696 -17.6535 -12.3621 
-7.485 -2.229 -4.0205 -3.943 0 -2.5235 -8.392 -2.882 -3.956 -1.756 -2.742 -3.956 -1.7695 -1.8085 -4.153 -2.4265 -2.186 -2.8705 -5.433 -1.7695 -2.8705 -4.31 0 
-9.277 -5.9945 -6.4575 -3.943 -2.5235 -12.5629 -11.805 -5.7435 -6.128 -4.2795 -4.7665 -4.324 -3.41 -5.4815 -6.195001 -3.292 -4.9335 -8.058001 -6.581 -4.124 -5.6145 -4.31 
-13.1155 -8.797501 -6.4575 -7.429 -12.5629 -15.9759 -14.6665 -8.064 -7.919001 -5.7375 -4.9065 -7.7745 -7.645 -7.451 -6.840001 -5.6105 -9.42 -8.773001 -9.0525 -6.574 -5.6145 
-15.9185 -8.797501 -9.7045 -18.0028 -15.9759 -18.8374 -16.987 -10.4345 -9.149501 -5.831501 -8.731 -12.2711 -9.8645 -8.159 -9.039001 -10.0345 -10.4865 -10.674 -11.8957 -6.574 
-15.9185 -12.1047 -20.3375 -21.4158 -18.8374 -21.1579 -19.3575 -11.665 -9.392 -9.833501 -13.3158 -14.4906 -10.578 -9.7875 -13.6554 -11.581 -12.3875 -13.5172 -11.8957 
-1.4985 -4.746 -1.7695 -1.4985 -4.31 0 -2.9705 -2.7295 -2.4945 -4.1685 -2.186 0 0 -8.392 0 -2.186 -4.448 -3.4765 -3.4775 0 -2.3335 -2.742 -3.0465 -3.571 -4.153 -1.934 -3.1435 -3.3435 -2.95 -2.356 -1.4985 -3.0785 -1.7565 -1.4985 -3.918 -2.9705 -2.186 -3.7855 -2.3345 -7.485 0 
-5.570001 -6.5745 -2.7955 -5.7285 -4.31 -2.9705 -4.8125 -3.7725 -5.8625 -6.704 -2.186 0 -8.392 -8.392 -2.186 -5.962 -8.1625 -6.1575 -3.4775 -2.3335 -4.204 -4.8155 -5.859 -7.3795 -5.9665 -4.335 -6.169 -5.892 -4.937 -3.1615 -4.779 -5.1815 -2.4195 -4.8715 -6.529 -3.89 -4.9225 -5.0075 -9.4055 -7.485 
-7.520501 -7.184 -6.8155 -5.7285 -7.194 -4.8125 -5.9115 -6.5535 -8.206 -6.704 -2.186 -8.392 -8.392 -10.586 -5.962 -8.9645 -9.283501 -6.1575 -5.3995 -4.204 -6.2875 -7.271 -10.5635 -9.045 -8.255 -7.335001 -8.2075 -8.2445 -5.7765 -5.297501 -5.2205 -6.0005 -5.9135 -7.516 -7.1515 -6.6625 -5.6565 -12.7221 -9.4055 
-8.209001 -11.7914 -6.8155 -8.327 -9.433001 -5.9115 -8.885 -9.3915 -8.206 -6.704 -11.7884 -8.392 -10.586 -14.7756 -8.9645 -9.859501 -9.283501 -8.064501 -7.298 -6.2875 -10.022 -12.3495 -12.229 -11.4361 -11.3748 -9.102501 -10.367 -9.3255 -7.817 -5.3145 -6.031 -9.35 -8.5205 -7.9245 -10.609 -7.2775 -13.6799 -12.7221 
-12.9374 -11.7914 -9.5565 -11.033 -10.588 -8.885 -11.6592 -9.3915 -8.206 -16.8278 -11.7884 -10.586 -14.7756 -17.7781 -9.859501 -9.859501 -11.3115 -10.6595 -9.5105 -10.022 -15.2535 -14.015 -14.6201 -14.5559 -13.1423 -11.3214 -11.448 -10.5045 -7.833 -6.127 -9.356 -12.5584 -9.0565 -11.7466 -11.224 -15.3857 -13.6799 
