-4.759 
n/a 
n/a 
n/a 
n/a 
-4.759 
n/a 
n/a 
n/a 
n/a 
-4.759 
n/a 
n/a 
n/a 
n/a 
-4.759 
n/a 
n/a 
n/a 
n/a 
-4.447 0 -7.8365 -6.4145 -9.3315 -12.16972 0 -3.6675 -3.251 -4.7115 0 
-4.447 -7.8365 -14.8154 -16.615 -22.18962 -12.16972 -3.6675 -6.282001 -8.526 -4.7115 
-12.6529 -14.8154 -25.0159 -29.47312 -22.18962 -15.83722 -6.282001 -9.042001 -8.526 
-19.6318 -25.0159 -37.87402 -29.47312 -25.85712 -18.45172 -9.042001 -9.042001 
-29.8323 -37.87402 -37.87402 -33.14062 -28.47162 -21.21172 -9.042001 
-4.447 0 -8.548 -10.437 -9.3315 -12.16972 0 -3.941 -4.7115 0 
-4.447 -8.548 -19.5772 -19.8639 -22.18962 -12.16972 -3.941 -7.7965 -4.7115 
-13.3644 -19.5772 -29.0041 -32.72202 -22.18962 -16.11072 -7.7965 -7.7965 
-24.3936 -29.0041 -41.86222 -32.72202 -26.13062 -19.96622 -7.7965 
-33.8205 -41.86222 -41.86222 -36.66302 -29.98612 -19.96622 
-4.447 0 -10.2505 -6.4145 -12.16972 0 -5.08 -4.7115 
-4.447 -10.2505 -16.665 -19.45322 -12.16972 -5.08 -7.349501 
-15.0669 -16.665 -29.70372 -19.45322 -17.24972 -7.349501 
-21.4814 -29.70372 -29.70372 -24.53322 -19.51922 
-34.52012 -29.70372 -34.78372 -26.80272 
-10.6865 -6.4145 -8.728001 -9.705501 0 -5.08 -4.7115 0 
-13.184 -9.134001 -9.948501 -9.705501 -5.08 -7.349501 -4.7115 
-10.751 -9.948501 -9.948501 -15.0339 -7.349501 -7.349501 
-11.5725 -9.948501 -15.3897 -17.3034 -7.349501 
-10.7955 -15.3897 -17.6592 -17.3034 
