-4.759 
n/a 
n/a 
n/a 
n/a 
-4.759 
n/a 
n/a 
n/a 
n/a 
-4.759 
n/a 
n/a 
n/a 
n/a 
-4.759 
n/a 
n/a 
n/a 
n/a 
-4.31 -3.0695 -3.322 -1.4985 -3.886 -2.7765 
-6.134501 -5.9995 -4.2895 -5.443 -6.575 
-8.076501 -6.8985 -8.362501 -7.712 
-9.102501 -10.5635 -10.9361 
-12.9077 -13.1371 
-1.4985 -4.31 -2.4945 -7.048501 -2.985 -4.541 0 
-5.7285 -5.847001 -8.5755 -9.536501 -6.5045 -4.541 
-7.442 -12.781 -11.2465 -13.1632 -6.5045 
-14.4922 -15.452 -14.8732 -13.1632 
-17.1632 -19.0787 -14.8732 
-3.5905 -2.4945 -3.322 -2.985 -3.275 -1.756 -3.321 
-6.859 -6.035 -6.185 -6.522 -5.3045 -4.0055 
-10.9953 -9.262001 -8.869501 -8.131001 -7.2895 
-14.2223 -12.3105 -9.683001 -9.797001 
-17.2708 -13.124 -11.4178 
-3.2615 -3.322 -1.4985 -3.4025 
-7.197001 -4.2895 -5.701 
-8.494 -7.1115 
-10.4585 
n/a 
