-4.759 
n/a 
n/a 
n/a 
n/a 
-4.759 
n/a 
n/a 
n/a 
n/a 
-4.759 
n/a 
n/a 
n/a 
n/a 
-4.759 
n/a 
n/a 
n/a 
n/a 
-3.8275 -3.458 -4.2815 -1.756 -4.103 -3.9535 
-6.105 -6.761001 -5.558001 -6.1865 -8.259001 
-8.0175 -6.804 -7.4045 -9.779 
-8.031 -7.699501 -10.553 
-8.38 -10.688 
-3.8275 -4.857 -2.9905 -3.458 -4.2815 -1.756 -4.103 0 
-6.88 -5.9905 -6.3985 -6.761001 -5.558001 -6.1865 -4.103 
-6.894001 -7.297 -9.043501 -6.804 -7.4045 -6.1865 
-7.915 -9.275001 -9.059501 -7.699501 -7.4045 
-9.5965 -9.286501 -9.358001 -7.699501 
-3.8275 -3.458 -4.2815 -1.756 -12.16972 -3.9535 
-6.105 -6.761001 -5.558001 -14.93432 -16.12322 
-8.0175 -6.804 -19.89952 -18.88782 
-8.031 -22.30572 -23.85302 
-24.37652 -26.25922 
-1.8085 -3.8275 -3.9535 -3.458 -4.2815 -1.756 -4.103 
-5.421 -7.04 -7.632501 -6.761001 -5.558001 -6.1865 
-8.4685 -9.274 -10.6215 -6.804 -7.4045 
-10.0065 -12.3166 -10.6545 -7.699501 
-13.0671 -12.3496 -11.55 
