-4.759 
n/a 
n/a 
n/a 
n/a 
-4.759 
n/a 
n/a 
n/a 
n/a 
-4.759 
n/a 
n/a 
n/a 
n/a 
-4.759 
n/a 
n/a 
n/a 
n/a 
-4.1115 -2.9705 -2.264 -2.911 -1.7565 -3.9075 
-6.873 -6.2725 -5.952001 -5.125501 -6.106 
-9.89 -10.7495 -8.751501 -9.277 
-14.43 -13.549 -12.9834 
-17.2295 -17.7809 
-4.1115 0 -4.5385 -2.0935 -3.9075 
-4.1115 -4.5385 -4.9375 -6.765501 
-8.828501 -4.9375 -9.762 
-8.953501 -9.762 
-13.9866 
-10.8905 -7.4675 -8.597501 -8.06 
-18.358 -9.921 -11.046 
-20.8115 -12.5825 
-23.473 
n/a 
-4.359 -2.186 -1.934 -4.1115 
-6.765 -4.0835 -6.27 
-8.583 -9.218 
-13.8799 
n/a 
