-4.759 
n/a 
n/a 
n/a 
n/a 
-4.759 
n/a 
n/a 
n/a 
n/a 
-4.759 
n/a 
n/a 
n/a 
n/a 
-4.759 
n/a 
n/a 
n/a 
n/a 
-6.1895 -1.7695 -5.045 -1.4985 -5.4525 -1.756 -2.5685 -1.7565 -4.0535 -1.7695 -4.1085 -1.934 -3.333 0 
-7.896501 -5.5305 -6.222 -6.8645 -6.544001 -4.2335 -3.887 -5.79 -6.1975 -6.956 -6.276 -3.9835 -3.333 
-12.1421 -6.676001 -12.162 -8.030001 -9.536501 -5.3525 -9.611 -7.5675 -12.1056 -10.0095 -8.3685 -3.9835 
-13.2876 -12.8038 -13.3275 -10.5855 -10.8261 -11.6683 -11.3455 -13.745 -15.1591 -12.102 -8.3685 
-19.4154 -13.9693 -15.883 -11.8751 -17.1419 -13.4028 -17.523 -16.7985 -17.2516 -12.102 
-2.7835 -3.7405 -3.331 -2.4945 -3.6005 -1.934 -3.333 -1.7695 -4.7665 -4.617 0 -4.1645 -2.4945 -4.024 -1.7695 -6.985 -3.331 -1.7695 -4.305 -1.4985 -3.213 
-6.343 -6.2035 -6.094 -4.68 -5.3135 -3.9835 -4.022 -5.3 -7.0945 -4.617 -4.1645 -5.656 -5.477 -4.5525 -8.9055 -9.8165 -5.181 -4.667 -5.2135 -4.3955 
-9.222 -9.266001 -8.2395 -6.382 -6.0955 -4.0425 -7.239501 -7.497 -7.0945 -8.898001 -5.656 -7.5335 -5.947001 -12.1871 -11.8904 -10.763 -7.476501 -5.52 -6.692 
-12.7403 -9.532001 -9.9055 -6.961 -6.1515 -7.2795 -9.700001 -7.497 -12.1495 -10.8853 -7.5335 -8.546 -14.036 -15.172 -12.8369 -13.0585 -8.363 -6.953 
-13.0063 -11.719 -10.2415 -7.0305 -9.259501 -9.7335 -9.700001 -12.944 -14.1368 -12.7628 -8.546 -16.8 -17.0209 -16.1185 -15.1324 -13.945 -10.5325 
-1.7695 -4.7665 -1.4985 -3.333 0 -2.7835 -3.0365 -2.186 -3.331 -2.0935 -2.8965 -4.105 -5.1095 -2.4285 -3.4865 -3.331 0 -3.321 -1.4985 -3.331 -2.186 -4.584 -1.7695 -3.013 -2.3335 -3.213 0 
-5.3 -5.663 -4.6905 -3.333 -2.7835 -4.4665 -3.66 -6.5165 -4.464 -4.726501 -6.424 -7.940001 -7.828501 -5.499001 -6.622001 -3.331 -3.321 -4.481 -4.6405 -5.1105 -6.225 -5.5675 -3.7215 -4.7735 -5.2935 -3.213 
-6.061501 -7.986 -4.6905 -5.964 -4.4665 -4.811501 -6.7105 -6.9705 -7.3355 -8.526501 -9.4645 -9.264 -10.2695 -8.3155 -6.622001 -6.7095 -4.481 -7.673 -5.8035 -9.419001 -6.9895 -7.258 -5.1675 -7.453001 -5.2935 
-8.182501 -7.986 -6.982 -7.619 -4.811501 -8.063001 -7.022 -8.9545 -10.0605 -11.7318 -11.0013 -12.4224 -13.3436 -8.3155 -9.774 -8.0605 -7.673 -8.793501 -10.0375 -10.4033 -8.660501 -9.3785 -7.649001 -7.453001 
-8.182501 -9.7755 -8.731501 -7.8365 -8.063001 -8.3975 -8.962001 -12.5167 -13.2658 -13.2686 -14.1597 -15.4965 -13.3436 -11.7071 -11.1758 -9.500501 -8.793501 -13.1239 -11.0078 -12.0743 -10.888 -11.9796 -7.649001 
-3.333 -1.7695 -3.213 -2.0935 0 -4.0535 -2.4285 -5.4525 -5.429 
-4.022 -4.1345 -4.5705 -2.0935 -4.0535 -6.023 -7.8425 -11.9565 
-6.612 -5.4095 -4.5705 -6.291501 -6.023 -12.6128 -14.6581 
-7.9455 -5.4095 -9.280001 -8.145 -12.6128 -19.4284 
-7.9455 -10.5635 -11.2805 -15.1348 -19.4284 
