-4.759 
n/a 
n/a 
n/a 
n/a 
-4.759 
n/a 
n/a 
n/a 
n/a 
-4.759 
n/a 
n/a 
n/a 
n/a 
-4.759 
n/a 
n/a 
n/a 
n/a 
-6.557 -3.1715 -1.756 -3.7745 -4.328 -1.756 -4.9025 -1.7565 -4.5065 0 -4.348 -3.959 -8.168 
-8.42 -4.562 -5.3805 -8.363 -5.789 -6.7455 -8.0065 -6.2555 -4.5065 -4.348 -9.004 -13.2736 
-10.2815 -7.769001 -10.2865 -9.967 -10.7575 -9.896501 -13.0485 -6.2555 -6.4415 -9.004 -18.5904 
-13.4885 -13.477 -11.8905 -14.9355 -13.9085 -14.9851 -13.0485 -8.481 -10.647 -18.5904 
-19.1965 -15.081 -16.859 -18.0865 -18.9971 -14.9851 -15.274 -12.9659 -20.2334 
-3.699 -10.058 -5.1845 -5.74 -3.7745 0 -3.1715 -5.0075 -3.321 0 -4.348 0 -10.23 -4.8745 -3.535 -6.2735 -2.4945 -4.0555 
-14.87 -14.883 -5.7465 -9.302501 -3.7745 -3.1715 -7.722001 -8.397 -3.321 -4.348 -4.348 -10.23 -15.1705 -9.712501 -10.718 -8.1715 -8.481001 
-19.5754 -15.2778 -9.307501 -9.302501 -6.606 -7.722001 -11.4175 -8.397 -8.6035 -4.348 -15.6492 -15.1705 -20.0085 -16.8955 -12.616 -14.34 
-21.2438 -19.1438 -9.307501 -12.6512 -11.9103 -11.4175 -11.4175 -13.7809 -8.6035 -15.6492 -20.5897 -20.0085 -27.1915 -18.7935 -18.7845 
-24.8048 -19.1438 -12.6692 -17.9555 -15.6058 -11.4175 -16.8014 -13.7809 -20.2135 -20.5897 -25.4277 -27.1915 -29.0895 -24.962 
-2.5685 -1.7565 -3.7745 -1.756 -3.1715 -5.0075 -1.756 -10.058 0 -1.4985 -3.535 -3.1385 -2.5195 -4.348 0 -7.31 -2.4945 -3.6955 
-3.887 -5.2935 -5.367 -4.88 -7.722001 -6.0345 -11.8655 -9.597501 -1.4985 -4.255 -7.4655 -5.074 -6.439 -4.348 -7.31 -10.907 -6.9875 
-7.3505 -6.551001 -7.430501 -8.558001 -8.59 -16.03 -10.8655 -11.0965 -4.255 -7.840001 -9.889501 -9.1245 -6.439 -9.714001 -10.907 -15.4 
-8.499001 -8.453 -10.0815 -9.594501 -18.4347 -15.697 -12.7085 -13.5498 -7.840001 -10.0215 -14.123 -9.1245 -12.501 -13.4238 -15.4 
-10.841 -11.2378 -11.118 -19.4818 -18.4347 -17.873 -15.5408 -17.253 -10.0215 -14.2114 -14.123 -15.2657 -16.2108 -17.9168 
-1.4985 -5.0075 -2.5195 -1.4985 -3.1715 -1.756 -1.4985 -3.7745 -1.756 -3.383 -3.4865 -4.4385 -2.5195 -4.348 -1.756 -4.5065 -4.78 -1.4985 -3.7455 0 
-6.186501 -6.6925 -3.1695 -3.994 -4.562 -3.0405 -4.753 -5.367 -5.029 -5.601 -6.066501 -6.512501 -6.439 -6.0835 -6.5365 -9.2115 -5.4215 -5.021501 -3.7455 
-8.382 -6.984 -5.6155 -5.401 -5.851 -6.24 -6.3735 -8.8865 -7.5175 -7.551001 -7.769501 -9.726001 -7.597 -7.2775 -10.0925 -9.639501 -8.308001 -5.021501 
-8.778001 -9.803 -7.026 -6.2675 -8.653 -8.077001 -10.155 -11.6292 -8.689 -9.236501 -11.1678 -10.421 -8.863 -10.9395 -10.2495 -10.4065 -8.308001 
-11.4276 -10.7525 -8.019501 -8.881001 -10.9822 -12.1281 -12.8977 -12.8007 -10.634 -12.709 -11.8628 -11.687 -12.5926 -11.0965 -11.0165 -10.4065 
