-4.759 
n/a 
n/a 
n/a 
n/a 
-4.759 
n/a 
n/a 
n/a 
n/a 
-4.759 
n/a 
n/a 
n/a 
n/a 
-4.759 
n/a 
n/a 
n/a 
n/a 
-2.264 -1.4985 -3.5455 -1.7565 -6.864 0 -2.9805 -5.9085 -8.2395 -1.756 -4.9385 -6.206 -3.4425 0 
-2.9195 -4.554 -5.076 -8.661 -6.864 -2.9805 -7.433001 -15.1028 -9.661 -6.501 -12.1753 -9.4265 -3.4425 
-5.7055 -5.9515 -12.8449 -8.661 -10.238 -7.433001 -16.8415 -16.5243 -14.6948 -13.947 -15.3958 -9.4265 
-7.772 -14.2318 -12.8449 -12.3132 -14.6905 -16.8415 -18.263 -21.5581 -22.1408 -17.1675 -15.3958 
-16.1401 -14.2318 -16.4971 -16.7657 -24.099 -18.263 -23.2968 -29.0041 -25.3613 -17.1675 
-2.9805 -5.2725 -8.2395 -1.756 -4.9385 -1.4985 -4.088 -3.6215 -1.4985 -6.206 -1.756 -3.5455 -1.7565 -7.4885 -4.6825 
-6.9505 -14.2636 -9.661 -6.501 -5.916501 -5.6785 -6.5445 -4.094 -7.7985 -7.881001 -5.308001 -5.076 -9.320001 -12.7982 
-16.1906 -15.6851 -14.6948 -7.2625 -10.586 -8.286 -6.705 -10.5035 -9.638 -11.7482 -6.762001 -13.5039 -14.7835 
-17.6121 -20.7189 -15.4563 -12.0414 -13.1935 -8.800501 -13.9005 -12.343 -13.6208 -13.2022 -15.3095 -18.9674 
-22.6459 -21.4804 -20.2352 -14.6489 -13.708 -15.9522 -15.74 -16.3258 -15.0748 -21.7497 -20.773 
-2.925 -2.4945 -3.973 -8.5035 -2.229 -3.5455 -3.7575 -1.756 -3.973 -2.229 -6.206 0 
-3.7675 -7.744 -13.4929 -10.5435 -5.862 -5.799001 -5.2965 -5.4375 -7.095 -8.705501 -6.206 
-8.9945 -17.7935 -15.5329 -14.1765 -7.3175 -7.522 -9.122001 -8.977 -13.9627 -8.705501 
-19.3188 -19.8335 -19.1659 -15.632 -8.6105 -11.5331 -12.9351 -15.9347 -13.9627 
-21.3588 -23.4665 -20.6214 -16.925 -12.7212 -15.3462 -19.8928 -15.9347 
-1.934 -1.4985 -3.5455 -1.7565 -10.245 -3.892 0 -2.9805 -5.2725 -7.7095 -2.229 -1.756 -4.9385 -3.9035 -3.9615 -6.206 0 
-2.6125 -4.554 -5.076 -12.9507 -14.2426 -3.892 -2.9805 -6.9505 -13.7336 -8.83 -4.366 -6.501 -8.7995 -7.8645 -8.439001 -6.206 
-5.298 -5.9515 -17.1346 -16.9483 -14.2426 -6.77 -6.9505 -15.6606 -14.8541 -11.6964 -9.503 -10.322 -13.6639 -12.4816 -8.439001 
-6.3545 -18.5215 -21.1322 -16.9483 -17.1206 -11.2486 -15.6606 -16.7811 -17.7205 -16.8334 -13.4396 -15.9968 -18.281 -12.4816 
-19.4171 -22.5191 -21.1322 -19.8263 -21.5992 -19.9587 -16.7811 -19.6475 -22.8575 -20.77 -19.1144 -20.6139 -18.281 
