-4.759 
n/a 
n/a 
n/a 
n/a 
-4.759 
n/a 
n/a 
n/a 
n/a 
-4.759 
n/a 
n/a 
n/a 
n/a 
-4.759 
n/a 
n/a 
n/a 
n/a 
-2.8965 -4.167 -2.4945 -3.849 -5.53 0 -2.688 -3.9815 -1.756 -4.635 -4.1115 -5.042 0 
-5.3735 -6.1715 -5.410501 -9.619 -5.53 -2.688 -6.057 -5.6895 -6.2635 -9.880501 -9.745501 -5.042 
-7.6155 -9.326 -11.4741 -9.619 -8.706 -6.057 -8.2675 -11.035 -11.7584 -15.8173 -9.745501 
-10.733 -15.4362 -11.4741 -12.8976 -12.5158 -8.2675 -13.859 -16.5299 -17.6952 -15.8173 
-16.8432 -15.4362 -14.7527 -16.7074 -14.7263 -13.859 -19.3539 -22.4667 -17.6952 
-2.8965 -3.2875 -3.115 -12.16972 0 -2.688 -3.9815 -1.756 -6.284 
-6.2805 -6.646 -16.06032 -12.16972 -2.688 -6.057 -5.6895 -8.047001 
-8.9685 -19.98872 -16.06032 -14.85772 -6.057 -8.2675 -12.8185 
-22.76002 -19.98872 -18.74832 -18.22672 -8.2675 -15.6425 
-22.76002 -22.67672 -22.11732 -20.43722 -15.6425 
-2.8965 -3.6135 -4.167 -2.4945 -10.105 0 -2.688 -3.9815 -1.756 -12.16972 
-6.196 -6.365 -6.1715 -14.0277 -10.105 -2.688 -6.057 -5.6895 -14.93432 
-7.74 -7.949 -18.0807 -14.0277 -13.9168 -6.057 -8.2675 -19.70582 
-9.1735 -20.0542 -18.0807 -17.8395 -17.2858 -8.2675 -22.52982 
-21.4113 -20.0542 -21.8925 -21.2085 -19.4963 -22.52982 
-1.4985 -2.8965 -4.167 -2.4945 -12.16972 0 -2.688 -4.302 -1.756 -8.892 
-3.928 -5.3735 -6.1715 -16.09242 -12.16972 -2.688 -7.563 -6.7415 -10.9575 
-7.294001 -7.6155 -20.14542 -16.09242 -14.85772 -7.563 -9.414001 -16.422 
-8.809 -21.82742 -20.14542 -18.78042 -19.73272 -9.414001 -19.1717 
-23.06872 -21.82742 -22.83342 -23.65542 -21.58372 -19.1717 
