-4.759 
n/a 
n/a 
n/a 
n/a 
-4.759 
n/a 
n/a 
n/a 
n/a 
-4.759 
n/a 
n/a 
n/a 
n/a 
-4.759 
n/a 
n/a 
n/a 
n/a 
-1.4985 -4.983 -2.9705 -2.4945 -4.351 -4.0705 -4.347 -5.867001 -1.7695 -7.724 -3.277 -1.7695 -4.2615 -3.7075 -4.285 -5.201 -3.3255 -8.712501 -3.6445 
-6.109 -7.239 -4.302 -5.91 -9.598501 -6.6035 -7.7755 -6.1695 -8.077001 -8.443501 -4.9945 -4.7355 -8.751501 -8.858001 -8.748001 -8.968 -13.0024 -9.8505 
-8.4995 -7.9275 -7.7755 -11.7973 -12.5169 -8.350501 -8.1675 -10.527 -10.741 -10.623 -7.107 -9.6855 -14.395 -13.547 -12.8896 -18.8661 -14.1404 
-9.458501 -11.7412 -14.2142 -14.7157 -15.4699 -11.1 -13.076 -12.876 -11.285 -11.6215 -12.4552 -15.4864 -19.084 -17.6886 -22.7877 -20.0041 
-13.2906 -18.1799 -17.1326 -17.6687 -17.5766 -16.4389 -15.0622 -13.9675 -12.04 -16.5095 -18.2561 -20.1754 -23.2256 -27.5867 -23.9257 
-3.1495 -3.5865 -1.7695 -3.563 -4.202 -1.7565 -4.685 -1.4985 -5.867001 -1.7695 -4.5185 -3.2055 -3.277 0 
-7.6385 -4.1825 -4.525 -9.6425 -5.3045 -7.762501 -6.158501 -6.979 -6.1695 -6.641 -5.9545 -5.6945 -3.277 
-8.424001 -8.703 -10.476 -10.3305 -11.9917 -9.696001 -11.2435 -7.705 -9.375501 -7.7925 -8.903001 -5.6945 
-13.3673 -14.8754 -11.164 -17.2119 -13.9252 -14.933 -13.021 -12.8225 -10.611 -10.0575 -8.903001 
-19.5397 -15.5634 -18.0454 -19.1454 -19.1622 -16.7105 -17.7943 -12.9983 -12.579 -10.0575 
-1.4985 -4.351 -3.7805 -4.969 -4.0705 -4.3435 -5.867001 -1.7695 -7.724 -3.277 -1.7695 -4.2615 -1.4985 -3.7075 
-5.8665 -8.6145 -7.7755 -8.994 -7.677501 -8.167 -6.1695 -8.077001 -8.443501 -4.9945 -4.7355 -5.128 -4.6235 
-8.9835 -12.9377 -12.0105 -13.1274 -9.964001 -8.2395 -10.527 -10.741 -10.623 -7.107 -5.475 -8.477 
-13.3797 -17.1727 -16.1439 -15.8693 -12.3144 -13.4995 -12.876 -11.285 -11.6215 -7.785 -8.813001 
-17.6147 -21.3061 -18.8858 -17.7643 -17.3659 -15.7615 -13.9675 -12.04 -11.2765 -9.986001 
-4.7145 -5.5595 -1.7695 -4.024 -1.934 -3.7075 -12.16972 -1.7695 -3.974 -2.0935 -5.867001 -1.7695 -7.724 -3.277 
-10.4425 -7.821 -6.9055 -5.6145 -6.1845 -17.13242 -13.93922 -5.805 -5.772 -7.051001 -6.1695 -8.077001 -8.443501 
-12.704 -13.4018 -8.905001 -10.862 -20.30022 -18.90192 -17.97472 -8.506001 -9.996 -7.9915 -10.527 -10.741 
-18.2848 -15.4013 -14.3169 -24.97772 -22.06972 -22.93742 -20.67572 -13.7239 -11.9845 -12.8185 -12.876 
-20.2843 -20.8132 -28.43262 -26.74722 -26.10522 -25.63842 -25.89362 -15.1859 -17.035 -15.0795 
