-4.759 
n/a 
n/a 
n/a 
n/a 
-4.759 
n/a 
n/a 
n/a 
n/a 
-4.759 
n/a 
n/a 
n/a 
n/a 
-4.759 
n/a 
n/a 
n/a 
n/a 
-5.1845 -6.844 -5.3745 -3.9235 0 
-6.9655 -8.695001 -7.077001 -3.9235 
-8.7215 -8.935 -7.077001 
-8.941501 -8.935 
-8.941501 
-5.1845 -6.844 -5.3745 -4.5675 0 -7.1655 0 
-6.9655 -8.695001 -7.863 -4.5675 -7.1655 -7.1655 
-8.7215 -9.3835 -7.863 -9.522501 -7.1655 
-9.403001 -9.3835 -9.533501 -9.522501 
-9.403001 -9.5445 -9.533501 
-4.426 -1.7565 -1.4985 -3.6115 -4.7285 -4.1555 -3.147 -5.1845 -6.844 -5.3745 -3.9235 
-5.47 -2.4195 -4.081 -6.5495 -8.4455 -5.77 -8.439 -6.9655 -8.695001 -7.077001 
-5.9535 -5.180501 -6.670501 -9.978001 -9.541501 -10.75 -10.9304 -8.7215 -8.935 
-8.462501 -7.797 -10.054 -11.0524 -14.5215 -13.2414 -12.6864 -8.941501 
-10.2375 -11.2985 -11.1648 -16.0324 -17.0129 -14.9974 -12.9064 
-5.1845 -6.844 -5.3745 -3.9235 0 -7.1655 0 
-6.9655 -8.695001 -7.077001 -3.9235 -7.1655 -7.1655 
-8.7215 -8.935 -7.077001 -9.314 -7.1655 
-8.941501 -8.935 -9.318001 -9.314 
-8.941501 -9.3295 -9.318001 
