-4.759 
n/a 
n/a 
n/a 
n/a 
-4.759 
n/a 
n/a 
n/a 
n/a 
-4.759 
n/a 
n/a 
n/a 
n/a 
-4.759 
n/a 
n/a 
n/a 
n/a 
-4.1865 -4.245 -2.4945 -4.685 -1.934 -2.5685 -5.2455 -3.115 -6.645 0 -12.16972 0 -7.771501 0 -5.389 -5.216 0 -6.2055 0 -7.993001 0 -9.128 0 0 -5.1845 -4.0845 -4.245 0 -9.785501 -6.05 
-7.2875 -6.8335 -6.511 -6.005001 -4.244 -6.7265 -8.1775 -9.661001 -6.645 -12.16972 -12.16972 -7.771501 -7.771501 -5.389 -10.862 -5.216 -6.2055 -6.2055 -7.993001 -7.993001 -9.128 -9.128 0 -5.1845 -9.933001 -8.349501 -4.245 -9.785501 -16.1885 
-10.028 -10.151 -7.331 -8.049001 -8.696501 -9.547501 -15.0103 -9.661001 -19.60132 -12.16972 -19.94122 -7.771501 -13.9553 -10.862 -10.862 -12.2155 -6.2055 -15.0609 -7.993001 -10.181 -9.128 -9.128 -5.1845 -9.933001 -14.4918 -8.349501 -14.9963 -16.1885 
-13.4333 -11.4274 -9.318501 -13.3249 -11.7063 -16.4363 -15.0103 -22.73392 -19.60132 -19.94122 -19.94122 -13.9553 -19.4283 -10.862 -17.8615 -12.2155 -15.0609 -15.0609 -10.181 -10.181 -9.128 -10.7025 -9.933001 -14.4918 -14.4918 -19.3922 -21.3993 
-14.7097 -13.4149 -15.2326 -16.3347 -18.5951 -16.4363 -28.08322 -22.73392 -27.37282 -19.94122 -26.12502 -19.4283 -19.4283 -17.8615 -17.8615 -21.0709 -15.0609 -17.2489 -10.181 -10.181 -10.7025 -15.451 -14.4918 -14.4918 -25.5345 -25.7952 
-6.3495 0 -9.489 0 -5.936 0 -5.3765 -4.245 0 -4.067 -5.1105 0 -7.993001 0 -9.128 0 0 -5.1845 -7.044 -4.245 0 -10.3565 -5.1845 -4.067 -5.1105 -2.4945 -4.1865 -4.245 -3.685 -2.5045 -3.3715 -5.2455 0 
-6.3495 -9.489 -9.489 -5.936 -5.936 -5.3765 -10.3105 -4.245 -4.067 -7.395501 -5.1105 -7.993001 -7.993001 -9.128 -9.128 0 -5.1845 -13.5229 -11.8168 -4.245 -10.3565 -15.541 -9.2295 -7.395501 -6.863501 -7.3655 -7.2875 -9.258 -5.0275 -4.771 -7.3195 -5.2455 
-16.4315 -9.489 -15.9008 -5.936 -10.647 -10.3105 -10.3105 -7.502501 -7.395501 -7.395501 -14.1745 -7.993001 -10.181 -9.128 -9.128 -5.1845 -13.5229 -18.2957 -11.8168 -15.5673 -15.541 -19.586 -12.7926 -9.441501 -12.1289 -10.7991 -12.8323 -10.323 -8.724 -8.4795 -7.3195 
-16.4315 -15.9008 -15.9008 -10.647 -15.581 -10.3105 -13.568 -10.2035 -7.395501 -17.0161 -14.1745 -10.181 -10.181 -9.128 -10.7025 -13.5229 -18.2957 -18.2957 -23.1391 -20.7518 -19.586 -23.1491 -14.8386 -14.8251 -15.5625 -16.3439 -13.8973 -14.0195 -12.6023 -8.4795 
-22.8433 -15.9008 -20.6118 -15.581 -15.581 -13.568 -16.269 -10.2035 -17.0161 -17.0161 -16.3625 -10.181 -10.181 -10.7025 -19.0409 -18.2957 -18.2957 -29.618 -28.3236 -24.7968 -23.1491 -25.1951 -20.2222 -18.2587 -21.1073 -17.4089 -17.5938 -17.8978 -12.6023 
-8.918501 0 -12.16972 0 -9.633 0 -7.993001 0 -9.807501 0 -5.1845 -7.044 -4.245 0 -3.8445 -3.319 -1.7565 -5.1845 -5.3255 -3.89 -3.3715 -5.2455 0 
-8.918501 -12.16972 -12.16972 -9.633 -9.633 -7.993001 -7.993001 -9.807501 -9.807501 -5.1845 -13.5229 -11.8168 -4.245 -3.8445 -8.169001 -4.165 -6.580501 -9.1885 -10.802 -7.1945 -7.3195 -5.2455 
-21.32702 -12.16972 -21.80272 -9.633 -17.7336 -7.993001 -18.3351 -9.807501 -10.907 -13.5229 -18.2957 -11.8168 -8.797001 -8.169001 -8.8855 -10.4115 -10.316 -14.715 -14.1065 -11.5551 -7.3195 
-21.32702 -21.80272 -21.80272 -17.7336 -17.7336 -18.3351 -18.3351 -10.907 -19.2454 -18.2957 -18.2957 -16.3688 -13.1763 -8.8855 -15.4328 -14.147 -15.8425 -18.0195 -18.4671 -11.5551 
-30.96002 -21.80272 -29.90332 -17.7336 -28.0757 -18.3351 -19.4346 -19.2454 -24.0182 -18.2957 -22.8477 -20.7481 -13.8928 -15.4328 -19.1683 -19.6735 -19.147 -22.3801 -18.4671 
-3.8735 -2.229 -4.245 -3.4775 -4.514 -3.115 -8.153501 0 -9.489 0 -9.106001 0 -7.717 -6.1835 0 -6.7445 0 -9.101501 0 -5.1845 -6.05 0 -3.8445 -4.1735 -5.1845 -6.05 0 -3.8445 -4.1735 -5.1845 -6.05 0 
-5.3655 -5.976501 -8.233001 -8.703 -8.653001 -12.0441 -8.153501 -9.489 -9.489 -9.106001 -9.106001 -7.717 -14.6165 -6.1835 -6.7445 -6.7445 -9.101501 -9.101501 -5.1845 -10.2385 -6.05 -3.8445 -6.9705 -9.325001 -10.2385 -6.05 -3.8445 -6.9705 -9.325001 -10.2385 -6.05 
-10.27 -10.733 -13.7597 -12.9728 -17.9287 -12.0441 -18.1111 -9.489 -19.0708 -9.106001 -16.9772 -14.6165 -14.6165 -13.8486 -6.7445 -10.647 -9.101501 -14.508 -10.2385 -10.2385 -10.5975 -6.9705 -12.6874 -14.6712 -10.2385 -10.5975 -6.9705 -12.6874 -14.6712 -10.2385 
-15.0265 -16.2597 -18.0295 -22.2485 -17.9287 -22.0017 -18.1111 -19.0708 -19.0708 -16.9772 -23.8767 -14.6165 -22.2816 -13.8486 -10.647 -10.647 -14.508 -19.562 -10.2385 -14.786 -13.7235 -12.6874 -18.0336 -14.6712 -14.786 -13.7235 -12.6874 -18.0336 -14.6712 
-20.5532 -20.5295 -27.3052 -22.2485 -27.8863 -22.0017 -27.6929 -19.0708 -26.942 -23.8767 -23.8767 -22.2816 -22.2816 -17.7511 -10.647 -16.0535 -19.562 -19.562 -14.786 -17.912 -19.4404 -18.0336 -18.0336 -19.2187 -17.912 -19.4404 -18.0336 -18.0336 
