-4.759 
n/a 
n/a 
n/a 
n/a 
-4.759 
n/a 
n/a 
n/a 
n/a 
-4.759 
n/a 
n/a 
n/a 
n/a 
-4.759 
n/a 
n/a 
n/a 
n/a 
-2.356 -4.6495 -1.7695 -1.4985 -3.898 -1.7565 -4.02 -2.4265 -2.186 -1.934 -3.859 -3.5015 -3.2615 -4.317 -4.2125 -3.959 
-5.0705 -4.846 -2.7955 -5.0465 -4.9795 -5.4345 -6.503 -3.292 -4.0835 -5.832 -5.776 -6.1925 -8.238501 -7.093 -5.9505 
-5.0755 -5.3155 -6.25 -5.3325 -7.631001 -8.2185 -6.914 -5.206 -7.705501 -6.748001 -7.9215 -11.5033 -11.4477 -9.264 
-5.561 -8.8205 -6.477 -8.0465 -9.938001 -8.5795 -9.1325 -9.400001 -7.9925 -8.1995 -13.4383 -14.7125 -13.6187 
-8.9175 -9.2215 -9.2065 -10.2745 -10.2855 -10.914 -13.5403 -9.9335 -9.2865 -13.9065 -16.6475 -16.8835 
-2.4265 -2.186 -1.934 -1.4985 -3.859 -3.8685 -1.934 -4.02 -4.4755 -3.291 -1.7695 -3.994 -1.756 -3.976 
-3.292 -4.0835 -2.6125 -4.4795 -6.9775 -5.1635 -6.1145 -8.151501 -8.565001 -4.6915 -6.1425 -5.313 -5.6195 
-5.206 -4.6915 -5.3215 -7.421 -7.926001 -9.484501 -10.4675 -12.5314 -9.6055 -9.637501 -7.167 -6.652 
-5.7495 -7.6455 -7.998 -8.4455 -12.533 -14.5031 -14.8474 -13.5719 -14.5219 -10.7078 -8.491501 
-8.7775 -9.0235 -9.2725 -13.0713 -17.5516 -18.883 -15.8879 -18.4883 -15.5922 -12.0323 
-3.402 -2.264 -1.4985 -4.02 -4.625 -3.1435 -4.6015 -3.859 -3.5015 -3.2615 -3.994 -1.756 -3.976 0 
-3.793 -2.9195 -4.914001 -6.015 -8.511 -8.7335 -8.2445 -5.776 -6.1925 -8.316501 -5.313 -5.6195 -3.976 
-4.34 -6.744 -6.8265 -9.528 -14.2146 -12.5029 -9.147 -7.9215 -11.5813 -9.2755 -6.652 -5.6195 
-7.6745 -8.6525 -11.3053 -15.257 -17.984 -13.4054 -11.7477 -13.5163 -12.5403 -9.557501 -6.652 
-9.389 -13.5789 -17.0343 -19.0264 -18.8865 -16.0061 -17.3425 -14.4753 -12.8223 -9.557501 
-1.934 -4.02 -3.898 0 -2.4265 -4.612 -3.859 0 -3.291 -1.7695 -3.994 -1.756 -3.976 0 
-6.1145 -5.581 -3.898 -2.4265 -5.8475 -8.5035 -3.859 -3.291 -4.6915 -6.1425 -5.313 -5.6195 -3.976 
-7.5875 -5.581 -6.448 -5.8475 -10.096 -8.5035 -8.193001 -4.6915 -9.637501 -7.167 -6.652 -5.6195 
-7.5875 -8.0445 -9.848001 -10.096 -10.096 -13.4955 -9.366501 -9.637501 -10.7078 -8.491501 -6.652 
-9.956 -11.7735 -14.4195 -10.096 -15.2192 -14.669 -14.2871 -10.7078 -12.0323 -8.491501 
