-4.759 
n/a 
n/a 
n/a 
n/a 
-4.759 
n/a 
n/a 
n/a 
n/a 
-4.759 
n/a 
n/a 
n/a 
n/a 
-4.759 
n/a 
n/a 
n/a 
n/a 
-1.4985 -4.75 -1.7565 -10.4705 -3.0465 -4.7075 -1.934 -1.4985 -3.8405 -1.7565 -3.859 -8.035001 
-6.035501 -5.9325 -13.1762 -13.6676 -9.814501 -5.1835 -2.6125 -4.7545 -4.563 -5.583 -13.1568 
-6.346 -18.2798 -16.3733 -20.4356 -10.637 -5.8585 -5.7585 -5.365 -9.627 -15.814 
-18.7801 -21.4769 -23.1413 -21.2581 -11.312 -8.994501 -6.6715 -10.0635 -19.8312 
-21.9772 -28.2449 -23.9638 -21.9331 -14.448 -9.723001 -11.5576 -20.3307 
-3.2615 -3.859 -6.845 -1.4985 -4.75 -1.7565 -7.4885 -5.0825 
-7.286 -11.9668 -9.499001 -6.035501 -5.9325 -9.320001 -11.0805 
-15.8996 -14.6208 -14.036 -6.346 -14.4236 -13.0658 
-18.5536 -19.1578 -14.3465 -14.9239 -18.1694 
-23.0906 -19.4683 -22.9244 -18.6697 
-3.2615 -3.859 -8.035001 0 -1.4985 -7.4885 -3.098 -1.756 -4.7155 -7.217 
-7.286 -13.1568 -8.035001 -1.4985 -8.1875 -11.2137 -4.558 -6.666 -12.9387 
-17.0896 -13.1568 -10.254 -8.1875 -12.3093 -12.6737 -7.808001 -15.5034 
-17.0896 -15.3758 -17.3018 -12.3093 -13.7693 -15.9237 -16.9688 
-19.3086 -22.4236 -21.4236 -13.7693 -17.0193 -25.0845 
-3.859 -8.035001 -3.2615 -4.6085 -1.7695 -2.489 -8.257501 -2.229 0 
-13.1568 -12.1541 -9.514501 -5.0895 -3.1405 -12.1269 -9.447001 -2.229 
-17.2759 -18.4071 -9.9173 -5.6585 -12.9814 -13.3164 -9.447001 
-23.5289 -18.8099 -10.4863 -16.7908 -14.1709 -13.3164 
-23.9317 -19.3789 -21.6186 -17.9803 -14.1709 
