-4.759 
n/a 
n/a 
n/a 
n/a 
-4.759 
n/a 
n/a 
n/a 
n/a 
-4.759 
n/a 
n/a 
n/a 
n/a 
-4.759 
n/a 
n/a 
n/a 
n/a 
-10.536 -9.145 -4.4665 -1.934 -4.621 
-19.681 -14.1717 -5.9535 -5.789001 
-24.7077 -15.6587 -9.509001 
-26.1947 -19.2142 
-29.7502 
-5.3745 -4.891 -1.7565 -5.1845 -6.844 -4.0555 -3.222 -4.6975 -1.934 -4.621 
-7.061501 -6.8725 -6.580501 -6.9655 -10.4945 -5.5095 -6.238501 -6.2765 -5.789001 
-7.1715 -7.181 -7.1625 -10.7025 -11.9485 -6.7535 -7.238 -9.517501 
-7.185 -7.202001 -10.749 -12.1565 -13.1925 -7.474 -9.6885 
-7.2055 -10.7575 -12.203 -13.4005 -13.913 -9.7825 
-1.4985 -5.3745 -4.891 -1.7565 -5.1845 -8.628 0 -2.7415 -4.5485 -1.934 -1.4985 -3.158 -4.621 0 
-6.2355 -7.061501 -6.8725 -6.580501 -9.059501 -8.628 -2.7415 -5.5565 -5.4015 -2.6125 -4.178 -6.9725 -4.621 
-7.2945 -7.1715 -7.181 -9.197001 -9.059501 -10.7335 -5.5565 -5.9845 -6.093 -5.265 -8.036501 -6.9725 
-7.3705 -7.185 -9.2405 -9.197001 -11.39 -13.5485 -5.9845 -7.102 -8.3095 -8.547001 -8.036501 
-7.3795 -9.244 -9.2405 -11.7199 -14.205 -13.9765 -7.102 -8.545501 -12.0609 -8.547001 
-4.5845 -4.348 -3.251 -3.9535 -1.934 -1.4985 -3.158 -4.621 
-9.296501 -6.8715 -6.0795 -5.3325 -2.6125 -4.178 -6.9725 
-11.8968 -9.418 -7.47 -6.08 -5.265 -8.036501 
-14.4433 -11.0655 -8.028501 -7.920501 -8.547001 
-16.0908 -11.624 -10.286 -10.163 
