-4.759 
n/a 
n/a 
n/a 
n/a 
-4.759 
n/a 
n/a 
n/a 
n/a 
-4.759 
n/a 
n/a 
n/a 
n/a 
-4.759 
n/a 
n/a 
n/a 
n/a 
-3.5745 -5.4425 -6.5625 -5.4015 -3.5745 -5.651501 -4.37 -1.934 -1.4985 -3.794 0 
-9.3615 -7.282 -12.76 -8.056 -9.1155 -8.908001 -4.568501 -2.6125 -4.8385 -3.794 
-10.576 -14.0183 -15.4145 -12.6853 -12.903 -10.4725 -5.054 -6.265 -4.8385 
-18.4881 -16.6728 -20.0438 -18.7345 -13.9317 -11.1695 -7.375501 -6.265 
-21.1426 -21.3021 -26.093 -19.134 -14.4317 -12.365 -7.375501 
-2.4285 -8.6685 -10.939 -8.623 0 
-12.0552 -20.5877 -19.562 -8.623 
-23.9744 -29.2107 -19.562 
-32.5974 -29.2107 
-32.5974 
-3.8105 -9.1835 -6.5625 -4.9055 -2.3345 -3.845 0 
-10.727 -9.251 -10.523 -5.839001 -6.6095 -3.845 
-13.0651 -14.1003 -11.4565 -9.772 -6.6095 
-17.6524 -15.1218 -15.3895 -9.772 
-18.5859 -19.0548 -15.3895 
-2.4285 -2.8965 -4.7365 -2.9805 -2.186 -4.9775 -2.3345 -1.4985 -5.1845 -5.74 -3.5435 
-4.1405 -6.654 -7.2465 -4.1635 -6.778 -6.849 -3.233 -6.5205 -5.7465 -7.83 
-7.6815 -8.5675 -8.269501 -8.6565 -7.8425 -7.154001 -7.917 -7.317 -7.8315 
-9.943001 -9.536 -12.9043 -10.575 -8.051001 -12.4002 -8.428 -8.059501 
-10.352 -14.325 -14.8228 -10.7835 -13.5576 -12.9112 -8.9935 
