-4.759 
n/a 
n/a 
n/a 
n/a 
-4.759 
n/a 
n/a 
n/a 
n/a 
-4.759 
n/a 
n/a 
n/a 
n/a 
-4.759 
n/a 
n/a 
n/a 
n/a 
-3.999 0 -3.8195 -3.3195 -4.273 
-3.999 -3.8195 -5.852 -7.183001 
-8.3625 -5.852 -9.712 
-11.0594 -9.712 
-14.9194 
-3.74 0 -3.8195 -3.3195 -4.273 
-3.74 -3.8195 -5.852 -7.183001 
-8.1455 -5.852 -9.712 
-10.7335 -9.712 
-14.5935 
-3.74 0 -3.8195 -2.229 -3.3195 -5.3705 
-3.74 -3.8195 -5.743 -5.3755 -6.8135 
-8.1455 -5.743 -8.189 -9.744 
-10.7324 -8.189 -12.9985 
-13.1784 -12.9985 
-4.4675 0 -3.8195 -3.3195 -4.273 
-4.4675 -3.8195 -5.852 -7.183001 
-9.3395 -5.852 -9.712 
-11.7068 -9.712 
-15.5668 
