-4.759 
n/a 
n/a 
n/a 
n/a 
-4.759 
n/a 
n/a 
n/a 
n/a 
-4.759 
n/a 
n/a 
n/a 
n/a 
-4.759 
n/a 
n/a 
n/a 
n/a 
-4.628 -6.9645 -4.02 -2.186 -3.13 -3.748 
-7.012 -11.7651 -5.624 -6.321501 -6.267 
-11.8702 -13.3691 -8.790501 -8.7805 
-13.4742 -16.5356 -10.494 
-16.6407 -18.2391 
-4.628 -4.743 -4.02 -2.186 -3.13 -3.748 
-4.7515 -8.974001 -5.624 -6.321501 -6.267 
-8.9875 -10.8468 -8.790501 -8.7805 
-10.8765 -14.0133 -10.494 
-14.043 -15.7168 
-6.6585 -4.02 -3.13 -4.5445 0 
-11.4371 -7.322 -8.6115 -4.5445 
-14.7391 -10.389 -8.6115 
-17.8061 -10.389 
-17.8061 
-4.02 -1.7565 -6.6585 -2.186 -3.13 -3.748 
-5.1665 -8.343 -8.780001 -6.321501 -6.267 
-12.3664 -9.8465 -13.2237 -8.7805 
-13.8699 -14.5392 -15.6827 
-18.5626 -16.9982 
