-4.759 
n/a 
n/a 
n/a 
n/a 
-4.759 
n/a 
n/a 
n/a 
n/a 
-4.759 
n/a 
n/a 
n/a 
n/a 
-4.759 
n/a 
n/a 
n/a 
n/a 
-6.864 -4.0965 -4.682 -1.934 -3.091 -4.1 
-8.968 -9.040001 -6.3435 -4.2105 -6.8005 
-14.1049 -10.411 -9.062 -8.314001 
-15.4759 -13.1295 -13.2915 
-18.1944 -17.359 
-3.5455 -3.091 -3.8405 0 -6.864 -4.0965 -3.251 -3.818 -4.2745 0 
-5.242001 -7.208 -3.8405 -6.864 -8.968 -7.5365 -7.3325 -7.0745 -4.2745 
-7.782001 -7.208 -10.1725 -8.968 -12.6014 -11.7562 -10.016 -7.0745 
-7.782001 -14.124 -12.4629 -12.6014 -16.8211 -14.4397 -10.016 
-15.3456 -16.4144 -16.0963 -16.8211 -19.5046 -14.4397 
-3.5455 -3.091 -4.1 -6.864 -3.59 -3.5725 -4.157 -1.7695 -4.7015 0 
-5.242001 -6.8005 -11.9924 -9.337 -7.069 -7.915 -5.6485 -7.262001 -4.7015 
-8.1 -15.1513 -14.4654 -12.8816 -11.7335 -9.623 -12.1384 -7.262001 
-16.5434 -17.6243 -18.01 -17.5461 -13.4415 -16.1129 -12.1384 
-19.0164 -21.1689 -22.6745 -19.2541 -19.9314 -16.1129 
-6.864 -9.193001 -4.682 -2.645 -1.934 -3.091 -3.8405 
-16.8448 -14.078 -7.672 -4.7605 -4.2105 -7.208 
-21.7298 -17.068 -9.229501 -7.252001 -8.610001 
-24.7198 -18.6255 -12.15 -11.8795 
-26.2773 -21.546 -16.7775 
