-4.759 
n/a 
n/a 
n/a 
n/a 
-4.759 
n/a 
n/a 
n/a 
n/a 
-4.759 
n/a 
n/a 
n/a 
n/a 
-4.759 
n/a 
n/a 
n/a 
n/a 
-1.4985 -3.188 -2.688 -4.4745 -5.181 -4.2405 -3.681 -2.186 -1.4985 -3.5905 -4.2405 -4.4745 -3.681 -3.989 -4.678 -3.254 0 
-3.619 -6.154 -7.861001 -8.418 -9.061501 -6.337 -6.1045 -3.339 -4.435 -8.009501 -8.543 -7.242001 -8.069 -8.592 -8.139001 -3.254 
-6.535501 -12.1288 -12.7793 -12.7249 -11.5508 -9.986 -7.198501 -6.4605 -8.5625 -12.836 -11.7109 -12.4434 -13.0274 -12.6286 -8.139001 
-12.8333 -17.0471 -17.0862 -15.2142 -15.1998 -11.1608 -10.485 -10.76 -13.8592 -16.0039 -16.9123 -17.4018 -17.064 -12.6286 
-17.7516 -21.354 -19.5755 -18.8632 -16.3746 -14.4473 -14.7845 -16.0567 -17.0271 -21.2053 -21.8707 -21.4384 -17.064 
-2.688 -4.2405 -5.181 -2.186 -2.664 -5.0535 -3.115 -3.5905 -2.743 -5.181 -3.254 0 
-7.1095 -6.6615 -7.6195 -3.8555 -6.649 -8.724001 -6.4505 -6.946 -6.565001 -8.8135 -3.254 
-7.679501 -9.46 -9.2165 -8.1115 -10.8181 -12.2915 -10.326 -10.375 -9.8085 -8.8135 
-10.4265 -11.1138 -13.5889 -12.5686 -14.3856 -16.167 -13.755 -13.7257 -9.8085 
-12.0803 -15.4862 -18.046 -16.1361 -18.2611 -19.596 -17.1057 -13.7257 
-2.688 -4.2405 -5.181 -2.186 -1.4985 -2.871 -4.0395 -2.0935 -3.188 -2.229 -3.5905 -4.2405 -5.181 -2.4945 -3.11 -5.8345 -3.321 -3.5185 -2.688 -4.2405 -5.181 0 
-7.1095 -6.6615 -7.6195 -3.339 -4.316 -6.495 -5.519 -5.7145 -4.279 -5.705 -8.009501 -6.6615 -7.592 -6.257501 -8.989 -9.581501 -6.2225 -4.9865 -7.1095 -6.6615 -5.181 
-7.679501 -9.46 -8.5415 -5.399 -8.135 -7.805 -9.242001 -6.951 -8.690001 -10.451 -9.731 -9.431 -11.7312 -12.9889 -13.0088 -12.606 -8.1265 -10.5828 -7.679501 -6.6615 
-10.4265 -10.7585 -10.7515 -9.356501 -10.2645 -11.853 -10.7439 -12.1434 -13.9524 -12.1725 -12.4179 -13.6638 -18.4626 -17.0087 -16.0333 -14.51 -13.6234 -11.1528 -7.679501 
-11.725 -12.9685 -14.709 -11.5736 -14.3125 -13.3549 -15.9363 -17.4058 -15.6739 -14.8594 -16.6507 -20.3952 -22.4824 -20.0332 -17.9373 -20.0069 -14.1934 -11.1528 
-6.745 -3.188 -2.688 -4.2405 -5.181 -3.757 -3.737 -1.8085 -2.688 -4.5215 -3.254 -2.356 -1.4985 -4.2425 -1.7565 -3.188 -3.5905 -4.2405 -5.181 
-8.382 -6.154 -7.1095 -6.6615 -10.4425 -6.907001 -4.7285 -3.642 -7.4065 -9.1005 -5.665501 -3.1615 -6.038501 -5.170001 -5.13 -7.438 -8.009501 -6.6615 
-11.5746 -9.3715 -7.679501 -12.6962 -13.5925 -7.811 -6.6365 -8.334001 -12.3671 -11.6728 -6.4605 -7.727 -6.809 -9.142501 -10.013 -12.347 -9.731 
-14.7921 -9.381001 -14.1774 -15.8462 -14.4965 -9.623 -11.7025 -13.645 -14.9394 -12.4678 -11.7012 -8.224501 -10.2585 -14.3471 -14.922 -14.0685 
-14.8016 -16.1883 -17.3274 -16.7502 -16.3085 -14.7896 -17.0135 -16.2173 -15.7344 -17.7085 -12.1987 -11.7312 -15.7489 -19.2561 -16.6435 
