-4.759 
n/a 
n/a 
n/a 
n/a 
-4.759 
n/a 
n/a 
n/a 
n/a 
-4.759 
n/a 
n/a 
n/a 
n/a 
-4.759 
n/a 
n/a 
n/a 
n/a 
-3.737 -3.45 -4.147 -2.5045 -3.699 -2.5045 -2.9995 -3.9055 -1.934 -4.869 -1.8085 -4.433 0 
-6.5655 -7.0375 -6.710501 -5.56 -5.611 -5.3285 -6.948 -5.946 -6.1655 -5.801001 -5.3985 -4.433 
-9.727501 -9.193001 -10.3234 -5.896 -7.609 -9.249001 -9.0175 -10.0285 -7.379 -9.423 -5.3985 
-12.2992 -13.0113 -10.6594 -7.675 -10.05 -10.0105 -10.0545 -10.0595 -10.0065 -9.423 
-16.1175 -13.3473 -12.4384 -10.0505 -10.059 -10.06 -10.06 -10.065 -10.0065 
-2.4265 -4.174 -6.077 -3.098 -3.115 -4.151 0 
-5.370501 -11.4072 -9.925501 -6.219501 -8.376501 -4.151 
-13.1487 -15.2557 -13.1 -11.5402 -8.376501 
-16.9972 -18.4302 -18.4207 -11.5402 
-20.1717 -23.7509 -18.4207 
-2.4265 -4.098 -2.5045 -3.699 -2.5045 -4.151 -1.756 -4.9405 -1.4985 -4.433 0 
-5.228 -7.088 -5.56 -5.611 -7.8 -6.3595 -6.366 -5.532001 -5.362 -4.433 
-7.7135 -10.7175 -5.896 -11.4585 -9.093 -11.8683 -6.934 -9.205 -5.362 
-11.6908 -11.0535 -11.9285 -12.7515 -14.7632 -12.4363 -10.553 -9.205 
-12.0268 -17.086 -13.2215 -18.4217 -15.3312 -16.0553 -10.553 
-2.3335 -4.849 -1.4985 -4.433 -2.229 -3.098 -3.115 -4.151 0 
-5.966001 -5.3535 -5.362 -5.7945 -4.8015 -6.219501 -8.376501 -4.151 
-6.322001 -9.703501 -6.2155 -7.2215 -8.1495 -11.5402 -8.376501 
-10.9288 -10.624 -7.603 -9.797 -13.8306 -11.5402 
-11.8493 -12.0115 -10.0845 -16.7823 -13.8306 
