-4.759 
n/a 
n/a 
n/a 
n/a 
-4.759 
n/a 
n/a 
n/a 
n/a 
-4.759 
n/a 
n/a 
n/a 
n/a 
-4.759 
n/a 
n/a 
n/a 
n/a 
-6.2365 -1.756 -3.9465 -2.4945 -2.664 -4.4905 -2.356 -2.985 -4.563 0 -2.872 -1.4985 -3.486 -2.95 -4.176 -4.257 -2.674 -2.664 -4.4905 -2.925 -3.465 -1.7695 -4.092 -2.985 -5.4765 -4.7505 0 
-7.7345 -5.895 -6.920001 -4.9875 -6.606 -7.161501 -4.4615 -7.397501 -4.563 -2.872 -4.035 -3.5655 -4.563 -7.857 -6.679 -7.336 -4.343 -6.606 -8.005501 -4.871 -3.665 -6.100501 -8.0015 -7.543 -11.4046 -4.7505 
-12.3093 -7.5365 -9.576 -9.657001 -9.4595 -9.116501 -8.977 -7.397501 -7.084001 -4.035 -6.3175 -4.577 -8.941 -10.096 -9.731 -9.335 -8.1665 -9.799 -9.880501 -5.1955 -9.045501 -9.410001 -12.7681 -13.6391 -11.4046 
-13.9508 -10.5855 -14.3155 -12.6503 -11.5499 -13.7608 -8.977 -9.894001 -8.243501 -6.3175 -8.454 -8.950001 -11.2184 -13.8324 -11.8166 -13.4687 -11.5905 -11.6746 -10.0415 -10.4675 -12.7156 -14.3766 -18.8642 -13.6391 
-16.9998 -15.325 -17.3088 -14.7407 -16.1942 -13.7608 -11.5545 -11.1157 -10.6034 -8.454 -13.0618 -11.2284 -14.9548 -15.918 -15.9503 -16.8927 -13.4661 -11.8356 -15.3135 -14.1376 -17.6822 -20.4727 -18.8642 
-7.572001 -1.756 -3.9465 -4.8935 -1.7695 -5.198 0 -2.872 -3.982 -4.331 -3.098 -2.0935 -3.456 -1.4985 -3.873 -3.4425 0 
-9.505001 -5.895 -8.9065 -5.9205 -8.742001 -5.198 -2.872 -7.672501 -8.1435 -7.417001 -4.8475 -6.043 -5.531 -4.7405 -6.015 -3.4425 
-13.7464 -9.922501 -10.082 -13.9606 -8.742001 -7.486501 -7.672501 -10.2695 -11.4005 -9.492001 -8.767 -7.8415 -9.592501 -6.982 -6.015 
-17.7739 -11.5772 -18.1221 -13.9606 -11.0513 -12.4136 -10.2695 -13.3723 -13.4755 -13.5209 -11.1847 -12.0474 -11.8948 -6.982 
-19.4286 -19.6173 -18.1221 -16.2699 -15.9784 -15.0106 -13.3723 -15.4473 -17.5044 -15.9386 -15.3906 -14.3497 -11.8948 
-3.034 -4.559 -1.756 -3.9465 -3.152 -5.121 -1.934 -5.368 0 -4.176 -2.229 -4.795 -3.152 -3.7345 -2.264 -4.9385 -4.7505 0 
-7.421 -5.633 -5.895 -7.151501 -6.9255 -7.498 -7.0055 -5.368 -4.176 -6.807 -5.988 -6.4475 -5.1265 -6.433001 -7.936001 -9.293501 -4.7505 
-8.598001 -6.8895 -7.775001 -11.0774 -9.490001 -12.8387 -7.0055 -8.6595 -6.807 -11.1664 -7.545 -9.650001 -8.2475 -12.5924 -10.3345 -9.293501 
-8.9705 -8.396 -11.8541 -13.6419 -14.8365 -12.8387 -10.2235 -11.6675 -11.1664 -12.7234 -10.9809 -12.347 -14.5605 -14.9909 -10.3345 
-9.916 -12.5553 -14.4186 -18.9884 -14.8365 -16.0567 -13.2315 -16.0269 -12.7234 -16.1593 -13.6779 -18.66 -16.959 -14.9909 
-6.009 -1.756 -3.9685 -4.319 
-7.783501 -5.691 -8.8205 
-12.0619 -10.1635 
-16.5344 
n/a 
