-4.759 
n/a 
n/a 
n/a 
n/a 
-4.759 
n/a 
n/a 
n/a 
n/a 
-4.759 
n/a 
n/a 
n/a 
n/a 
-4.759 
n/a 
n/a 
n/a 
n/a 
-5.094 -4.245 0 -4.747 -4.7315 0 -4.747 -4.8555 0 
-8.641001 -4.245 -4.546 -9.361 -4.7315 -4.546 -8.856501 -4.8555 
-8.641001 -6.795001 -8.210001 -8.210001 -7.878 -7.335501 -7.335501 
-11.8156 -13.3084 -8.210001 -9.542001 -10.9813 -7.335501 
-18.329 -13.3084 -9.5165 -12.7174 -10.9813 
-3.5905 -4.245 0 -4.7315 -4.8555 0 
-8.007501 -4.245 -4.7315 -7.064 -4.8555 
-8.007501 -8.134501 -7.064 -7.064 
-12.3664 -9.605 -7.064 
-13.8369 -9.605 
-3.5905 -4.245 0 -9.587 0 
-8.007501 -4.245 -7.064 -7.064 
-8.007501 -9.605 -7.064 
-13.8369 -9.605 
-13.8369 
-5.094 -4.245 
-8.641001 
n/a 
n/a 
n/a 
