-4.759 
n/a 
n/a 
n/a 
n/a 
-4.759 
n/a 
n/a 
n/a 
n/a 
-4.759 
n/a 
n/a 
n/a 
n/a 
-4.759 
n/a 
n/a 
n/a 
n/a 
-1.934 -4.1855 0 -6.899 -3.5435 -2.674 -5.3045 -1.4985 -4.8625 -1.7695 -3.7905 -5.149 -3.772 
-5.408 -4.1855 -6.899 -8.7615 -6.271501 -8.693501 -7.36 -5.7415 -6.746 -4.482 -8.3205 -8.102 
-5.408 -11.5221 -8.7615 -11.6765 -12.802 -11.67 -11.8524 -7.3055 -9.013 -8.9445 -11.6955 
-13.2824 -13.3846 -11.6765 -18.207 -15.7785 -16.1624 -13.4164 -9.672501 -13.4373 -12.3607 
-15.1449 -16.2996 -18.207 -21.1835 -20.2709 -17.7264 -15.7834 -14.1506 -16.8535 
-1.934 -4.1855 -2.5045 -3.543 -3.669 -2.5195 -6.899 -3.5435 -4.1865 -4.241 -4.4165 -3.9665 -5.2645 -2.5195 -6.6585 
-5.408 -6.627501 -5.323 -6.709001 -5.5755 -9.127501 -8.7615 -7.828501 -7.936501 -6.8265 -7.6835 -9.6805 -6.094 -8.6335 
-7.141 -9.646501 -7.867001 -8.0535 -12.8653 -10.75 -13.2335 -12.2465 -8.363501 -7.692501 -13.8897 -10.4615 -13.084 
-10.322 -12.2381 -8.829 -15.7505 -14.4878 -15.222 -17.6515 -12.6735 -8.436501 -13.9069 -14.6707 -17.4515 
-13.1844 -13.2001 -16.892 -17.373 -18.9598 -19.64 -18.0785 -12.7465 -15.1119 -14.6879 -21.6607 
-4.426 -1.7565 -1.4985 -3.0835 -4.7285 -4.1555 -3.147 -2.5045 -3.543 -3.669 -1.7565 -4.628 -4.743 -3.5435 -1.4985 -4.1865 -3.441 -3.9665 -3.7555 -3.251 -2.5045 -1.4985 -3.158 -1.7565 -4.1855 0 
-5.47 -2.4195 -3.535 -6.042 -8.4455 -5.77 -5.427 -5.323 -6.709001 -5.46 -6.107501 -4.7515 -7.819 -5.4025 -5.177 -7.629 -6.575 -8.309 -5.7495 -5.162 -3.1915 -4.178 -4.71 -6.055501 -4.1855 
-5.9535 -4.6785 -6.335501 -9.523001 -9.541501 -8.547501 -8.483001 -7.867001 -7.953001 -9.774 -6.281001 -7.830501 -9.6005 -8.775001 -8.331501 -9.818501 -10.66 -10.276 -7.9905 -5.718 -6.7915 -5.562 -8.341001 -6.055501 
-8.021 -7.476501 -10.0095 -10.7035 -12.319 -10.6885 -10.586 -8.828 -12.3858 -10.3375 -9.186001 -9.602501 -13.0934 -12.1123 -10.4585 -13.9491 -12.627 -12.517 -8.9265 -7.8795 -8.347501 -9.028 -8.341001 
-9.983001 -11.3061 -11.3 -13.481 -14.46 -13.4995 -11.9888 -13.4536 -12.9493 -13.2425 -11.1996 -13.096 -16.4307 -14.2393 -14.5891 -15.9161 -14.868 -13.453 -11.2238 -9.582001 -11.9417 -9.028 
-1.934 -4.1855 -2.264 -3.669 -1.7565 -6.899 -3.5435 -4.1865 -4.241 -3.737 -3.9665 -5.84 -2.5195 -6.6585 
-5.408 -6.9305 -5.4495 -5.46 -8.5275 -8.7615 -7.828501 -7.936501 -7.099 -8.6365 -8.792 -6.4715 -8.6335 
-7.805501 -10.5865 -7.0985 -13.005 -10.254 -13.2335 -12.2465 -11.8539 -9.555 -13.7482 -9.670501 -13.4145 
-11.7203 -12.2355 -14.9595 -14.7315 -14.726 -17.6515 -16.1639 -14.3099 -14.9971 -14.6267 -16.5041 
-13.3693 -20.0965 -16.686 -19.2035 -19.144 -21.5689 -18.6199 -19.752 -15.8756 -21.4603 
