-4.759 
n/a 
n/a 
n/a 
n/a 
-4.759 
n/a 
n/a 
n/a 
n/a 
-4.759 
n/a 
n/a 
n/a 
n/a 
-4.759 
n/a 
n/a 
n/a 
n/a 
-3.5065 -3.691 -2.229 -3.8315 -3.8405 -3.1385 -4.1205 -1.4985 -3.8235 -3.704 -4.8625 -2.4285 -4.8625 0 -2.664 -5.5485 0 -2.925 -4.2315 
-7.862 -5.0855 -5.747 -6.715 -7.672 -7.371 -5.2965 -4.53 -7.896501 -7.7605 -7.186 -7.824501 -4.8625 -2.664 -6.232 -5.5485 -2.925 -6.262 
-8.655001 -8.536 -8.559501 -10.1855 -12.2081 -8.3985 -8.791 -8.1885 -12.2832 -9.6045 -9.585501 -7.824501 -7.928 -6.232 -6.232 -8.278 -6.262 
-10.485 -11.6533 -12.068 -14.7216 -13.2356 -11.9514 -12.5717 -12.8202 -14.1272 -12.0698 -9.585501 -11.2514 -11.8894 -6.232 -8.786 -11.6596 
-14.7077 -15.1618 -16.6041 -15.7491 -16.7885 -15.7321 -17.2034 -14.6642 -16.5925 -12.0698 -13.161 -15.2128 -11.8894 -8.786 -12.2882 
-4.2085 -5.578 -4.1205 -1.4985 -3.8235 -3.704 -4.1865 -2.4285 -4.8625 -1.7695 -2.489 -6.474 0 -3.0415 -2.925 
-8.748001 -9.505501 -5.2965 -4.53 -7.896501 -7.331 -6.283 -7.824501 -6.746 -3.1405 -8.211 -6.474 -3.0415 -4.8045 
-12.7857 -10.487 -8.791 -8.1885 -11.8537 -9.585501 -8.751 -9.440001 -8.118501 -8.543 -8.211 -9.267501 -4.8045 
-13.7672 -13.9815 -12.5717 -12.3907 -14.1082 -12.3389 -10.028 -10.704 -13.6524 -8.543 -10.6215 -11.1123 
-17.2617 -17.7622 -16.7739 -14.6452 -16.8616 -13.6159 -11.962 -16.2379 -13.6524 -10.9721 -12.4663 
-3.5065 -1.4985 -3.8315 -4.2085 -5.5085 -4.8235 -1.4985 -6.044 -3.704 -4.8625 -2.4285 -4.8625 -6.474 0 -2.925 
-4.358 -4.604 -7.755001 -8.8585 -10.316 -6.641 -6.8085 -9.6775 -7.7605 -7.186 -7.824501 -12.4263 -6.474 -2.925 
-6.021 -8.946 -9.892 -13.7984 -12.1335 -12.3726 -9.943001 -13.8342 -9.6045 -9.585501 -15.7497 -12.4263 -9.156 
-11.4652 -10.523 -14.8905 -15.6159 -17.8651 -15.5071 -14.1469 -15.6782 -12.0698 -17.6593 -15.7497 -15.1083 
-13.0422 -15.8247 -16.708 -21.3475 -20.9996 -19.711 -15.9909 -18.1435 -20.1436 -17.6593 -18.4317 
-7.267 -7.8065 -4.64 -4.2425 -3.704 -4.8625 -1.756 -4.8625 -1.7695 -7.4935 0 -2.925 
-15.6637 -13.2151 -9.494501 -8.220501 -7.7605 -6.1675 -6.651 -6.746 -10.674 -7.4935 -2.925 
-21.0723 -18.0696 -13.5047 -12.8648 -8.83 -9.082001 -8.467001 -16.1397 -10.674 -11.4961 
-25.9268 -22.0798 -18.149 -13.9343 -11.9001 -11.0466 -17.9255 -16.1397 -14.6766 
-29.937 -26.7241 -19.2185 -17.0044 -13.8647 -20.5051 -17.9255 -20.1423 
