-4.759 
n/a 
n/a 
n/a 
n/a 
-4.759 
n/a 
n/a 
n/a 
n/a 
-4.759 
n/a 
n/a 
n/a 
n/a 
-4.759 
n/a 
n/a 
n/a 
n/a 
-3.1385 -4.02 -4.717 -3.8315 -4.174 -2.4265 -3.922 0 
-7.271 -9.415001 -8.6125 -8.258 -6.415 -7.209001 -3.922 
-13.2484 -13.3673 -13.5548 -11.1728 -11.8505 -7.209001 
-17.2007 -18.3096 -16.4696 -16.6083 -11.8505 
-22.143 -21.2244 -21.9051 -16.6083 
-1.4985 -4.02 -2.186 -4.157 -3.193 -2.3345 -3.193 0 
-4.914001 -5.624 -5.8055 -8.4555 -5.4175 -5.5015 -3.193 
-6.2225 -8.960501 -10.0445 -8.823 -5.8765 -5.5015 
-9.524 -13.2633 -10.136 -8.825 -5.8765 
-13.8464 -13.3548 -10.1545 -8.825 
-3.922 -1.934 -4.02 -3.433 -1.7565 -5.0375 -3.098 0 
-4.558 -6.1145 -7.125 -4.1845 -6.033501 -8.186001 -3.098 
-7.0765 -9.09 -7.681 -9.0755 -9.349501 -8.186001 
-9.848001 -9.3665 -12.7082 -12.3721 -9.349501 
-10.1375 -14.3945 -16.0048 -12.3721 
-4.02 -3.6395 -3.922 -3.098 -2.5195 -2.688 -4.449 -1.7565 -3.691 -2.5195 -2.8965 -3.959 0 
-7.67 -6.2685 -7.4605 -5.56 -5.1415 -7.1185 -5.459001 -4.930501 -6.4475 -4.786 -4.940001 -3.959 
-10.1225 -9.453001 -9.6815 -8.4935 -9.809 -8.502001 -7.739501 -7.579 -8.869 -6.2015 -4.940001 
-13.307 -11.7658 -12.5586 -13.1526 -11.3881 -10.2645 -10.292 -10.4105 -9.060501 -6.2015 
-15.6198 -14.6429 -17.2177 -14.7317 -13.1506 -12.817 -13.1235 -10.602 -9.060501 
