-4.759 
n/a 
n/a 
n/a 
n/a 
-4.759 
n/a 
n/a 
n/a 
n/a 
-4.759 
n/a 
n/a 
n/a 
n/a 
-4.759 
n/a 
n/a 
n/a 
n/a 
-2.3615 -2.186 -3.849 -12.16972 
-3.5005 -4.8565 -16.17932 
-5.99 -17.46782 
-18.90912 
n/a 
-3.45 -2.4945 -1.4985 -4.031 -2.0935 -3.849 -2.5045 -9.207001 0 
-5.354 -3.9315 -4.771 -4.8935 -7.818501 -6.305 -12.6289 -9.207001 
-5.9715 -6.614 -5.3855 -10.7025 -10.5535 -16.533 -12.6289 
-9.4665 -7.535 -10.7595 -13.4375 -20.7815 -16.533 
-10.4515 -13.0028 -13.4945 -23.6655 -20.7815 
-3.1495 -3.2345 -5.1845 -1.7695 -2.489 -3.849 -2.5045 -1.4985 -3.6885 -1.7565 -3.54 -4.1495 -3.681 
-6.785 -9.1295 -8.1495 -3.1405 -5.125 -6.305 -3.583 -4.962501 -5.258 -4.819 -7.134 -6.607 
-13.097 -12.4257 -8.7445 -5.768 -6.962501 -7.3745 -6.986 -5.514501 -9.0955 -8.029 -8.678 
-16.3932 -13.0207 -12.231 -7.614 -8.2665 -10.76 -7.3495 -9.299001 -12.6207 -9.897 
-16.9882 -16.5072 -14.077 -8.9455 -11.7798 -11.1235 -11.4382 -12.9864 -14.4887 
-3.1495 -3.074 -4.031 -1.7565 -3.849 -10.8475 0 
-6.687 -7.725 -5.571 -7.3605 -14.8571 -10.8475 
-11.8334 -10.634 -12.2418 -18.6476 -14.8571 
-14.7424 -17.3048 -23.5289 -18.6476 
-21.4132 -28.5919 -23.5289 
