-4.759 
n/a 
n/a 
n/a 
n/a 
-4.759 
n/a 
n/a 
n/a 
n/a 
-4.759 
n/a 
n/a 
n/a 
n/a 
-4.759 
n/a 
n/a 
n/a 
n/a 
-2.925 -2.742 -3.2345 -13.0055 -2.985 -3.545 -3.9175 -3.7345 -1.756 -4.4725 -1.8085 -4.7855 -2.264 -1.4985 -3.9785 
-4.3725 -4.746 -13.5295 -12.614 -6.072001 -7.538 -8.0155 -5.0665 -5.7595 -6.137001 -6.0705 -6.986 -2.9195 -4.496 
-6.389501 -15.622 -15.1019 -14.353 -10.7025 -11.9672 -9.1575 -9.321001 -7.296 -9.6525 -7.847 -7.426 -6.262001 
-17.4805 -17.119 -16.8409 -19.2781 -15.1317 -13.1092 -14.1274 -10.9545 -11.0167 -11.9394 -8.1245 -11.3745 
-18.9775 -18.858 -21.766 -23.7073 -16.2737 -18.0791 -15.7609 -14.6752 -13.3036 -12.2169 -12.5318 
-1.4985 -5.367 -2.4945 -4.0655 -1.7695 -7.190001 0 
-6.6905 -7.1335 -5.2585 -4.4155 -9.826 -7.190001 
-7.955 -9.820001 -5.4265 -14.1788 -9.826 
-10.2695 -10.2465 -15.5124 -14.1788 
-10.643 -20.5352 -15.5124 
-1.934 -1.4985 -3.545 -2.4945 -9.4525 -2.3345 -7.6445 -1.756 -4.7855 -2.4265 0 
-2.6125 -4.401 -6.435 -13.3752 -12.259 -10.2755 -9.460501 -6.832 -7.24 -2.4265 
-5.1745 -7.046 -17.5559 -16.1817 -20.2 -12.0915 -14.6535 -9.124001 -7.24 
-7.5755 -18.2505 -20.3624 -24.1227 -22.016 -17.2845 -16.9455 -9.124001 
-18.8698 -21.057 -28.3034 -25.9387 -27.209 -19.5765 -16.9455 

n/a 
n/a 
n/a 
n/a 
