-4.759 
n/a 
n/a 
n/a 
n/a 
-4.759 
n/a 
n/a 
n/a 
n/a 
-4.759 
n/a 
n/a 
n/a 
n/a 
-4.759 
n/a 
n/a 
n/a 
n/a 
-3.818 -3.433 -1.7565 -2.3615 -3.4295 -3.319 0 -2.7835 -4.8785 -2.9995 -4.1375 -2.4285 -6.039001 -2.915 -3.672 -2.7295 -2.7765 -3.4625 -2.4265 -3.693 -1.7695 -4.5735 -2.9775 -3.433 -1.7565 -1.4985 -3.486 -3.635 
-6.877 -4.1845 -3.523 -6.2615 -6.870501 -3.319 -2.7835 -8.272501 -7.704501 -7.0845 -5.9755 -7.9525 -8.8275 -5.0055 -6.5605 -4.065 -5.1675 -5.4025 -5.1115 -5.294 -6.877501 -8.762501 -6.2815 -4.1845 -2.4195 -3.5655 -6.7835 
-7.6975 -5.5485 -7.534501 -9.158 -6.870501 -6.1 -8.272501 -10.459 -12.1153 -8.4185 -12.6595 -10.8828 -11.525 -7.6285 -7.9065 -6.4335 -6.637 -7.724 -6.8495 -10.8102 -11.5605 -12.3303 -6.9805 -4.6515 -4.824501 -6.8435 
-9.226001 -9.204 -9.972 -9.158 -9.494 -11.8656 -10.459 -14.8698 -13.4493 -15.7015 -15.5898 -13.5803 -14.148 -9.68 -10.757 -7.7035 -9.0935 -9.035501 -12.7769 -15.4932 -15.1283 -13.0293 -8.212001 -7.56 -7.929501 
-12.9177 -11.7121 -9.972 -12.4505 -15.5684 -14.0521 -14.8698 -16.2038 -20.7323 -18.6318 -18.2873 -16.2033 -16.1995 -12.6067 -12.027 -9.9475 -10.596 -15.1367 -17.4599 -19.061 -15.8273 -14.2608 -11.3521 -11.019 
-3.433 -1.7565 -3.1435 -3.4295 -3.452 -3.7075 0 -4.4715 -4.5305 -1.756 -5.246 -5.593 -2.7415 -4.4565 -1.7695 -1.4985 -4.278 -2.872 -2.5045 -1.4985 -3.486 -2.95 -2.5685 -1.4985 -4.258 -2.674 -3.1125 -6.237 -1.7695 -3.6845 -2.664 -7.666501 -4.1145 -3.522 
-4.1845 -4.124 -6.519 -6.3465 -8.228001 -3.7075 -4.4715 -8.264501 -6.124001 -6.643 -10.1115 -9.2925 -6.5265 -5.8145 -2.7955 -6.1565 -7.432 -5.071 -3.1915 -3.5655 -4.563 -5.676 -3.7015 -5.875 -6.817 -3.6315 -7.376501 -7.9195 -4.2695 -5.545 -11.5489 -12.3482 -6.839 
-5.4905 -7.502 -9.597 -10.0785 -8.228001 -8.761001 -8.264501 -9.6175 -8.944 -11.8235 -14.094 -13.1689 -7.421 -6.2 -7.3325 -9.0735 -9.68 -5.53 -4.538 -4.577 -7.07 -6.729 -7.3305 -8.1665 -7.137001 -7.988501 -8.913001 -10.064 -6.01 -15.2713 -16.2306 -15.0727 
-8.2775 -10.057 -13.4982 -10.0785 -13.4157 -12.7582 -9.6175 -12.4375 -14.6117 -15.806 -17.9704 -14.0634 -7.8305 -11.272 -10.057 -11.4593 -9.9715 -5.867001 -4.615 -7.0975 -7.884 -10.6004 -9.318001 -8.52 -9.788 -9.3585 -11.3153 -11.8691 -15.8389 -19.953 -18.9551 
-11.0513 -14.3724 -13.4982 -15.3146 -17.4129 -14.1112 -12.4375 -18.1052 -18.5942 -19.6824 -18.8649 -14.4729 -13.0435 -13.9965 -12.5654 -11.7508 -10.756 -5.8745 -7.119 -7.889501 -11.8058 -12.5879 -9.5505 -10.564 -11.2966 -11.8818 -13.1204 -21.698 -20.5206 -22.6775 
-4.7455 -2.186 -1.4985 -3.585 -2.3345 -2.9705 -2.664 -5.3625 -4.6205 -1.8085 -5.469 -3.8825 -2.4285 -4.84 -3.9305 -1.7565 -4.179 -3.4945 -1.8085 -4.502 -1.7565 -4.659 -3.871 -2.5195 -3.571 -3.8755 
-6.146 -3.339 -4.369 -5.596001 -5.03 -5.5645 -6.318 -8.9785 -5.054 -6.781 -7.806001 -6.278 -6.837 -7.581 -4.4195 -5.809 -6.8125 -4.5825 -5.6855 -5.475 -5.7495 -6.427001 -5.4415 -5.2575 -6.48 
-7.946 -5.9755 -6.056 -6.033501 -6.811501 -8.023001 -10.0885 -9.987 -10.004 -9.226501 -9.727501 -6.9965 -10.3815 -7.73 -7.4485 -8.226001 -7.9515 -8.811001 -6.8135 -8.318501 -7.1645 -7.502001 -7.8475 -7.8885 
-9.684 -6.9815 -6.1945 -7.4725 -8.613501 -10.7025 -10.4165 -10.723 -10.7225 -10.7185 -10.141 -10.7325 -10.4795 -9.609 -10.223 -9.4875 -10.757 -10.0575 -10.163 -10.0215 -8.2025 -9.188001 -10.1 
-9.940001 -6.985 -7.6355 -8.854501 -10.702 -10.7425 -10.736 -10.7485 -12.2145 -10.784 -10.769 -10.7855 -12.3585 -10.762 -10.768 -12.3786 -12.0035 -13.407 -10.667 -10.5275 -9.942501 -10.703 
-2.645 -3.2295 -3.433 -1.7565 -2.4265 -2.229 -5.578 0 -3.0365 -2.882 -2.489 -5.2035 -4.3435 -1.756 -4.089 -2.915 -5.034 0 -2.872 -3.433 -1.7565 -1.4985 -3.486 -4.031 -1.4985 -5.4125 -2.4945 -5.0315 -4.302 -1.756 -3.693 -1.8085 -3.301 -3.6045 -4.1145 -2.9775 -2.186 -3.7555 0 
-6.2145 -6.7735 -4.1845 -4.305 -3.3415 -7.404 -5.578 -3.0365 -5.047 -3.631 -6.6545 -9.322001 -5.67 -5.997 -6.2465 -5.7465 -5.034 -2.872 -5.412001 -4.1845 -2.4195 -3.5655 -6.015 -5.469 -6.7095 -6.939001 -6.7875 -7.661 -5.729 -5.153501 -5.7075 -4.019 -5.5525 -9.226501 -5.6145 -4.91 -7.23 -3.7555 
-9.599501 -7.6065 -6.131 -5.714 -9.039001 -7.404 -8.405001 -5.047 -5.136001 -7.8545 -11.5194 -10.8633 -10.757 -7.957 -9.923 -5.7465 -8.012501 -5.412001 -6.0505 -4.6515 -4.824501 -6.067 -7.16 -10.856 -8.057001 -9.353001 -9.014501 -8.880501 -9.053 -7.1035 -7.650001 -6.363 -11.4431 -10.9047 -7.617 -10.096 -7.23 
-10.312 -9.281 -6.837 -9.9975 -9.039001 -10.281 -10.4945 -5.136001 -10.315 -12.8272 -13.0607 -15.9503 -12.717 -11.6441 -9.923 -8.85 -10.674 -6.0505 -6.430501 -7.56 -8.099001 -7.195001 -12.6526 -12.2035 -10.0885 -11.782 -10.085 -12.3747 -11.1026 -8.9445 -10.0095 -12.6846 -13.1213 -12.9072 -13.5298 -10.096 
-11.9865 -10.276 -10.1105 -9.9975 -11.927 -12.3705 -10.6895 -10.315 -15.2877 -14.3685 -18.1477 -17.9103 -16.4041 -11.6441 -13.0265 -11.6107 -11.3125 -6.430501 -9.5795 -8.304501 -9.3 -12.6932 -14.0001 -14.235 -12.6025 -12.8525 -13.5792 -14.4243 -12.9436 -11.482 -16.5959 -14.3628 -15.1238 -18.82 -13.5298 
