-4.759 
n/a 
n/a 
n/a 
n/a 
-4.759 
n/a 
n/a 
n/a 
n/a 
-4.759 
n/a 
n/a 
n/a 
n/a 
-4.759 
n/a 
n/a 
n/a 
n/a 
-1.934 -2.8705 -3.4005 -3.3435 -2.186 -4.808 -1.756 -6.1655 0 
-4.1055 -6.365 -6.959 -4.9685 -6.7925 -5.9215 -7.185 -6.1655 
-7.454501 -10.1675 -9.02 -9.271001 -7.42 -10.4035 -7.185 
-11.649 -12.3575 -13.5739 -9.692 -12.2814 -10.4035 
-13.839 -16.9114 -13.9949 -14.5966 -12.2814 
-3.5455 -3.091 -3.284 -3.4795 -2.9805 -3.251 -1.4985 -4.116 -1.7565 -5.851501 -1.756 -4.8525 
-5.242001 -6.365 -6.124001 -6.1615 -4.429 -4.5775 -5.1355 -5.3425 -7.3995 -7.9505 -6.3325 
-8.0965 -7.885 -8.299001 -7.49 -5.9835 -8.1075 -5.7505 -11.5061 -9.3415 -12.7934 
-8.601501 -8.8345 -9.460001 -9.104 -9.208501 -8.4145 -12.0497 -13.4481 -14.3048 
-9.4635 -9.6715 -11.2844 -12.387 -9.5985 -14.8945 -13.9917 -18.4114 
-2.9805 -2.186 -3.383 -4.8525 -1.756 -5.1375 -4.116 -1.934 -2.985 -4.6655 -5.648 0 
-4.1635 -4.438 -7.4775 -6.351501 -6.246 -9.3345 -5.586 -4.111 -6.7685 -8.6545 -5.648 
-6.1695 -8.573501 -8.12 -11.7983 -10.749 -11.2903 -7.912001 -7.7055 -10.757 -8.6545 
-9.524 -9.058001 -13.8198 -16.3013 -12.7048 -13.6163 -11.7755 -11.885 -10.757 
-9.7805 -14.7956 -18.3228 -18.2571 -15.0308 -17.4798 -15.955 -11.885 
-3.383 -4.0135 -1.756 -5.036 -4.0335 -3.6765 -1.934 -3.091 -3.284 -3.4795 0 
-6.339 -5.68 -6.4885 -10.254 -8.697001 -5.201 -4.2105 -6.365 -6.124001 -3.4795 
-7.0175 -10.634 -12.2947 -15.1023 -10.3787 -7.161 -7.359001 -7.885 -6.124001 
-12.6889 -16.4402 -17.143 -16.784 -12.3387 -10.134 -8.771501 -7.885 
-18.4951 -21.2885 -18.8247 -18.744 -15.3117 -11.7861 -8.771501 
