-4.759 
n/a 
n/a 
n/a 
n/a 
-4.759 
n/a 
n/a 
n/a 
n/a 
-4.759 
n/a 
n/a 
n/a 
n/a 
-4.759 
n/a 
n/a 
n/a 
n/a 
-8.144 -6.636 -6.705 0 -6.705 -2.229 -3.993 -3.852 
-15.7506 -13.7762 -6.705 -6.705 -8.279501 -4.745 -6.345 
-22.8908 -13.7762 -8.882 -8.279501 -11.2661 -7.644 
-22.8908 -15.9532 -10.3225 -11.2661 -14.1651 
-25.0678 -17.3937 -13.8115 -14.1651 
-8.144 -6.636 -6.705 0 -6.705 -4.1445 -3.993 -5.1105 
-15.7506 -13.7762 -6.705 -6.705 -9.054501 -9.290501 -10.2135 
-22.8908 -13.7762 -8.882 -9.054501 -14.4325 -15.794 
-22.8908 -15.9532 -11.8141 -14.4325 -20.936 
-25.0678 -18.8853 -17.1921 -20.936 
-12.16972 -6.705 0 -6.705 -8.3925 -3.993 -3.845 
-18.87472 -6.705 -6.705 -16.0789 -13.3031 -7.7565 
-18.87472 -8.882 -16.0789 -20.9895 -17.0666 
-21.05172 -18.8385 -20.9895 -24.753 
-31.00822 -23.7491 -24.753 
-8.144 -6.636 -6.705 0 -6.705 -4.1445 -8.4405 -3.852 
-15.7506 -13.7762 -6.705 -6.705 -9.054501 -13.6018 -10.8215 
-22.8908 -13.7762 -8.882 -9.054501 -18.7438 -15.9828 
-22.8908 -15.9532 -11.8141 -18.7438 -21.1248 
-25.0678 -18.8853 -21.5034 -21.1248 
