-4.759 
n/a 
n/a 
n/a 
n/a 
-4.759 
n/a 
n/a 
n/a 
n/a 
-4.759 
n/a 
n/a 
n/a 
n/a 
-4.759 
n/a 
n/a 
n/a 
n/a 
-2.9805 -3.5745 -3.091 -5.437 -1.934 -5.3885 -9.685 -3.93 -4.3715 -3.284 -1.756 -3.5865 -1.934 -8.946501 -2.229 -3.5865 0 
-4.8665 -6.1395 -7.42 -6.7075 -6.4035 -16.0413 -13.698 -6.985001 -5.4425 -4.8255 -5.6005 -5.4235 -10.2135 -9.0185 -5.343 -3.5865 
-6.7765 -8.823 -8.2015 -10.2285 -17.3831 -20.0543 -16.753 -7.3585 -6.9945 -6.234 -7.829 -14.5424 -10.278 -9.157001 -5.343 
-9.061501 -9.4095 -10.4505 -21.3797 -21.3961 -23.1093 -17.1265 -9.158501 -8.3575 -8.119 -17.2253 -14.6069 -10.9451 -9.157001 
-9.7375 -11.7013 -21.7083 -25.3927 -24.4511 -23.4828 -18.9265 -10.298 -9.884001 -17.6091 -17.2898 -15.274 -10.9451 
-2.9805 -3.7555 -3.091 -3.4005 -2.5045 -5.3885 -9.685 -3.93 -10.337 -3.284 -1.756 -3.321 -1.934 -12.16972 -3.5865 
-5.3095 -5.822001 -6.4455 -5.658 -7.3385 -16.0413 -13.698 -15.5574 -13.621 -4.8255 -4.0055 -5.4075 -15.11012 -15.75622 
-6.5035 -8.748 -7.293 -11.1252 -18.3049 -20.0543 -25.3254 -18.8414 -15.1625 -6.894 -6.081 -19.10082 -18.69662 
-9.1225 -9.535501 -12.945 -22.0916 -22.3179 -31.6817 -28.6094 -20.3829 -17.231 -8.624001 -19.81352 -22.68732 
-9.8985 -15.3065 -23.9114 -26.1046 -33.9453 -34.9657 -30.1509 -22.4514 -18.961 -22.49392 -23.40002 
-2.9805 -4.8465 -5.437 -1.934 -9.685 -3.299 -3.284 0 -3.321 -4.8465 -10.2775 -3.5865 0 
-6.084001 -10.6095 -6.7075 -12.6254 -13.067 -4.0885 -3.284 -3.321 -7.284 -16.0032 -14.2978 -3.5865 
-12.4262 -11.88 -17.9083 -16.0074 -13.8565 -4.0885 -6.651 -7.284 -18.8329 -20.0235 -14.2978 
-13.6967 -23.0808 -21.2903 -16.7969 -13.8565 -7.492001 -9.397 -18.8329 -22.8532 -20.0235 
-24.8975 -26.4628 -22.0798 -16.7969 -17.26 -9.715 -21.0687 -22.8532 -22.8532 
-2.9805 -4.8465 -1.934 -1.4985 -5.3885 -10.0205 -2.229 -3.93 -4.3715 -3.284 -1.756 -3.321 -4.8465 -1.934 -10.0205 -3.5865 0 
-6.084001 -5.823 -2.6125 -7.283501 -16.3768 -10.468 -6.3275 -6.985001 -5.4425 -4.8255 -4.0055 -7.284 -5.823 -12.9609 -11.117 -3.5865 
-7.475 -6.5125 -8.432001 -18.957 -16.8243 -14.5665 -8.8065 -7.3585 -6.9945 -6.894 -7.901 -8.42 -17.4023 -14.0574 -11.117 
-8.1875 -12.7624 -20.2137 -19.4045 -20.9228 -17.0455 -8.8865 -9.158501 -9.0505 -9.2255 -9.081 -20.1937 -18.4988 -14.0574 
-14.6912 -24.5441 -20.6612 -23.503 -23.4018 -17.1255 -10.7175 -11.2665 -11.4244 -10.6745 -20.8751 -21.2902 -18.4988 
