-4.759 
n/a 
n/a 
n/a 
n/a 
-4.759 
n/a 
n/a 
n/a 
n/a 
-4.759 
n/a 
n/a 
n/a 
n/a 
-4.759 
n/a 
n/a 
n/a 
n/a 
-3.74 0 -7.831501 -3.1385 
-3.74 -7.831501 -10.9315 
-12.5695 -10.9315 
-15.6695 
n/a 
-3.391 0 -4.803 -4.467 -4.501 
-3.391 -4.803 -6.707001 -10.1075 
-8.886001 -6.707001 -12.0295 
-11.0072 -12.0295 
-16.3297 
-3.74 0 -4.803 -4.471 -4.269 
-3.74 -4.803 -8.820001 -8.447001 
-9.436001 -8.820001 -13.0456 
-13.6096 -13.0456 
-17.8352 
-3.522 0 -2.9805 -3.43 -4.803 
-3.522 -2.9805 -5.2875 -8.3335 
-6.711 -5.2875 -10.6735 
-9.300501 -10.6735 
-14.7943 
