-4.759 
n/a 
n/a 
n/a 
n/a 
-4.759 
n/a 
n/a 
n/a 
n/a 
-4.759 
n/a 
n/a 
n/a 
n/a 
-4.759 
n/a 
n/a 
n/a 
n/a 
-1.934 -3.3635 0 -1.4985 -4.0885 -4.328 -6.7945 -1.934 -2.3615 -4.2995 -3.7555 -8.411 
-4.921 -3.3635 -1.4985 -4.856 -8.8715 -10.3545 -9.068001 -3.539 -6.233 -8.0695 -10.6605 
-4.921 -5.0395 -4.856 -9.461 -15.036 -12.628 -10.5135 -7.3795 -9.727501 -15.3177 
-5.9425 -8.8035 -9.461 -15.7317 -17.3095 -14.0735 -14.8866 -10.76 -17.0847 
-9.354501 -13.5489 -15.7317 -18.0052 -18.755 -18.4466 -18.2671 -18.1172 
-1.934 -3.3635 -5.3745 -4.891 -4.6535 -6.7945 -4.101 -3.8515 0 
-4.921 -9.0455 -7.061501 -8.9055 -12.2834 -10.5535 -6.072001 -3.8515 
-11.0122 -11.0131 -12.4682 -16.7712 -16.0424 -12.5245 -6.072001 
-12.9798 -16.4198 -20.3339 -20.5302 -18.0134 -12.5245 
-18.3865 -24.2855 -24.0929 -22.5012 -18.0134 
-1.934 -3.3635 0 -6.7945 -3.0695 -2.7415 -4.1205 -2.5045 -1.4985 -4.0885 -5.704 -1.7565 -4.5845 -4.794 0 
-4.921 -3.3635 -6.7945 -9.031 -4.6395 -5.631001 -5.3175 -3.583 -4.856 -10.368 -8.395 -6.3335 -9.500501 -4.794 
-4.921 -9.913 -9.031 -9.394501 -7.5465 -6.993001 -6.431 -6.321 -11.5423 -13.059 -13.317 -11.8847 -9.500501 
-11.8797 -12.2885 -9.394501 -12.9479 -9.195001 -7.827001 -9.0435 -13.2571 -14.2333 -17.981 -18.8682 -11.8847 
-14.2552 -12.652 -12.9479 -14.5964 -9.707001 -10.388 -16.0538 -15.9481 -19.1553 -23.5322 -18.8682 
-3.251 -3.687 -1.4985 -4.5845 -3.473 
-5.802 -5.053 -5.802501 -8.4785 
-6.5015 -9.6715 -9.779501 
-10.749 -13.6485 
-14.726 
