-4.759 
n/a 
n/a 
n/a 
n/a 
-4.759 
n/a 
n/a 
n/a 
n/a 
-4.759 
n/a 
n/a 
n/a 
n/a 
-4.759 
n/a 
n/a 
n/a 
n/a 
-3.873 -4.285 -4.978 -2.4945 -3.6965 -1.7565 -4.978 -3.7555 -2.5195 -2.4265 0 -3.4815 -2.186 -3.43 -1.7565 -6.885 0 
-8.7295 -10.5606 -6.7365 -6.924 -5.0655 -6.341001 -9.7295 -6.037 -5.0885 -2.4265 -3.4815 -5.5125 -4.64 -4.9095 -9.814501 -6.885 
-15.2643 -12.3191 -11.7804 -7.3805 -9.356501 -11.7053 -12.0938 -7.9175 -5.0885 -6.922501 -5.5125 -7.474 -5.662001 -13.6711 -9.814501 
-17.0228 -17.363 -12.2369 -11.8549 -14.9242 -14.0696 -13.9743 -7.9175 -10.2435 -9.6955 -7.474 -8.400001 -14.6188 -13.6711 
-22.0667 -17.8195 -16.7113 -17.4226 -17.2885 -15.9501 -13.9743 -13.4097 -13.1641 -11.6958 -8.400001 -17.513 -14.6188 
-1.4985 -4.975 -2.186 -5.812 -4.136 0 -4.013 -3.0365 -2.4945 -4.0005 -6.061 -4.2595 -5.431 -4.6865 -3.8035 -2.3335 -3.8825 -1.8085 -4.308 -4.5665 -1.7695 -12.16972 -3.189 -3.8245 -3.6215 -3.1495 -4.6865 -4.048 -3.851 -1.7695 -1.4985 -5.4395 -4.1865 -4.1115 -1.756 -3.599 -5.3415 
-5.592 -7.1355 -6.8735 -8.814 -4.136 -4.013 -5.438 -3.688 -5.802 -9.5835 -10.2925 -10.4765 -8.894501 -6.9585 -5.356 -6.371 -5.269 -5.058 -6.3535 -5.2545 -14.92142 -15.35872 -6.1705 -7.179501 -6.3035 -8.316501 -6.9265 -7.777 -4.0015 -2.7955 -5.797 -9.195001 -8.484 -5.537 -5.2745 -7.158501 
-7.2145 -10.7025 -9.8405 -8.814 -7.945001 -5.438 -5.926 -5.9775 -12.031 -14.112 -16.5095 -13.94 -9.8675 -8.5135 -8.609501 -7.348001 -7.6265 -6.519 -6.533 -19.26822 -18.11042 -18.34022 -11.1855 -9.226501 -11.7985 -9.156 -10.1595 -7.8255 -4.5775 -6.831 -9.3865 -13.8371 -9.8465 -6.933001 -8.5115 
-10.8975 -13.6695 -9.8405 -12.7004 -9.236 -5.926 -8.2295 -12.3707 -16.5595 -20.329 -19.973 -14.913 -11.4683 -11.9626 -9.649 -9.232501 -8.425 -6.6485 -20.92972 -22.45722 -21.09192 -23.35522 -13.2325 -14.8081 -12.638 -12.4428 -10.1665 -8.2515 -8.054001 -10.688 -14.3272 -15.1996 -9.939 -10.151 
-13.8645 -13.6695 -13.7591 -13.9914 -9.957001 -8.2295 -14.7469 -16.8992 -22.7765 -23.7925 -20.946 -16.5138 -14.9174 -13.0021 -11.6851 -9.857501 -8.5155 -21.10382 -24.11872 -25.43872 -26.10692 -25.40222 -18.8141 -15.6476 -15.9248 -12.4498 -10.518 -11.8688 -12.0588 -15.6287 -15.6897 -15.2921 -13.8066 
-2.264 -1.4985 -4.7885 -5.465 -1.7565 -1.4985 -3.995 0 -4.846 -2.4945 -7.581501 -1.4985 -4.2645 -1.7565 -4.846 -4.654 -1.756 -5.2115 -1.756 -2.3345 -6.0765 0 
-2.9195 -5.282001 -8.022 -6.933 -2.4195 -4.712 -3.995 -4.846 -8.2075 -9.268001 -9.609001 -5.598001 -5.6665 -6.100501 -8.168 -5.758 -6.396 -6.0435 -4.614 -7.865001 -6.0765 
-6.3535 -8.3605 -8.832001 -7.3645 -5.2205 -4.712 -8.062 -8.2075 -15.2202 -11.5095 -13.8379 -6.2565 -9.434 -9.073501 -9.1195 -8.937 -7.731501 -9.085501 -10.341 -7.865001 
-9.642 -8.9755 -9.208501 -7.6365 -5.2205 -9.310501 -11.7851 -15.2202 -17.4617 -15.7384 -14.4964 -9.932501 -10.09 -9.953501 -12.4323 -10.4675 -10.159 -14.7937 -10.341 
-10.1965 -9.320001 -9.625501 -7.6365 -9.734 -13.179 -18.7978 -17.4617 -21.6906 -16.3969 -18.1724 -10.638 -10.767 -13.2663 -13.9628 -12.895 -15.8672 -14.7937 
-2.264 -1.4985 -6.282 -4.285 -4.1455 -3.3715 -4.978 -2.5045 -3.557 -2.5045 -4.913 0 
-2.9195 -7.132501 -9.517 -6.3675 -7.862 -7.883 -7.283 -6.291 -6.1615 -7.5605 -4.913 
-8.4315 -9.644501 -12.7465 -10.9624 -12.4911 -9.745501 -9.8065 -8.9945 -10.4425 -7.5605 
-11.2861 -13.0212 -17.3414 -15.5915 -14.3536 -12.375 -12.921 -13.7049 -10.4425 
-14.6628 -17.6161 -21.9705 -17.454 -16.9831 -15.4895 -17.6314 -13.7049 
