-4.759 
n/a 
n/a 
n/a 
n/a 
-4.759 
n/a 
n/a 
n/a 
n/a 
-4.759 
n/a 
n/a 
n/a 
n/a 
-4.759 
n/a 
n/a 
n/a 
n/a 
-8.292 -5.0485 0 -11.5365 0 
-10.696 -5.0485 -7.120501 -7.120501 
-10.9118 -7.707 -7.120501 
-12.6983 -7.707 
-12.6983 
-4.204 -9.7335 -5.0485 0 -11.5365 0 
-14.7957 -15.563 -5.0485 -7.120501 -7.120501 
-20.6252 -15.563 -7.707 -7.120501 
-20.6252 -18.2215 -7.707 
-23.2837 -18.2215 
-4.204 0 -4.2735 -12.16972 0 -11.5365 0 
-4.204 -4.2735 -17.20922 -12.16972 -7.120501 -7.120501 
-9.595 -17.20922 -17.20922 -19.29022 -7.120501 
-22.57072 -17.20922 -24.32972 -19.29022 
-22.57072 -24.32972 -24.32972 
-4.088 -5.0485 0 -11.5365 0 
-5.9395 -5.0485 -7.120501 -7.120501 
-5.9395 -7.707 -7.120501 
-7.726 -7.707 
-7.726 
