-4.759 
n/a 
n/a 
n/a 
n/a 
-4.759 
n/a 
n/a 
n/a 
n/a 
-4.759 
n/a 
n/a 
n/a 
n/a 
-4.759 
n/a 
n/a 
n/a 
n/a 
-4.3625 -7.268 -9.573001 -2.186 -1.4985 -2.871 -1.7565 -1.4985 -3.2825 -3.6975 -4.384 -6.635 -2.7415 -3.115 -2.9805 -3.7555 -3.091 -3.8625 -2.5195 -3.875 -2.5045 -1.4985 -4.129 -2.95 -1.7565 -5.4545 -1.756 -5.5 -4.153 0 
-12.4709 -17.404 -12.2062 -3.339 -4.316 -3.5385 -2.4195 -3.712 -7.191 -8.514 -9.442501 -7.965001 -5.333 -5.448501 -5.3095 -5.822001 -6.874001 -5.4455 -5.8335 -6.4305 -3.1915 -5.424 -6.666 -4.3785 -6.386001 -7.0555 -7.01 -5.5985 -4.153 
-22.6069 -20.0372 -13.3592 -5.399 -6.0265 -3.7675 -4.687 -8.144501 -13.1253 -13.261 -10.6405 -9.937 -7.399 -7.6035 -6.5035 -9.801001 -8.2945 -9.182 -8.396 -6.9485 -6.963 -7.272 -7.472001 -9.767 -7.685 -9.854 -7.364 -5.5985 
-25.2401 -21.1902 -15.4192 -6.9585 -6.275001 -4.982 -8.745001 -14.2728 -17.8723 -13.873 -12.334 -11.9305 -9.571 -8.737501 -10.442 -11.3927 -12.278 -12.1983 -8.8455 -11.3604 -8.6565 -7.7025 -13.5271 -11.2686 -10.8003 -10.319 -7.364 
-26.3931 -23.2502 -16.9787 -7.1485 -7.648 -8.9315 -15.1579 -19.0198 -18.4843 -16.2687 -14.2677 -14.0815 -10.7962 -12.9272 -12.2559 -15.3762 -15.2943 -12.6478 -13.358 -13.0539 -9.2075 -14.0184 -15.0287 -14.3839 -11.2653 -10.319 
-4.2705 -7.449501 -3.0695 -2.7415 -1.4985 -4.4695 -4.3625 -1.934 -1.4985 -4.384 -4.2085 0 -1.756 -2.9805 -4.1585 -2.3335 -1.934 -5.741 -1.756 -4.129 -1.7565 -1.4985 -5.5 -5.1185 -3.676 -2.229 -3.594 -1.756 -4.245 -4.4715 -3.9595 -2.5195 -1.4985 -3.875 0 
-12.5946 -11.1274 -4.6395 -4.063 -5.252501 -7.43 -6.201 -2.6125 -5.614 -6.9405 -4.2085 -1.756 -4.3555 -5.319 -5.438 -4.468 -6.966 -6.9645 -6.031 -6.9015 -2.4195 -5.863501 -7.125501 -8.821501 -4.593 -5.7155 -4.857 -5.618 -8.375 -7.620001 -5.087 -3.1695 -6.274 -3.875 
-16.2725 -12.6974 -5.8275 -7.426001 -8.109 -8.8865 -6.9135 -7.583001 -7.3355 -6.9405 -5.578501 -4.3555 -6.4795 -7.837501 -7.386 -9.7705 -8.2735 -12.7481 -8.2645 -7.3865 -6.2965 -8.165501 -10.6875 -9.3905 -8.6685 -7.01 -6.858 -10.1545 -11.7523 -8.121 -5.51 -8.135 -6.274 
-17.8425 -13.8854 -8.965501 -9.961 -9.963501 -9.387501 -12.3208 -9.194501 -7.3355 -8.349001 -8.245001 -6.4795 -8.8625 -9.685 -12.8847 -10.7625 -14.8411 -14.9816 -8.7505 -11.6441 -8.8365 -11.8343 -11.2565 -13.604 -10.082 -9.3485 -11.7021 -13.5318 -12.2533 -8.5755 -10.757 -8.135 
-19.0305 -17.0234 -11.5513 -11.8155 -10.4645 -15.043 -13.9323 -9.194501 -8.437 -10.411 -10.5642 -8.8625 -10.6465 -15.2893 -13.8767 -17.3301 -17.0746 -15.4676 -13.1133 -14.1841 -12.6315 -12.4033 -15.47 -15.0175 -12.5525 -14.2252 -15.0794 -14.0328 -12.7078 -13.9447 -10.757 
-3.676 -3.594 -1.756 -4.245 -2.186 -4.6365 -2.5195 -3.676 0 -4.3625 -4.2705 -6.389 0 -4.384 -3.8405 -2.871 -1.7565 -1.4985 -3.2825 -1.934 -4.684 -4.153 
-7.388 -4.857 -5.618 -6.276501 -5.5835 -4.8875 -6.0905 -3.676 -4.3625 -7.679501 -10.3545 -6.389 -4.384 -8.481001 -6.6365 -3.5385 -2.4195 -3.712 -5.0275 -6.7445 -5.274 
-8.968 -6.858 -7.915 -9.694501 -5.712501 -9.485001 -6.0905 -8.662001 -7.679501 -14.2689 -10.3545 -10.389 -8.481001 -11.3276 -7.621 -3.7675 -4.687 -5.315 -10.3345 -6.864 
-10.703 -8.967501 -11.4674 -9.828501 -10.575 -9.485001 -11.8699 -12.1934 -14.2689 -14.2689 -14.3545 -14.9012 -11.3276 -12.3121 -7.792 -4.982 -6.169001 -10.563 -10.437 
-12.8125 -12.5627 -11.6014 -14.5876 -10.575 -15.5642 -15.4013 -18.7828 -14.2689 -18.2689 -18.8667 -17.7478 -12.3121 -12.4831 -9.349501 -6.3765 -11.918 -10.664 
-4.3625 -4.2705 -9.163 0 -3.0695 -2.186 -4.4695 -1.934 -1.4985 -6.0275 -4.2085 -1.934 -1.4985 -4.193 -1.7565 -5.741 -1.756 -1.4985 -5.5 -4.153 0 -3.17 -1.7565 -1.4985 -4.3665 -3.7865 -2.4945 -3.0465 -3.1435 -3.8625 -2.5195 -3.875 0 
-7.679501 -14.3081 -9.163 -3.0695 -4.2675 -6.053 -6.4835 -2.6125 -8.135 -11.2888 -5.981501 -2.6125 -4.594501 -4.7225 -7.219 -6.9645 -3.0405 -5.863501 -5.5985 -4.153 -3.17 -4.179 -2.4195 -5.585 -8.932501 -6.6215 -6.7005 -6.2275 -7.536 -5.4455 -5.8335 -3.875 
-18.2225 -14.3081 -12.3559 -4.2675 -7.6685 -7.6365 -7.004 -9.647501 -14.0683 -13.0618 -6.686501 -5.558001 -4.7895 -10.1945 -8.342 -8.5935 -7.8155 -5.95 -5.5985 -7.189501 -4.179 -4.497 -6.532001 -10.8408 -12.2329 -11.3117 -10.6121 -11.2618 -9.4855 -9.182 -5.8335 
-18.2225 -17.501 -13.5539 -7.6685 -8.962001 -8.208 -14.5616 -15.6594 -15.8413 -13.7668 -9.8085 -6.0865 -10.459 -11.5755 -10.2472 -9.271 -7.948 -5.95 -8.416 -7.672 -4.497 -8.394501 -12.2284 -14.1412 -16.9231 -15.2233 -15.6464 -13.2113 -13.1918 -9.182 
-21.4154 -18.699 -16.9549 -8.962001 -9.506001 -16.0044 -20.5735 -17.4324 -16.5463 -16.8888 -10.313 -11.9876 -12.033 -13.4807 -10.9247 -9.962 -7.948 -8.582001 -8.9575 -7.940501 -8.394501 -14.0583 -15.5288 -18.8314 -20.8347 -20.2576 -17.5959 -16.9176 -13.1918 
