-4.759 
n/a 
n/a 
n/a 
n/a 
-4.759 
n/a 
n/a 
n/a 
n/a 
-4.759 
n/a 
n/a 
n/a 
n/a 
-4.759 
n/a 
n/a 
n/a 
n/a 
-6.920001 -4.3285 -7.8435 -3.3755 0 -7.852 -3.3755 0 -2.9805 -4.4895 -3.1435 -3.699 -2.3615 -3.6615 -3.6955 -3.2615 -6.6575 
-11.117 -13.1928 -11.8056 -3.3755 -7.852 -11.7489 -3.3755 -2.9805 -5.475 -6.943501 -6.5515 -6.2305 -6.610001 -7.336 -6.2945 -10.007 
-19.9813 -17.1549 -11.8056 -12.2643 -11.7489 -11.7489 -5.502501 -5.475 -8.266001 -9.739 -9.7015 -10.4765 -10.647 -9.01 -13.5334 
-23.9434 -17.1549 -20.6944 -16.1612 -11.7489 -13.8759 -7.7625 -8.266001 -11.3617 -13.179 -14.0755 -14.5135 -12.321 -16.5009 
-23.9434 -26.0437 -24.5913 -16.1612 -13.8759 -16.1359 -10.9457 -11.3617 -14.8017 -17.553 -18.1125 -16.1875 -19.8119 
-3.433 -1.7565 -9.8575 -2.229 -3.7895 -9.299001 -2.7415 -3.8115 -1.7695 -4.0585 -1.4985 -3.331 -1.7565 -3.914 -1.756 -4.7615 
-4.1845 -12.5632 -12.4181 -5.618 -14.1765 -12.5419 -5.0165 -3.8325 -4.6165 -4.7185 -4.514 -5.1135 -5.071 -4.8495 -6.051 
-15.8806 -15.1238 -15.8071 -16.7606 -17.4194 -14.8169 -5.0235 -6.188 -5.2205 -6.642 -6.029 -8.3545 -5.8785 -9.002001 
-18.4412 -18.5128 -26.9497 -20.0035 -19.6944 -14.8239 -7.681 -6.7425 -7.612 -8.199 -9.3015 -9.0115 -10.292 
-21.8302 -29.6554 -30.1926 -22.2785 -19.7014 -17.4814 -8.3005 -8.989501 -8.816501 -11.6297 -10.1995 -13.9462 
-3.433 -1.7565 -6.6575 -2.229 -4.667 0 -6.920001 -2.7415 -3.8115 -1.7695 -4.0585 -1.4985 -4.4525 -1.7565 -1.4985 -5.823 -3.3755 -2.5045 -3.3235 -2.5045 -5.8695 -5.5435 0 
-4.1845 -8.2005 -8.055 -5.976501 -4.667 -6.920001 -8.799001 -5.0165 -3.8325 -4.6165 -4.7185 -4.731 -4.6715 -2.4195 -7.366 -9.403501 -5.375 -3.7105 -3.8485 -7.305 -8.295 -5.5435 
-11.5179 -9.2705 -12.0995 -5.976501 -12.8144 -8.799001 -11.3236 -5.0235 -6.188 -5.2205 -6.28 -4.7575 -5.560501 -8.2795 -10.1635 -11.4776 -6.900001 -3.8545 -8.9685 -10.7575 -8.295 
-12.5879 -13.354 -12.0995 -14.9027 -14.6934 -11.3236 -11.3306 -7.681 -6.7425 -7.0395 -6.3035 -5.6675 -10.7575 -11.2164 -12.4418 -13.0026 -7.343 -8.97 -12.7024 -10.7575 
-16.6714 -13.354 -21.0257 -16.7817 -17.218 -11.3306 -13.9881 -8.3005 -8.448001 -7.066 -7.383501 -10.759 -13.6944 -13.4947 -13.9668 -13.4456 -12.6723 -12.7057 -12.7024 
-4.4525 -1.7565 -3.5155 -6.634501 -4.7075 -1.756 -7.036 -4.7075 
-4.6715 -4.761 -9.8895 -7.402 -6.067501 -8.414001 -7.748 
-7.449 -10.2865 -10.378 -8.640501 -8.9645 -8.8365 
-13.1409 -10.436 -10.3965 -9.380001 -9.088501 
-13.2904 -10.449 -11.9174 -9.409501 
