-4.759 
n/a 
n/a 
n/a 
n/a 
-4.759 
n/a 
n/a 
n/a 
n/a 
-4.759 
n/a 
n/a 
n/a 
n/a 
-4.759 
n/a 
n/a 
n/a 
n/a 
-3.9345 -1.7695 -2.3615 -3.5035 -1.934 -4.4515 0 -3.535 -3.893 -1.7565 -4.351 -1.756 -10.9935 -4.031 -1.756 -3.1435 -4.0395 -3.074 -3.486 -3.115 -3.995 
-3.94 -3.736 -5.7945 -5.214 -7.154 -4.4515 -3.535 -5.6385 -4.1785 -5.587 -5.677001 -13.7581 -15.0245 -5.759 -4.1365 -6.358 -7.0645 -7.5765 -7.0495 -7.232501 
-5.875 -7.279 -7.4975 -11.3468 -7.154 -8.426001 -5.6385 -5.7335 -7.6145 -6.691 -18.8241 -17.7891 -16.7525 -8.240001 -7.4345 -9.309501 -12.0506 -9.783 -11.357 
-7.939001 -8.843 -13.9941 -11.3468 -11.6871 -10.8549 -5.7335 -8.87 -8.9125 -20.1163 -22.8551 -19.5171 -19.2335 -10.2645 -10.322 -14.3448 -14.2571 -14.1231 
-9.7805 -15.4588 -13.9941 -15.8799 -14.116 -10.9499 -8.87 -9.972 -22.4026 -24.1473 -24.5831 -21.9981 -21.258 -13.152 -15.3573 -16.5513 -18.5972 
-5.502 -5.3955 -2.4945 -5.3955 -3.2955 -2.0935 -4.8155 -1.7565 -5.158 -5.2365 0 -5.3965 0 -1.756 -2.8965 -4.7885 -3.7345 -4.248 0 
-8.9825 -6.910501 -7.9595 -7.988 -4.307 -6.7155 -5.775001 -6.686501 -7.791501 -5.2365 -5.3965 -5.3965 -1.756 -3.751 -7.8485 -5.866 -7.3365 -4.248 
-10.276 -9.552501 -9.778 -8.634501 -8.396501 -7.656 -9.368 -8.673 -7.791501 -7.473001 -5.3965 -6.617 -3.751 -8.491 -9.192 -8.817501 -7.3365 
-10.7675 -10.719 -9.9565 -10.5975 -9.1675 -9.9305 -10.1155 -8.673 -10.0155 -7.473001 -6.617 -8.3365 -8.491 -9.5415 -10.1115 -8.817501 
-10.7875 -10.7845 -10.725 -10.6795 -10.123 -10.135 -10.1155 -10.103 -10.0155 -8.5245 -8.3365 -10.071 -9.5415 -10.1205 -10.1115 
-1.934 -2.3615 -4.1935 -4.2815 -1.7695 -3.995 0 -4.4515 -2.8645 -5.084 -4.351 -1.756 -6.208 -4.16 -1.756 -3.1435 -5.014 -4.247 -2.186 -3.8825 -1.7695 -3.995 
-3.539 -6.0865 -8.742001 -4.4915 -5.497 -3.995 -4.4515 -6.9515 -8.185 -9.724501 -5.677001 -7.538 -10.3225 -5.5385 -4.1365 -7.887 -10.8054 -6.054501 -5.2765 -4.5575 -5.497 
-7.476501 -10.304 -9.009 -8.3055 -5.497 -6.726 -6.9515 -12.5546 -12.9637 -11.3745 -12.604 -10.757 -11.701 -8.0415 -8.695001 -13.9332 -12.6129 -9.406501 -5.3695 -7.9725 
-11.8138 -10.6075 -12.826 -8.3055 -9.2425 -10.7175 -12.5546 -17.3333 -14.6137 -18.3015 -15.823 -12.1355 -14.204 -12.8732 -15.018 -15.7407 -15.9649 -9.489 -8.9645 
-12.1173 -14.4245 -12.826 -12.4274 -13.3856 -16.3206 -17.3333 -18.9833 -21.5407 -21.5205 -17.2015 -14.6385 -19.0357 -19.1962 -16.8255 -19.0927 -16.0474 -13.1666 
-2.3615 -4.394 -3.837 -1.4985 -4.4515 0 -3.995 -2.4945 -4.394 -4.0645 
-6.5715 -6.3565 -4.797 -5.0235 -4.4515 -3.995 -6.4845 -5.713 -6.795 
-7.5745 -7.045 -8.651501 -5.0235 -7.647 -6.4845 -9.034 -7.965 
-8.2965 -11.0625 -8.651501 -8.205 -10.5035 -9.034 -12.1214 
-12.442 -11.0625 -12.1822 -11.4719 -13.053 -12.1214 
