-4.759 
n/a 
n/a 
n/a 
n/a 
-4.759 
n/a 
n/a 
n/a 
n/a 
-4.759 
n/a 
n/a 
n/a 
n/a 
-4.759 
n/a 
n/a 
n/a 
n/a 
-3.188 -3.535 -5.213 -2.186 -3.8655 -1.756 -1.4985 -3.188 -4.4665 -3.8375 -1.756 -4.5435 -1.7565 -5.354 -3.8375 -1.756 -3.074 -3.135 -1.7565 -1.4985 -3.535 -3.8745 -1.7565 -4.1385 -4.3355 -1.7565 -3.8735 -2.186 -3.074 -3.5445 -1.4985 -3.8655 -5.213 0 
-7.366 -8.664001 -6.983 -6.4195 -5.2725 -3.0405 -3.619 -7.297501 -7.999001 -5.325 -5.9255 -5.909 -6.329501 -8.797501 -5.325 -4.566 -5.767 -3.9195 -2.4195 -4.8385 -6.747 -5.8715 -6.1825 -5.686 -6.4055 -5.112 -5.949 -4.156 -6.580501 -4.002 -6.342 -8.6335 -5.213 
-13.0274 -10.586 -9.989 -8.243 -6.206 -5.1285 -7.592501 -11.5494 -9.362 -10.6605 -7.7215 -9.964001 -10.0505 -9.664001 -8.0655 -6.741 -6.799 -4.168 -5.771501 -7.7495 -7.95 -9.659 -7.919 -8.7415 -10.335 -7.035501 -7.666 -7.254 -7.014501 -8.9315 -9.878 -8.6335 
-14.9494 -13.592 -11.8923 -9.558001 -7.401 -9.903001 -12.1466 -12.9124 -14.9615 -12.4565 -12.1755 -13.685 -11.3198 -13.9711 -10.382 -7.681001 -6.9535 -7.460001 -8.295001 -8.475 -11.8399 -10.4695 -11.2977 -12.9828 -12.2585 -8.689501 -11.0032 -7.847 -12.075 -12.6079 -9.878 
-17.9554 -15.4953 -13.2073 -10.6355 -12.3045 -14.5807 -13.5096 -18.5119 -16.7575 -16.9105 -15.8965 -14.9543 -15.6269 -16.2876 -11.322 -7.821001 -9.821501 -9.379001 -9.410001 -12.5577 -12.6504 -13.8482 -15.539 -14.9063 -13.9125 -12.1397 -11.5962 -13.1465 -15.7514 -12.6079 
-3.8655 0 -1.4985 -4.834 -3.383 -3.535 -5.213 -1.756 -4.834 -4.4665 -3.8375 -3.7965 -5.354 -3.8375 -1.756 -3.535 -3.8745 -2.5195 -3.8735 0 -4.1385 -5.0895 
-3.8655 -1.4985 -5.5435 -8.546 -5.298 -8.664001 -6.4325 -7.126 -6.9325 -7.999001 -7.9025 -9.323 -8.797501 -5.325 -5.089 -6.747 -6.9335 -5.578 -3.8735 -4.1385 -8.7465 
-5.712501 -5.5435 -8.991501 -10.8366 -10.543 -9.951 -12.5583 -8.283001 -10.7175 -12.7696 -13.6372 -13.1421 -9.664001 -9.2025 -7.8645 -9.422001 -10.1265 -5.578 -8.0765 -8.7465 
-8.3295 -8.991501 -11.8165 -16.0816 -11.83 -16.1462 -13.7153 -13.822 -15.4881 -18.5043 -17.4563 -14.0086 -15.1081 -10.412 -10.5635 -12.6596 -10.1265 -10.2985 -13.5817 
-13.3599 -11.8165 -17.0615 -17.3686 -18.0252 -17.3032 -19.2543 -18.5926 -21.2228 -22.3234 -18.3228 -19.4527 -16.3176 -13.111 -13.8011 -12.6596 -14.847 -16.2721 
-3.8655 -2.186 -1.8085 -3.59 -2.3335 -4.759 -1.4985 -5.217 -5.213 -1.756 -1.4985 -4.1735 -3.8375 -3.873 -4.2105 -1.934 -1.4985 -3.188 -2.5045 -3.3235 -2.5045 -5.354 -1.756 -3.135 -3.535 -3.8745 -1.934 -1.4985 -4.1865 -1.756 -4.1385 -5.059 0 
-5.968 -3.164 -4.973001 -5.6455 -6.558001 -5.706 -5.402 -8.296 -6.4325 -3.0405 -4.445 -7.0175 -7.3295 -6.837 -6.052 -2.6125 -3.619 -5.509 -3.7105 -3.8485 -8.344501 -6.933 -4.5755 -5.962501 -6.747 -6.057 -2.6125 -5.177 -5.9565 -5.779 -7.191 -5.059 
-6.7675 -6.4275 -6.1785 -9.651501 -7.248 -9.405001 -8.895 -9.1435 -7.366 -6.2705 -7.383 -10.6095 -9.726501 -8.211 -6.673 -4.377 -5.6785 -6.4645 -3.8545 -9.626 -9.3225 -9.3125 -7.264 -8.596001 -7.805 -6.350501 -6.116 -7.0565 -7.696 -7.320001 -7.191 
-8.4475 -7.3025 -10.13 -10.318 -10.6335 -13.0612 -9.650001 -9.828501 -9.747001 -9.1225 -10.7025 -13.0065 -11.1909 -8.479 -8.9385 -6.4525 -6.647 -6.576 -9.627 -10.4785 -11.8996 -12.2396 -9.161 -9.645 -7.9775 -7.890501 -7.955501 -7.909 -7.786 -7.320001 
-9.385501 -10.634 -10.7965 -13.7035 -14.2897 -13.8162 -10.206 -10.217 -10.231 -12.4646 -13.0995 -14.4709 -11.4589 -9.186001 -11.1768 -7.3665 -6.7265 -12.7755 -10.4785 -13.0556 -14.8267 -14.1366 -10.575 -9.797501 -9.627501 -8.9905 -8.324 -7.9535 -7.786 
-4.3105 -2.4285 -4.3105 -3.188 -5.0185 -3.188 -3.383 -5.217 -3.8745 0 -3.188 -3.6135 -3.8745 0 -12.16972 -3.8375 0 -4.1865 -4.1385 -5.059 0 -3.535 -3.8745 0 
-7.2875 -7.075 -7.563 -7.9875 -8.487 -7.2295 -7.7805 -8.830501 -3.8745 -3.188 -7.143001 -8.470501 -3.8745 -12.16972 -16.00722 -3.8375 -4.1865 -7.175 -7.191 -5.059 -3.535 -6.747 -3.8745 
-9.0485 -10.7831 -10.7705 -10.636 -13.2245 -12.0142 -11.649 -8.830501 -7.713 -7.143001 -12.5684 -8.470501 -17.55262 -16.00722 -16.00722 -7.236 -7.175 -9.3915 -7.191 -9.112 -6.747 -6.747 
-13.5024 -13.9276 -14.0745 -15.6601 -18.4638 -15.8827 -11.649 -13.1644 -12.5492 -12.5684 -12.5684 -22.46422 -21.39012 -16.00722 -19.40572 -11.6003 -9.3915 -9.3915 -11.7372 -12.7336 -6.747 
-16.6469 -17.2946 -19.4306 -20.4448 -22.3323 -15.8827 -15.9829 -18.0006 -17.9746 -12.5684 -26.56212 -26.30172 -21.39012 -19.40572 -23.77002 -13.8168 -9.3915 -13.9377 -15.3588 -12.7336 
