-4.759 
n/a 
n/a 
n/a 
n/a 
-4.759 
n/a 
n/a 
n/a 
n/a 
-4.759 
n/a 
n/a 
n/a 
n/a 
-4.759 
n/a 
n/a 
n/a 
n/a 
-2.264 -10.5215 0 -5.574 -3.3035 -4.3215 -2.3335 -3.6605 -3.518 -3.432 -2.742 -2.489 -3.046 -2.0935 -4.711 -3.4945 -2.9995 -4.1755 0 
-9.959001 -8.653501 -5.574 -9.953501 -6.257 -5.1075 -6.243 -6.3815 -7.834 -6.6755 -3.301 -5.397 -5.2395 -5.9465 -8.1735 -4.9185 -6.206 -4.1755 
-9.062 -11.6835 -9.953501 -13.2308 -6.9195 -8.624001 -9.658001 -10.7595 -11.5171 -7.357 -6.146 -7.108 -8.044001 -8.955 -9.1735 -8.2885 -6.206 
-10.879 -15.6942 -13.2308 -13.8933 -10.8184 -12.0632 -14.1754 -14.4426 -12.1986 -10.1845 -7.5155 -9.387 -11.5335 -9.990001 -12.7471 -8.2885 
-15.7684 -18.9857 -13.8933 -17.7922 -14.2576 -16.5806 -17.8585 -15.1241 -15.0261 -11.6044 -9.9945 -13.1075 -12.5685 -13.6242 -12.7471 
-1.934 -4.1735 -3.158 -3.288 -3.06 -5.574 -3.188 -4.0005 -3.432 -3.013 -5.651501 -3.0465 -2.9995 -4.1755 -1.7695 -4.8965 0 
-5.409 -7.221 -5.948 -5.208 -9.241 -9.156501 -4.969501 -7.203 -6.9565 -8.529501 -6.711 -5.472 -6.206 -5.68 -7.23 -4.8965 
-9.498501 -11.1046 -8.5775 -12.3434 -13.0255 -9.652 -8.4455 -10.5745 -12.084 -11.0715 -9.532001 -9.793501 -7.8705 -11.8999 -7.23 
-13.4981 -13.7341 -15.9351 -16.1279 -13.521 -14.1832 -12.0312 -15.702 -14.119 -11.192 -14.0545 -11.458 -14.5778 -11.8999 
-16.1276 -21.0917 -19.7196 -16.6234 -18.0522 -17.7689 -17.1587 -17.737 -15.5713 -15.7312 -15.7174 -18.1653 -14.5778 
-1.934 -3.288 -3.06 0 -4.1735 0 -5.574 -4.3215 -2.3335 -3.6605 -3.5025 -2.186 -3.046 -2.0935 -4.0215 0 
-4.9715 -5.208 -3.06 -4.1735 -4.1735 -5.574 -9.118501 -5.1075 -6.243 -6.214001 -5.481 -4.844 -5.2395 -4.962501 -4.0215 
-7.8675 -5.208 -6.5055 -4.1735 -9.040501 -9.118501 -9.6155 -8.624001 -9.1505 -8.68 -7.6315 -6.151 -7.2605 -4.962501 
-7.8675 -8.118 -6.5055 -9.040501 -9.866 -9.6155 -13.5088 -11.5557 -11.8357 -11.0981 -9.2925 -8.012 -7.2605 
-11.2783 -8.118 -10.071 -9.866 -9.9525 -13.5088 -16.4405 -14.2409 -14.2538 -12.7591 -10.759 -8.012 
-1.934 -3.288 -7.2335 -1.4985 -5.574 -3.3035 -4.3215 0 -2.3335 -1.4985 -4.1865 -3.432 -2.186 -3.333 -1.7695 -2.5685 -3.4945 -4.3395 0 
-4.9715 -8.653501 -8.013 -6.988 -9.953501 -6.257 -4.3215 -2.3335 -3.3515 -5.649 -7.476501 -5.681 -4.2385 -4.3805 -4.2305 -6.1695 -6.9715 -4.3395 
-10.7775 -9.711 -13.8686 -11.9345 -13.2308 -6.257 -5.1075 -3.3515 -7.6915 -9.000501 -10.111 -8.2295 -5.2955 -5.76 -7.451001 -10.396 -6.9715 
-12.4008 -15.199 -19.0035 -15.2118 -13.2308 -6.9195 -5.888 -7.6915 -10.025 -10.4425 -13.0637 -9.1665 -6.4915 -8.024 -12.4863 -10.396 
-18.4817 -20.2679 -22.2808 -15.2118 -13.8933 -7.894 -9.844001 -10.025 -12.6326 -13.7818 -14.0007 -10.0855 -9.275001 -13.5415 -12.4863 
