-4.759 
n/a 
n/a 
n/a 
n/a 
-4.759 
n/a 
n/a 
n/a 
n/a 
-4.759 
n/a 
n/a 
n/a 
n/a 
-4.759 
n/a 
n/a 
n/a 
n/a 
-5.59 -3.147 -4.969 -3.511 -2.356 -3.1385 -3.8605 -2.4285 -4.0375 -3.6885 -8.624001 -4.938 -4.9225 0 
-8.672501 -8.9775 -9.300001 -5.258 -5.1485 -7.8675 -6.2385 -6.706 -8.376501 -13.5149 -14.0758 -7.2045 -4.9225 
-14.699 -13.5517 -11.3344 -7.949501 -10.523 -10.1725 -7.428 -11.5636 -18.8473 -18.9667 -16.3423 -7.2045 
-19.2732 -15.5861 -14.0259 -13.715 -12.828 -11.362 -12.442 -22.0344 -24.2991 -21.2332 -16.3423 
-21.3076 -18.2776 -19.7914 -16.02 -14.0175 -16.376 -22.9128 -27.4862 -26.5656 -21.2332 
-2.925 -3.9765 -2.3335 -3.8605 -1.7695 -4.0375 -3.6885 -4.4615 -4.938 -4.657 -3.0365 -3.034 -5.59 -5.7565 -1.7695 -3.511 -3.0365 0 
-5.610001 -4.531 -7.068001 -5.7415 -5.672 -8.376501 -7.4465 -9.3335 -10.9552 -6.221 -5.8415 -7.7675 -9.238501 -6.202 -4.633 -6.0405 -3.0365 
-6.3015 -9.384501 -8.817 -6.8385 -10.7516 -12.7789 -12.6423 -15.6685 -12.5192 -8.304501 -10.4765 -10.688 -9.4635 -9.64 -6.6105 -6.0405 
-11.2976 -11.3053 -9.111001 -12.0499 -15.154 -17.9747 -18.9773 -17.2325 -14.6027 -13.0419 -13.397 -10.913 -13.2435 -11.6897 -6.6105 
-13.2184 -11.5993 -14.4778 -16.4523 -20.3498 -24.3097 -20.5413 -19.316 -19.3401 -15.9624 -13.622 -14.693 -15.2932 -11.6897 
-3.034 -5.59 -5.0305 -3.147 -4.3435 -3.8605 -2.4285 -4.0375 -4.2915 -4.4615 -5.3595 -4.657 -3.147 -2.5045 -3.3715 -3.9765 0 
-7.7675 -8.415501 -7.276 -7.6165 -6.314 -6.2385 -6.706 -8.247001 -8.5875 -9.161501 -7.527501 -6.3745 -5.427 -4.771 -6.5085 -3.9765 
-9.373 -9.564501 -10.382 -9.8525 -9.840501 -7.428 -11.4341 -12.983 -13.4753 -11.5279 -9.469001 -8.4375 -8.0415 -7.88 -6.5085 
-10.6105 -12.7085 -12.618 -13.5078 -11.1142 -12.3125 -16.1701 -17.8708 -15.8417 -13.4694 -11.4868 -11.3906 -10.749 -7.88 
-13.7545 -14.9445 -16.2733 -14.7815 -15.9987 -17.0485 -21.0579 -20.2372 -17.7832 -15.4872 -14.4399 -14.0981 -10.749 
-3.034 -1.4985 -10.0455 -9.8575 -1.7695 -2.3615 -3.5015 -3.0365 -3.152 -3.135 -8.594001 -4.657 -3.0695 -2.7765 -4.3845 -4.3435 -3.8605 -2.4285 -4.0375 -4.2915 
-3.947 -10.7175 -20.2746 -10.5035 -3.736 -5.2225 -6.191 -4.453 -5.6895 -12.96 -13.5738 -7.9545 -4.7695 -6.0745 -8.844 -6.314 -6.2385 -6.706 -8.247001 
-13.4868 -20.9466 -20.9206 -12.9278 -6.493001 -7.7255 -7.6005 -5.8435 -15.9027 -17.9398 -16.8713 -9.9205 -7.1315 -10.089 -11.1575 -9.840501 -7.428 -11.4341 
-23.7159 -21.5926 -23.3449 -15.6848 -8.7775 -8.9685 -8.946501 -16.0725 -20.8825 -21.2373 -18.8373 -12.2825 -11.3678 -12.6011 -14.684 -11.1142 -12.3125 
-24.3619 -24.0169 -26.1019 -17.9693 -10.099 -10.468 -19.2687 -21.0523 -24.18 -23.2033 -21.1993 -16.5188 -13.8799 -16.1276 -15.9577 -15.9987 
