-4.759 
n/a 
n/a 
n/a 
n/a 
-4.759 
n/a 
n/a 
n/a 
n/a 
-4.759 
n/a 
n/a 
n/a 
n/a 
-4.759 
n/a 
n/a 
n/a 
n/a 
-2.664 -5.726 -3.2795 -2.8645 -3.1125 -6.667 -2.0935 -1.8085 -3.999 -4.532 -1.7695 -3.7085 -2.925 -1.4985 -3.7515 -4.4155 -4.764 0 
-10.733 -9.731001 -5.436 -3.5345 -8.220501 -8.0515 -3.385 -5.1165 -7.527 -6.587 -4.19 -4.8545 -4.202 -4.4675 -5.654 -8.943501 -4.764 
-14.738 -11.9753 -6.311501 -8.495 -9.163501 -9.073 -6.6375 -7.794 -9.1335 -8.7075 -5.207 -5.473 -7.7695 -5.7405 -9.098001 -8.943501 
-16.9823 -12.8508 -11.751 -9.438001 -10.443 -12.7643 -9.0445 -9.322001 -11.497 -10.3675 -6.732 -10.298 -8.9075 -9.134001 -9.098001 
-17.8578 -18.2903 -12.694 -10.599 -14.1343 -15.1713 -10.3225 -11.7357 -13.157 -11.8031 -10.5745 -11.7026 -12.451 -9.134001 
-3.818 -2.5685 -4.385 -3.013 -5.651501 -3.931 -2.3615 -4.053 -2.0935 -4.092 -1.7695 -3.4075 -3.1335 -1.7695 -3.2345 -1.8085 -4.7405 -3.515 -1.7695 -3.013 -5.651501 -4.302 -4.532 -2.0935 -2.3615 -3.1335 0 
-7.1635 -7.6465 -7.4325 -8.529501 -9.814001 -6.614 -5.5535 -4.977 -5.8335 -5.4515 -5.4725 -5.953 -4.809 -3.713 -4.108 -5.696 -8.1145 -5.2145 -3.7215 -8.529501 -7.6225 -9.025 -6.264 -3.854 -4.7915 -3.1335 
-12.4579 -11.0314 -12.9134 -13.083 -13.065 -10.575 -7.1825 -8.9345 -9.193001 -9.7325 -7.9 -8.159 -6.9965 -4.563 -9.3805 -8.521 -10.028 -7.248 -9.071501 -12.1065 -14.444 -11.1104 -7.751 -5.873 -4.7915 
-15.8428 -16.5123 -18.4703 -16.2019 -17.026 -12.204 -11.436 -12.4292 -13.6342 -13.611 -9.894 -10.361 -8.0435 -9.660501 -12.4179 -10.275 -12.0615 -13.8764 -11.86 -15.073 -16.6524 -12.5974 -10.3475 -5.873 
-21.3237 -22.0692 -21.3588 -20.1629 -18.655 -16.4575 -14.9307 -16.8704 -17.5127 -15.605 -12.096 -11.6992 -13.5908 -12.8429 -14.1719 -12.3085 -18.6899 -15.8259 -17.5224 -17.4538 -18.1394 -15.1939 -10.3475 
-1.7695 -4.8855 -1.4985 -3.7515 -4.4155 -4.045 0 -5.6255 -3.0695 -7.35 -4.302 -2.645 -4.532 -3.918 -1.934 -1.4985 -3.4075 -3.1335 
-5.254 -5.559501 -4.4675 -5.654 -8.327001 -4.045 -5.6255 -6.924 -9.2735 -9.956 -6.193 -7.139001 -10.5035 -6.013 -2.6125 -4.118 -5.953 
-5.786 -9.2495 -5.7405 -8.5135 -8.327001 -11.1165 -6.924 -13.6546 -11.9019 -11.8708 -10.533 -14.0429 -12.5985 -6.572001 -5.466001 -6.7565 
-9.417001 -10.4435 -8.56 -8.5135 -15.6839 -12.415 -13.6546 -16.283 -13.8167 -16.2108 -17.4369 -16.1379 -13.1575 -9.255501 -7.705501 
-10.734 -13.263 -8.56 -15.9134 -16.9824 -19.1456 -16.283 -18.1978 -18.1567 -23.1147 -19.5319 -16.6969 -15.841 -11.597 
-1.8085 -3.515 -1.7565 -5.726 -3.4945 -5.1325 -2.645 -4.532 -4.3285 -1.4985 -3.7515 -3.2275 
-4.817 -4.979 -6.949 -8.835501 -7.3525 -6.963 -7.139001 -9.536501 -5.5935 -4.4675 -7.4345 
-5.428 -8.8935 -9.9805 -12.8037 -9.92 -11.9096 -13.0759 -10.9655 -8.5135 -7.507501 
-9.3035 -12.0838 -13.9487 -15.3712 -15.0348 -17.8465 -14.5049 -13.8855 -11.9173 
-12.543 -16.052 -16.5162 -20.486 -20.9717 -19.2755 -17.4249 -17.2893 
