-4.759 
n/a 
n/a 
n/a 
n/a 
-4.759 
n/a 
n/a 
n/a 
n/a 
-4.759 
n/a 
n/a 
n/a 
n/a 
-4.759 
n/a 
n/a 
n/a 
n/a 
-2.5195 -5.6445 0 -3.691 -4.331 -3.4635 -4.58 -4.002 -3.402 -2.264 -4.0455 
-8.085 -5.6445 -3.691 -7.8765 -7.566501 -8.0535 -8.1085 -6.9215 -3.793 -5.9535 
-8.085 -9.742001 -7.8765 -11.2296 -12.7599 -11.8928 -11.326 -6.948 -6.52 
-12.5467 -14.0521 -11.2296 -16.423 -16.5992 -15.1103 -11.3525 -9.5465 
-16.8568 -17.4052 -16.423 -20.2623 -19.8167 -15.1368 -13.951 
-1.934 -4.889 -5.0285 0 -3.691 -4.7715 -2.674 -4.969 -4.385 0 
-6.253 -10.7665 -5.0285 -3.691 -8.908001 -6.910501 -8.0575 -8.978001 -4.385 
-12.5315 -10.7665 -9.925501 -8.908001 -11.1434 -12.878 -12.5439 -8.978001 
-12.5315 -15.6635 -15.2259 -11.1434 -17.1109 -17.3644 -12.5439 
-17.4285 -20.9639 -17.4613 -17.1109 -21.5973 -17.3644 
-1.934 -4.889 -2.229 -5.891 -3.402 -4.969 -2.8645 -3.1125 -3.9535 
-6.253 -6.119 -7.927001 -7.641 -8.787001 -7.6295 -3.5345 -6.375 
-8.012 -12.316 -9.918 -13.472 -11.5679 -8.130501 -6.69 
-14.3862 -14.307 -15.749 -16.2529 -12.0689 -11.517 
-16.3772 -20.138 -18.5299 -16.7539 -15.4554 
-2.3345 -5.6445 -3.691 -3.9535 -5.272 -4.3705 -4.969 0 
-8.8535 -9.742001 -8.131001 -8.362501 -9.657001 -9.606501 -4.969 
-13.0696 -14.3066 -12.7914 -12.7591 -14.9484 -9.606501 
-17.6342 -18.967 -17.188 -18.0505 -14.9484 
-22.2946 -23.3636 -22.4794 -18.0505 
