-4.759 
n/a 
n/a 
n/a 
n/a 
-4.759 
n/a 
n/a 
n/a 
n/a 
-4.759 
n/a 
n/a 
n/a 
n/a 
-4.759 
n/a 
n/a 
n/a 
n/a 
-2.925 -4.461 -2.3615 -5.2615 -2.264 -4.721 -3.6905 -3.0835 -3.193 
-9.3615 -6.716001 -7.259 -6.6315 -7.141001 -9.7605 -6.8195 -5.165 
-11.7833 -12.0457 -9.3875 -10.19 -12.7267 -12.8895 -7.928501 
-17.113 -14.1742 -13.048 -15.7757 -15.8557 -13.9985 
-19.2415 -17.8347 -18.6337 -18.9047 -16.9647 
-2.3615 -4.975 -2.742 -2.489 -3.716 -2.5045 -7.190001 0 
-8.205501 -8.0275 -3.301 -5.86 -6.451 -10.233 -7.190001 
-11.4274 -8.681001 -6.694 -7.9265 -14.9859 -10.233 
-12.0809 -12.251 -8.5915 -16.7446 -14.9859 
-15.6509 -14.1485 -17.4584 -16.7446 
-4.721 -3.0835 -3.193 -1.4985 -4.574 -2.742 -4.416 -2.985 -5.882 
-8.9385 -5.165 -4.9065 -5.636001 -7.184 -6.354 -6.670001 -9.887501 
-11.1486 -6.976501 -8.696 -7.802001 -10.2435 -8.0535 -14.2401 
-12.9601 -11.0854 -9.9645 -10.3885 -12.2268 -15.8092 
-17.069 -12.3539 -13.1282 -12.5634 -19.9825 
-2.925 -4.5295 -2.264 -1.4985 -3.0835 -3.193 -1.7565 -5.1845 -3.6905 -4.721 0 
-6.8765 -6.293 -2.9195 -3.535 -5.165 -4.5615 -6.580501 -8.646 -8.6245 -4.721 
-9.089001 -6.782 -5.1055 -5.390501 -5.4395 -10.041 -10.0605 -9.691501 -8.6245 
-9.425501 -8.524 -5.8815 -5.5835 -10.634 -10.3275 -10.8498 -9.691501 
-11.2335 -9.185 -6.038001 -10.6875 -10.779 -11.195 -10.8498 
