-4.759 
n/a 
n/a 
n/a 
n/a 
-4.759 
n/a 
n/a 
n/a 
n/a 
-4.759 
n/a 
n/a 
n/a 
n/a 
-4.759 
n/a 
n/a 
n/a 
n/a 
-3.331 -3.2955 -2.0935 -3.1725 -3.09 -1.934 -3.5965 
-6.2375 -4.307 -5.366 -5.835 -4.809 -5.215 
-7.2655 -7.893 -8.382501 -8.4945 -8.605 
-10.067 -9.681001 -10.2185 -12.5829 
-12.4318 -11.9972 -14.3069 
-1.4985 -4.3005 -5.974 -5.4575 -3.1725 -3.1335 0 
-5.5975 -8.2165 -12.1967 -9.7005 -5.944 -3.1335 
-9.612 -14.683 -16.4397 -12.6246 -5.944 
-16.1691 -18.926 -19.3638 -12.6246 
-20.4121 -21.8501 -19.3638 
-3.1725 -4.97 -5.827 -3.333 -1.934 -4.161 
-9.251501 -12.2146 -8.314 -4.374 -6.348 
-16.7169 -14.7016 -9.151501 -9.0965 
-19.2039 -15.5391 -14.5968 
-20.0414 -20.9844 
-3.1725 -5.827 -2.0935 -3.5965 
-9.294001 -7.267 -5.545 
-10.9188 -9.986 
-13.6378 
n/a 
