-4.759 
n/a 
n/a 
n/a 
n/a 
-4.759 
n/a 
n/a 
n/a 
n/a 
-4.759 
n/a 
n/a 
n/a 
n/a 
-4.759 
n/a 
n/a 
n/a 
n/a 
-4.87 -4.196 -5.231 -2.3345 -3.5035 -2.3345 -4.287 -1.4985 -4.868 -3.5035 -1.934 -4.767 -3.4625 
-9.953501 -8.7745 -6.285501 -4.959 -5.835 -5.6055 -5.0195 -5.6315 -5.93 -5.214 -7.1715 -9.7815 
-14.6488 -9.3765 -8.232 -7.209 -8.870001 -6.0415 -9.087501 -7.571001 -7.6535 -11.3643 -13.0682 
-15.2508 -11.402 -11.2316 -10.6465 -9.075001 -10.609 -11.4034 -9.235001 -14.1798 -17.261 
-17.2763 -14.4016 -14.6691 -10.8515 -13.9495 -12.9249 -13.0674 -15.8519 -20.0765 
-5.3885 -2.8645 -1.8085 -4.7 -4.113 0 -4.444 -1.8085 -4.7 -4.703 -1.756 -4.3895 -4.113 -1.4985 -3.2875 -4.706 -2.264 -1.4985 -4.7285 -5.936 -1.756 -2.186 -3.074 -2.264 -1.4985 -4.197 0 -2.9705 -5.093 -4.4915 -4.7705 -1.934 -4.767 -4.2485 0 
-8.1125 -3.9785 -6.017 -6.9525 -4.113 -4.444 -6.4705 -6.017 -7.936501 -5.9665 -5.6145 -7.1915 -6.285501 -4.127 -7.441501 -6.2345 -2.9195 -5.8505 -9.192 -6.953001 -3.986 -4.156 -5.174 -2.9195 -5.2175 -4.197 -2.9705 -6.354 -9.295 -8.077001 -5.441 -7.012 -7.424 -4.2485 
-9.090501 -7.8885 -7.578001 -6.9525 -8.821001 -6.4705 -9.9585 -8.796 -8.715 -6.643 -8.137501 -8.5895 -8.42 -7.6285 -8.267 -6.501 -7.293001 -9.4175 -10.0485 -8.674001 -5.87 -6.3985 -5.8365 -6.1495 -5.2175 -7.1375 -6.354 -10.2285 -10.7185 -8.410001 -8.9235 -9.278501 -7.424 
-10.382 -8.2085 -7.578001 -9.948501 -9.930501 -9.9585 -10.055 -9.277 -8.765 -9.0225 -9.314501 -10.304 -10.071 -8.444 -8.5205 -10.4855 -10.396 -10.072 -10.6405 -10.622 -7.9415 -6.6875 -9.168501 -6.1495 -7.7945 -10.586 -10.2285 -10.742 -10.744 -10.5135 -10.2385 -9.278501 
-10.4085 -8.2085 -10.1545 -10.086 -10.086 -10.055 -10.0605 -9.283001 -9.157001 -10.1225 -10.4685 -11.955 -11.2113 -8.670501 -12.8008 -10.59 -10.48 -10.6405 -10.761 -12.6935 -8.123 -10.051 -9.168501 -8.618501 -11.375 -14.4605 -10.742 -10.7685 -10.7855 -10.6635 -10.2385 
-1.4985 -4.767 -4.4485 -1.7565 -4.1865 -4.579 0 -1.4985 -4.4695 -4.944 -4.828 -3.685 0 -2.7415 -3.43 0 -2.9705 -5.231 -2.5685 -1.4985 -4.944 -3.772 -4.5925 0 
-5.783 -7.4995 -5.774 -5.463 -7.4635 -4.579 -1.4985 -5.252501 -9.97 -10.7495 -7.418 -3.685 -2.7415 -4.913 -3.43 -2.9705 -6.8575 -7.866001 -3.7015 -5.9685 -10.001 -9.085 -4.5925 
-7.5935 -9.5035 -10.0035 -8.778001 -7.4635 -6.0345 -5.252501 -10.2325 -15.7755 -13.3395 -7.418 -5.987 -4.913 -4.913 -6.6405 -6.8575 -9.338501 -8.932001 -8.7535 -11.6287 -15.314 -9.085 
-9.564 -14.4066 -10.738 -8.778001 -8.748501 -10.2085 -10.2325 -16.038 -18.3655 -13.3395 -9.646 -8.047001 -4.913 -7.807501 -10.4855 -9.338501 -10.2995 -14.0796 -14.6411 -16.9417 -15.314 
-14.6285 -15.1411 -10.738 -10.0925 -12.9821 -15.1885 -16.038 -18.628 -18.3655 -15.5675 -11.9558 -8.047001 -7.807501 -11.8525 -12.9665 -10.2995 -15.4471 -19.9672 -19.9541 -16.9417 
-1.4985 -4.767 -3.5035 -4.1425 -1.934 -3.8735 -4.513 -2.264 -4.748 -1.4985 -4.483 -3.9225 -1.4985 -3.1385 0 
-5.783 -9.881001 -7.011001 -6.577001 -4.885 -8.258 -4.752 -6.764 -5.4165 -5.624001 -6.861501 -4.463 -4.2575 -3.1385 
-10.586 -13.3885 -9.125 -10.4855 -9.027501 -8.839 -8.313 -7.499 -10.4105 -7.901501 -7.617001 -6.471 -4.2575 
-14.0935 -15.5025 -13.3267 -14.628 -9.14 -12.4614 -8.921 -12.6198 -12.688 -8.571 -9.427001 -6.471 
-16.2075 -19.7042 -17.4692 -14.7405 -12.791 -13.0694 -14.1764 -14.8973 -13.3575 -10.4265 -9.427001 
