-4.759 
n/a 
n/a 
n/a 
n/a 
-4.759 
n/a 
n/a 
n/a 
n/a 
-4.759 
n/a 
n/a 
n/a 
n/a 
-4.759 
n/a 
n/a 
n/a 
n/a 
-4.445 -2.742 -3.585 -3.135 -3.699 -4.6615 -2.264 -4.5925 -1.7565 -1.4985 -4.9295 -4.5175 0 
-7.028 -6.4125 -6.6695 -5.929501 -7.412 -6.960001 -4.7155 -4.707 -2.4195 -5.637 -10.4035 -4.5175 
-11.0985 -9.4165 -9.139 -9.421 -9.147 -8.339001 -4.7185 -5.097 -6.3715 -11.603 -10.4035 
-14.1025 -11.9704 -12.8549 -11.1658 -10.4265 -8.343 -5.107 -9.133 -12.6889 -11.603 
-16.6564 -15.6863 -14.5997 -12.4453 -10.4395 -8.582001 -9.1435 -15.6844 -12.6889 
-4.445 -3.8535 -3.135 -3.8125 -2.0935 -3.691 -2.229 -3.9725 0 
-9.304001 -6.095 -7.059 -5.1715 -5.940001 -5.0855 -6.082 -3.9725 
-11.9139 -9.6855 -8.694501 -9.0815 -6.645 -8.988501 -6.082 
-15.5044 -10.7515 -12.8977 -10.173 -11.1274 -8.988501 
-16.5704 -14.9547 -13.9892 -14.6554 -11.1274 
-2.5045 -3.691 -2.229 -4.969 -4.432 -4.328 -3.2345 -2.186 -3.699 -4.384 
-6.571501 -5.0855 -6.2895 -9.959001 -4.899 -7.739 -6.1665 -4.636 -7.6645 
-7.018001 -8.938001 -12.0703 -10.0175 -8.863501 -11.4636 -9.125 -10.688 
-10.6735 -15.3636 -12.1288 -13.982 -12.5915 -14.4221 -15.0706 
-18.2435 -15.4221 -16.0933 -17.71 -15.55 -20.3677 
-2.264 -4.5925 -1.7565 -3.691 -2.229 -5.4195 0 -1.4985 -4.445 -4.978 -3.135 -3.699 -5.805 -4.6865 0 
-4.7155 -4.707 -4.930501 -5.0855 -6.749 -5.4195 -1.4985 -5.0495 -9.6245 -7.2105 -5.929501 -9.554001 -10.01 -4.6865 
-4.7185 -7.529 -5.879001 -10.4675 -6.749 -7.0125 -5.0495 -10.176 -11.9794 -9.803 -12.3517 -13.7886 -10.01 
-7.5295 -8.4725 -11.7392 -10.4675 -8.364 -10.041 -10.176 -12.6133 -14.5719 -16.4304 -16.5863 -13.7886 
-8.472501 -14.8939 -11.7392 -13.2169 -11.4701 -15.6519 -12.6133 -15.2058 -21.1993 -20.665 -16.5863 
