-4.759 
n/a 
n/a 
n/a 
n/a 
-4.759 
n/a 
n/a 
n/a 
n/a 
-4.759 
n/a 
n/a 
n/a 
n/a 
-4.759 
n/a 
n/a 
n/a 
n/a 
-8.650001 -2.229 0 -3.098 0 -8.5955 -2.356 -3.6085 -4.426 -3.452 
-8.8155 -2.229 -3.098 -3.098 -8.5955 -9.4725 -5.975 -5.896501 -7.7045 
-8.507501 -4.8015 -3.098 -12.0869 -9.4725 -9.4855 -7.451 -9.421 
-11.1992 -4.8015 -12.0869 -12.9639 -9.4855 -9.494 -11.0961 
-11.1992 -14.519 -12.9639 -12.9769 -9.494 -15.5627 
-8.8655 -4.426 -1.756 -4.3955 -2.3345 -4.909 0 
-13.7357 -5.891 -6.0615 -6.9185 -6.584001 -4.909 
-15.2007 -8.868 -8.1485 -11.6458 -6.584001 
-18.1777 -10.6095 -13.1278 -11.6458 
-19.9192 -16.1364 -13.1278 
-4.426 -1.7565 -5.1845 -4.245 -1.756 -5.463 0 -2.3345 -8.027 
-5.47 -6.580501 -7.991 -5.425 -6.5295 -5.463 -2.3345 -9.959001 
-10.0035 -8.729001 -9.1745 -9.4385 -6.5295 -7.495501 -9.6715 
-12.2738 -9.751501 -13.2432 -9.4385 -8.161501 -14.3331 
-13.2963 -13.8202 -13.2432 -11.4035 -15.2249 
-4.909 -2.229 -5.4475 -1.756 -3.6085 -4.426 -1.7565 -8.5955 
-6.115001 -7.087 -7.0495 -5.505 -5.896501 -5.47 -10.1225 
-9.842001 -8.6765 -11.6293 -7.646 -6.574 -14.3394 
-11.6861 -13.2857 -13.7703 -8.2585 -15.8364 
-16.2953 -15.4267 -14.3828 -17.8745 
