-4.759 
n/a 
n/a 
n/a 
n/a 
-4.759 
n/a 
n/a 
n/a 
n/a 
-4.759 
n/a 
n/a 
n/a 
n/a 
-4.759 
n/a 
n/a 
n/a 
n/a 
-2.3615 -2.9645 -3.135 -3.9655 -7.0275 0 -4.7715 -3.1435 -4.567 -4.1975 0 -3.9555 -5.1785 -3.1335 -3.1435 -3.4865 
-6.1285 -5.672 -6.6975 -12.725 -7.0275 -4.7715 -7.457 -8.875 -7.120501 -4.1975 -3.9555 -8.962 -8.634001 -6.8735 -6.4945 
-9.109501 -9.734501 -15.8462 -12.725 -12.8016 -7.457 -13.8473 -11.5863 -7.120501 -9.0115 -8.962 -12.8441 -12.6992 -10.5975 
-13.2504 -18.968 -15.8462 -18.4991 -15.4871 -13.8473 -16.5586 -11.5863 -13.3713 -14.2228 -12.8441 -16.9093 -16.4232 
-22.4839 -18.968 -21.6203 -21.1846 -21.8774 -16.5586 -16.5586 -17.8371 -18.5826 -18.1049 -16.9093 -20.6333 
-2.4265 -3.7375 -3.9655 -3.8035 -2.872 -3.976 -3.307 -3.1335 -3.8755 0 
-7.383 -7.6575 -6.882 -5.901 -7.6055 -7.5475 -5.8455 -7.073501 -3.8755 
-11.5736 -10.115 -8.7725 -10.5225 -11.7652 -10.5616 -9.151001 -7.073501 
-14.0311 -12.0055 -13.452 -14.6822 -14.7793 -13.8671 -9.151001 
-15.9216 -16.685 -17.6117 -17.6963 -18.0848 -13.8671 
-2.3615 -3.737 -3.135 -4.5305 -3.97 -2.872 0 -3.737 -3.17 -1.7565 -1.4985 -5.246 -5.447 0 -3.976 -3.307 -4.3025 
-7.2145 -6.024 -7.41 -9.186001 -6.482 -2.872 -3.737 -7.234 -4.179 -2.4195 -6.5505 -11.8162 -5.447 -3.976 -7.5475 -8.329 
-9.5035 -10.2755 -12.2865 -12.099 -6.482 -6.6175 -7.234 -7.550001 -4.497 -7.434501 -13.2997 -11.8162 -11.0814 -7.5475 -13.0451 
-14.0018 -15.152 -15.1995 -12.099 -10.361 -9.289001 -7.550001 -7.982 -8.9495 -14.3639 -13.2997 -17.4506 -14.6529 -13.0451 
-18.8783 -18.065 -15.1995 -15.978 -13.0325 -9.311001 -7.982 -12.6167 -15.9481 -14.3639 -18.9341 -21.0221 -20.1505 
-2.4265 -3.135 -2.95 -4.0195 -3.135 -8.021501 -1.7565 -3.519 -2.872 -1.934 -3.17 -1.7565 -2.95 -2.4265 -4.3905 -1.4985 -5.246 -3.709 -1.756 -3.9555 -3.1335 0 
-5.7835 -4.868 -7.184 -6.264 -10.3895 -8.432501 -5.03 -6.1125 -4.659 -4.8605 -4.179 -4.3865 -4.895 -7.068 -5.618 -6.5505 -9.384501 -5.214 -5.41 -6.5865 -3.1335 
-7.071 -8.956 -9.578501 -14.0205 -10.746 -10.564 -7.185 -7.737 -6.6335 -5.8795 -7.3975 -6.1555 -9.3435 -7.544 -10.3345 -10.5325 -10.383 -8.4165 -7.552001 -6.5865 
-10.316 -10.2435 -17.5882 -14.377 -12.8775 -13.2372 -8.764001 -9.892 -7.8615 -9.399 -8.75 -11.0808 -9.77 -12.3791 -14.3165 -11.531 -13.5855 -10.228 -7.552001 
-11.7991 -18.9616 -17.9447 -16.5085 -15.5507 -14.8162 -11.0522 -10.9858 -11.6434 -9.973001 -13.8287 -11.5073 -14.6051 -16.3611 -15.315 -14.7335 -15.397 -10.228 
