-4.759 
n/a 
n/a 
n/a 
n/a 
-4.759 
n/a 
n/a 
n/a 
n/a 
-4.759 
n/a 
n/a 
n/a 
n/a 
-4.759 
n/a 
n/a 
n/a 
n/a 
-2.3615 -2.7415 -3.881 -2.3345 -8.214001 0 
-4.455 -5.344501 -4.5275 -9.958501 -8.214001 
-6.8905 -5.7685 -10.523 -9.958501 
-7.293 -12.3962 -10.523 
-14.4265 -12.3962 
-2.4265 -2.186 -3.881 -2.3345 -11.0235 
-3.292 -5.3 -4.5275 -13.6886 
-6.02 -6.2155 -16.6486 
-7.194 -19.0364 
-20.3199 
-3.1435 -3.6285 -2.186 -8.214001 
-6.409 -5.825 -11.6104 
-7.774 -15.5124 
-17.7216 
n/a 
-2.3615 -4.3625 -2.186 -8.214001 
-6.469 -6.3175 -11.6104 
-7.742 -16.1481 
-17.779 
n/a 
