-4.759 
n/a 
n/a 
n/a 
n/a 
-4.759 
n/a 
n/a 
n/a 
n/a 
-4.759 
n/a 
n/a 
n/a 
n/a 
-4.759 
n/a 
n/a 
n/a 
n/a 
-4.468 0 -10.8905 -7.7295 0 -4.0275 -3.9825 0 
-4.468 -10.8905 -11.046 -7.7295 -4.0275 -7.633 -3.9825 
-15.7261 -11.046 -11.046 -12.4146 -7.633 -7.633 
-15.8816 -11.046 -15.7311 -16.0201 -7.633 
-15.8816 -15.7311 -19.3366 -16.0201 
-4.468 -10.738 -10.9655 0 -4.0275 -4.1665 0 
-15.5736 -21.7035 -10.9655 -4.0275 -8.997 -4.1665 
-26.5391 -21.7035 -14.993 -8.997 -8.997 
-26.5391 -25.731 -19.9625 -8.997 
-30.5666 -30.7005 -19.9625 
-4.468 0 -9.678 -7.7295 0 -9.685 -7.66 0 
-4.468 -9.678 -9.764001 -7.7295 -9.685 -17.6086 -7.66 
-10.766 -9.764001 -9.764001 -18.0721 -17.6086 -17.6086 
-10.785 -9.764001 -20.2244 -25.9957 -17.6086 
-10.785 -20.2244 -28.148 -25.9957 
-4.468 0 -2.871 -3.6385 -3.5445 -3.1405 0 -4.0275 -3.6505 0 
-4.468 -2.871 -5.371 -7.4945 -6.536 -3.1405 -4.0275 -6.8435 -3.6505 
-7.732 -5.371 -9.6245 -9.5635 -6.536 -7.4675 -6.8435 -6.8435 
-9.660501 -9.6245 -11.8473 -9.5635 -10.4505 -10.8289 -6.8435 
-14.0972 -11.8473 -11.8473 -13.6792 -14.5557 -10.8289 
