-4.759 
n/a 
n/a 
n/a 
n/a 
-4.759 
n/a 
n/a 
n/a 
n/a 
-4.759 
n/a 
n/a 
n/a 
n/a 
-4.759 
n/a 
n/a 
n/a 
n/a 
-4.335 -1.756 -4.335 -1.7565 -4.2225 -2.4945 -3.8245 -1.934 -6.6585 0 -3.7375 -1.7565 -3.277 -3.152 -1.934 -6.899 -3.7745 -3.355 -1.7565 -1.4985 -3.59 
-6.353 -5.7845 -4.436 -5.459 -5.862 -5.751 -4.7245 -7.809 -6.6585 -3.7375 -5.127501 -4.25 -5.6945 -4.9115 -8.8275 -11.6839 -6.2975 -3.725 -2.4195 -4.268 
-6.7065 -5.8915 -7.449 -7.3465 -8.4545 -6.158 -9.972 -7.809 -11.1415 -5.127501 -6.142 -5.802001 -7.3065 -12.4026 -13.875 -14.2069 -6.3705 -4.0515 -5.009 
-6.7605 -8.969 -8.566 -10.1805 -9.208501 -11.8831 -9.972 -12.7492 -12.5315 -6.142 -7.669001 -7.3465 -14.8852 -17.4501 -16.398 -14.2799 -6.6225 -6.237 
-9.5165 -9.9895 -11.8086 -10.582 -14.815 -11.8831 -14.9122 -14.1392 -13.546 -7.669001 -9.262501 -14.9368 -19.9327 -19.9731 -16.471 -14.5319 -7.8815 
-4.335 -1.7565 -4.2225 -3.8245 -1.934 -4.628 -4.743 -1.756 -3.1435 -2.5685 -2.4945 -3.5205 
-4.436 -5.459 -7.170001 -4.7245 -5.9605 -4.7515 -6.5275 -4.1365 -5.808001 -5.3665 -7.6455 
-7.449 -8.2995 -7.4315 -8.502 -5.9845 -6.535501 -8.620501 -7.096 -9.992001 -10.287 
-10.0005 -8.571 -11.8946 -8.516001 -7.1675 -8.631001 -11.7986 -11.3074 -14.9125 
-10.0935 -13.3153 -11.9086 -9.5605 -9.1875 -11.8135 -16.01 -16.2279 
-4.335 -1.7565 -4.2225 -4.657 -1.934 -4.628 -6.739501 -1.756 -3.074 -2.186 -1.934 -1.4985 -4.622 -3.873 
-4.436 -5.459 -8.0375 -5.156 -5.9605 -10.6215 -8.054001 -4.566 -5.5015 -4.0835 -2.6125 -5.221 -8.696001 
-7.449 -9.306001 -8.559001 -8.999001 -12.9808 -11.936 -11.4962 -7.0105 -7.438 -4.6915 -6.228001 -9.177501 
-11.8136 -9.5555 -12.6974 -16.3443 -14.2953 -15.3782 -13.9407 -8.868501 -7.934 -8.269501 -9.958501 
-12.0631 -13.9181 -20.0427 -17.6588 -17.7375 -17.8227 -15.7987 -9.43 -11.7992 -12.198 
-3.0365 -2.186 -4.6945 -1.7565 -4.2225 -3.8245 -1.934 -4.628 -4.743 -2.9705 -3.7965 -3.849 -4.628 -4.743 -8.557 -4.2225 0 
-3.66 -8.394501 -6.384501 -5.459 -7.170001 -4.7245 -5.9605 -4.7515 -7.736 -5.034 -6.334001 -9.0015 -4.7515 -14.5428 -13.6743 -4.2225 
-9.129001 -9.5395 -9.759001 -8.2995 -7.4315 -8.502 -5.9845 -7.747 -10.007 -7.458 -11.7215 -10.0475 -14.6461 -19.6601 -13.6743 
-9.975 -13.0848 -12.5995 -8.571 -11.8946 -8.516001 -8.1415 -10.0215 -12.431 -13.0085 -12.7675 -20.0399 -19.7634 -19.6601 
-13.5705 -15.9253 -12.871 -13.3153 -11.9086 -10.8954 -10.354 -12.4455 -17.9815 -14.0545 -22.7599 -25.1572 -19.7634 
