-4.759 
n/a 
n/a 
n/a 
n/a 
-4.759 
n/a 
n/a 
n/a 
n/a 
-4.759 
n/a 
n/a 
n/a 
n/a 
-4.759 
n/a 
n/a 
n/a 
n/a 
-2.9805 -4.2765 -6.6575 -2.5045 -5.2795 
-5.915501 -10.204 -9.3035 -8.663 
-12.2988 -12.85 -15.6342 
-14.9448 -19.1807 
-21.2755 
-2.0935 -1.4985 -3.0835 -2.95 -9.299001 -4.2765 -9.8575 -1.934 -1.4985 -3.158 -5.2795 
-2.9725 -3.535 -4.3945 -13.1826 -14.0769 -14.9102 -12.1231 -2.6125 -4.178 -8.146001 
-4.594501 -4.569 -15.1451 -17.9605 -24.7106 -17.1758 -12.8016 -5.265 -8.3955 
-4.791 -15.4716 -19.923 -28.5942 -26.9762 -17.8543 -15.4541 -8.838 
-15.7598 -20.2495 -30.5567 -30.8598 -27.6547 -20.5068 -19.0271 
-6.920001 -4.2765 -6.6575 -2.0935 -1.4985 -3.0835 -2.95 -1.934 -5.2795 0 
-10.4945 -10.204 -9.497001 -2.9725 -3.535 -4.3945 -4.54 -6.5375 -5.2795 
-16.422 -13.0435 -10.22 -4.594501 -4.569 -5.361 -9.414001 -6.5375 
-19.2615 -13.7665 -10.574 -4.791 -5.404 -10.082 -9.414001 
-19.9845 -14.1205 -10.603 -5.4575 -10.081 -10.082 
-6.920001 -3.0835 -4.2765 -5.637 -5.608 -1.934 -1.4985 -3.158 -5.2795 
-10.0925 -6.228001 -9.824501 -7.4945 -7.6675 -2.6125 -4.178 -8.146001 
-13.237 -10.7025 -11.7794 -10.4035 -8.244 -5.265 -8.3955 
-17.7115 -12.6574 -14.6884 -10.98 -11.1757 -8.838 
-19.6664 -15.5664 -15.2649 -13.9117 -14.7487 
