-4.759 
n/a 
n/a 
n/a 
n/a 
-4.759 
n/a 
n/a 
n/a 
n/a 
-4.759 
n/a 
n/a 
n/a 
n/a 
-4.759 
n/a 
n/a 
n/a 
n/a 
-3.188 -3.189 -4.454 -4.5715 -2.3335 -2.7295 -3.331 -1.7695 -3.7085 -3.8515 -2.5195 -1.4985 -6.0475 -3.6765 -2.4285 -3.851 -1.7695 -5.904 -4.2895 -2.7835 -2.7295 -3.465 -1.7695 -3.3165 -3.9615 -1.7695 -3.277 -3.331 -1.7695 -3.9785 -1.4985 -4.8905 -2.356 -4.75 -1.756 -2.7295 -3.2645 -3.7085 -2.8705 -3.8245 -5.408 -4.136 -2.3615 -2.742 -3.0785 -2.791 -1.7695 -3.935 -5.1285 -1.7565 -4.05 
-5.4315 -7.507 -9.1315 -5.932 -4.056 -4.4705 -3.669 -4.19 -6.4495 -4.4615 -3.1695 -6.975 -8.4615 -5.063 -6.278501 -4.0015 -7.733001 -8.3535 -6.672501 -4.405 -4.7235 -3.665 -4.0585 -6.7965 -5.845 -4.619 -7.021 -3.669 -4.9005 -5.076 -5.686501 -6.7065 -7.314501 -6.2025 -4.083 -4.7435 -5.87 -5.7185 -6.5645 -8.8655 -8.4595 -6.693501 -4.486 -4.6085 -4.7485 -4.3355 -4.6555 -8.991 -6.049001 -5.521 
-11.3057 -12.5241 -10.8196 -7.753 -5.71 -4.7675 -5.7915 -7.039001 -6.592 -4.964 -8.2805 -9.0015 -9.9755 -9.17 -6.3915 -7.977 -9.146001 -10.419 -8.191501 -5.969501 -4.9515 -5.3725 -7.437 -8.425501 -7.979 -8.621 -7.3225 -6.9095 -5.4755 -8.5485 -7.33 -12.2784 -8.368001 -9.003 -6.1455 -6.88 -7.928 -9.5185 -10.2585 -11.984 -10.757 -8.478001 -5.8075 -5.8235 -5.828 -6.9925 -9.1365 -9.6285 -10.142 
-16.3228 -14.2122 -12.6406 -9.761001 -5.9185 -6.6015 -8.660501 -7.225 -7.522501 -9.595 -10.7575 -10.622 -14.0825 -9.191501 -9.889001 -9.159 -11.3149 -11.9976 -9.7565 -6.12 -6.785 -8.3975 -9.370001 -10.238 -12.169 -8.932501 -11.0432 -7.6675 -8.958 -10.4035 -13.0883 -13.3319 -11.4013 -11.0329 -8.281 -8.043501 -12.0694 -13.3551 -13.377 -14.2815 -12.5415 -9.605 -6.8565 -6.542 -8.551001 -11.8227 -9.777501 -13.8695 
-18.0109 -16.0332 -14.6486 -9.944501 -7.722 -9.79 -8.7145 -7.9185 -12.3203 -12.5208 -12.378 -14.729 -14.104 -13.2738 -11.4274 -11.3313 -12.8935 -13.5626 -9.8655 -7.932001 -9.9968 -10.4479 -11.3901 -14.428 -12.4805 -12.7452 -11.8012 -11.241 -10.842 -16.4486 -14.1418 -16.3652 -13.4312 -13.1684 -9.328501 -12.2825 -15.906 -16.4736 -15.6745 -16.066 -13.6685 -10.8326 -7.3585 -9.707001 -13.781 -12.4637 -14.0517 
-2.7295 -2.674 -3.7085 -4.201 -2.5195 -1.4985 -4.4465 -4.269 -1.756 -4.2765 -3.681 -3.2955 -2.3345 -3.277 
-3.8 -7.425 -8.1695 -5.3735 -3.1695 -5.542001 -6.920501 -5.696 -5.5665 -7.654 -7.283 -4.534 -5.5635 
-8.757501 -12.1636 -8.624001 -5.766 -7.1565 -7.824501 -8.0465 -9.793501 -8.4735 -12.0904 -8.713 -7.321 
-13.5761 -12.6181 -9.4645 -9.726501 -9.703 -8.908501 -12.4066 -12.7623 -13.4363 -13.5204 -11.6616 
-14.0306 -13.4586 -13.425 -12.3462 -10.762 -13.3332 -15.3754 -17.7251 -14.8663 -16.469 
-3.188 -3.189 -3.9235 -3.264 -1.4985 -4.029 -1.7695 -4.301 -1.4985 -5.0185 -4.599 -4.63 -4.2765 -3.0105 -2.356 -1.4985 -4.9695 -3.1385 -2.4285 -3.757 -3.9785 -2.5235 -4.5995 -1.756 -4.8905 -1.756 -3.7085 -1.4985 -5.408 -4.136 -3.1495 -2.742 -4.2065 -1.4985 -5.1265 -1.7565 -1.4985 -4.63 0 
-5.4315 -5.56 -6.943001 -4.4645 -5.353001 -4.395 -4.541 -5.191 -6.1765 -5.1395 -7.527 -8.226 -6.551001 -4.921 -3.1615 -6.297501 -6.949 -5.514 -6.8935 -7.584001 -5.713 -5.743501 -5.6715 -6.526 -5.775 -4.9635 -4.704 -6.39 -8.4595 -7.4715 -5.6625 -5.714 -4.732 -6.580501 -6.5775 -2.4195 -5.982 -4.63 
-5.6215 -7.884501 -7.984001 -9.143001 -6.599501 -6.455 -5.4225 -8.877 -6.268001 -7.9725 -11.526 -9.08 -6.6125 -5.4835 -7.880501 -8.495501 -8.638 -10.322 -10.4945 -8.587 -7.423 -6.692 -7.095 -7.699 -9.1875 -5.9555 -9.124001 -9.3335 -12.0218 -10.259 -8.5985 -6.095 -9.130501 -6.9185 -7.186 -6.755501 -5.982 
-7.908 -9.064 -12.7933 -10.354 -8.492001 -7.815001 -9.151 -8.898001 -9.413001 -12.2129 -12.38 -9.0835 -7.568 -8.243501 -10.0535 -10.3291 -13.9808 -13.923 -11.4975 -9.271501 -7.726 -7.6035 -8.258 -10.7495 -10.1225 -10.3475 -9.6835 -12.9302 -14.8093 -13.195 -8.904 -10.476 -9.2735 -7.520501 -9.095 -6.755501 
-9.093 -14.0163 -14.0043 -12.2465 -9.675 -10.718 -9.173 -12.3192 -13.6976 -13.0669 -12.3835 -10.9262 -10.328 -10.304 -12.0623 -15.6719 -17.5818 -14.926 -12.182 -9.650001 -7.755 -9.176001 -11.4895 -11.6845 -14.5145 -10.699 -13.2982 -15.7177 -17.7453 -13.5005 -13.3718 -10.619 -9.7585 -9.443501 -9.095 
-5.5745 -2.5195 -4.05 -4.4465 -3.6765 -2.4285 -5.311 -4.031 -3.9615 -3.3165 -2.3345 -4.4225 -1.4985 -4.75 -1.756 -3.321 -3.7085 -1.4985 -3.8245 -3.5015 -3.383 -5.2535 -2.186 -4.4895 -4.301 -2.5195 -4.05 -4.295 -4.3215 -2.3345 -3.188 -4.5735 -3.9555 0 
-5.7015 -6.74 -8.092001 -6.9665 -5.063 -7.8945 -9.351 -9.217501 -6.0455 -5.6895 -7.705 -5.8545 -5.841001 -6.2025 -4.0055 -6.602 -4.704 -5.1915 -7.5075 -7.014501 -6.839 -7.694 -6.0585 -9.978001 -7.0895 -6.74 -10.096 -9.279501 -5.912001 -5.9645 -8.135 -7.7995 -3.9555 
-11.0968 -10.1345 -10.7856 -8.361501 -12.0004 -12.1143 -14.6623 -11.4745 -10.9537 -11.6368 -9.527 -7.9615 -7.127 -8.146 -7.1475 -7.6305 -8.726001 -8.508 -10.418 -9.831501 -9.6645 -12.1711 -12.7704 -13.1745 -10.204 -13.3182 -15.0805 -10.1235 -9.7775 -11.9879 -11.624 -7.7995 
-14.4913 -13.0271 -12.1806 -15.6999 -16.2202 -17.4256 -16.9193 -16.3827 -16.901 -13.4588 -11.7046 -9.172 -8.921 -11.3876 -8.2255 -11.8197 -12.3147 -12.0977 -13.235 -12.8826 -14.2684 -18.883 -15.9669 -16.289 -17.0414 -18.3027 -15.9245 -14.2122 -15.9159 -15.4769 -11.624 
-17.3839 -14.4221 -19.519 -19.9197 -21.5315 -19.6826 -21.8275 -22.33 -18.723 -15.6364 -12.9151 -11.0488 -12.2316 -12.4656 -12.4731 -15.4084 -15.9044 -14.9147 -16.2861 -17.4865 -20.9803 -22.0795 -19.0814 -23.1264 -22.0259 -19.1467 -20.0132 -20.3506 -19.4049 -15.4769 
