-4.759 
n/a 
n/a 
n/a 
n/a 
-4.759 
n/a 
n/a 
n/a 
n/a 
-4.759 
n/a 
n/a 
n/a 
n/a 
-4.759 
n/a 
n/a 
n/a 
n/a 
-2.872 -3.17 -1.7565 -2.915 -2.4945 -4.5165 -1.934 -1.4985 -3.098 -1.7565 -8.889501 -4.1885 -2.3345 -5.1055 -4.9165 -4.5615 0 -12.16972 0 0 
-5.3695 -4.179 -4.387 -5.622 -5.9455 -5.595 -2.6125 -4.3095 -4.3615 -10.802 -13.4106 -7.627501 -8.257501 -9.495001 -9.327 -4.5615 -12.16972 -12.16972 0 
-5.822001 -8.5495 -6.718 -8.0745 -6.896 -6.045 -5.285501 -4.5915 -14.0554 -15.3231 -16.8496 -13.9211 -12.927 -14.0717 -9.327 -17.62822 -12.16972 -12.16972 
-10.8615 -11.2083 -8.778001 -9.453501 -7.502 -8.971 -5.3625 -14.5482 -18.5765 -18.7621 -23.1432 -18.5906 -17.5037 -14.0717 -22.49232 -17.62822 -12.16972 
-13.5203 -13.2683 -10.064 -10.1735 -10.4425 -8.986 -15.4868 -19.0693 -22.0155 -25.0557 -27.8127 -23.1673 -17.5037 -27.23702 -22.49232 -17.62822 
-3.5725 -3.17 -1.7565 -1.4985 -10.011 0 -4.5145 -1.7565 -8.621 0 -2.186 -1.934 -1.4985 -3.098 -1.7565 -10.22 -9.123501 -1.756 -3.1435 -5.002 -2.4945 -3.074 -3.43 -1.934 -3.091 -3.098 
-6.988 -4.179 -2.4195 -12.6033 -10.011 -4.5145 -5.939 -9.588 -8.621 -2.186 -4.0835 -2.6125 -4.3095 -4.3615 -12.9257 -19.4681 -10.3545 -4.1365 -8.185 -6.568 -4.4205 -5.633 -4.639 -4.2105 -5.256001 
-7.739 -4.497 -13.7151 -12.6033 -14.5599 -5.939 -14.7019 -9.588 -10.5645 -4.0835 -4.6915 -5.285501 -4.5915 -16.1791 -22.1738 -20.6991 -12.735 -9.307 -9.3215 -8.384001 -6.960501 -7.281 -6.9965 -6.5125 
-8.0425 -16.3286 -13.7151 -17.1522 -15.9844 -14.7019 -14.7019 -11.5913 -12.462 -4.6915 -7.4025 -5.3625 -16.6719 -25.4272 -23.4048 -23.0796 -17.9055 -10.1515 -11.2105 -10.674 -8.019501 -9.79 -8.392 
-19.9773 -16.3286 -18.264 -18.5767 -24.7473 -14.7019 -16.7052 -13.4888 -13.07 -7.4025 -7.556 -17.6105 -25.92 -26.6582 -25.7853 -28.2501 -18.75 -12.0405 -13.5005 -11.733 -10.5975 -11.1949 
-2.872 -3.17 -1.7565 -1.4985 -5.387 -2.4945 -1.934 -1.4985 -3.098 -10.22 -4.1885 -1.756 -2.4945 -3.322 -1.934 -3.091 -3.098 -3.098 0 
-5.3695 -4.179 -2.4195 -6.705501 -7.048 -4.2645 -2.6125 -4.3095 -13.7114 -14.5331 -6.85 -4.2725 -6.035 -5.327001 -4.2105 -5.256001 -6.094501 -3.098 
-5.822001 -4.497 -7.312001 -7.7935 -8.582001 -4.935 -5.285501 -15.4831 -18.0245 -17.1946 -9.695001 -7.923 -7.3455 -7.1715 -6.5125 -8.047501 -6.094501 
-6.26 -8.820001 -8.041501 -9.409 -9.1635 -8.144501 -17.4039 -19.7962 -20.686 -20.0396 -13.5707 -9.316 -9.5368 -9.865001 -8.752501 -8.047501 
-10.6085 -9.515 -9.8605 -10.16 -12.5492 -20.4059 -21.717 -22.4577 -23.531 -23.9153 -14.9637 -11.6319 -12.2303 -12.1736 -8.752501 
-6.4925 -4.5145 -4.31 -2.5045 -1.4985 -3.518 -1.7565 -6.56 -4.3895 -2.3345 -8.889501 -5.032 -1.756 -2.4265 -2.186 -3.074 -3.333 -1.934 -1.4985 -3.098 -1.7565 -8.889501 -5.032 0 
-9.9305 -8.2405 -6.897 -3.1915 -4.77 -4.302 -7.9045 -10.389 -4.6785 -11.5546 -14.2541 -6.2925 -3.949 -3.292 -4.156 -4.8285 -4.374 -2.6125 -4.3095 -4.3615 -10.802 -14.2541 -5.032 
-13.7227 -10.354 -7.579 -5.819 -4.885 -11.2148 -12.0179 -10.678 -14.6622 -16.9192 -15.5146 -8.665 -4.7355 -4.91 -5.434 -5.5465 -5.0355 -5.285501 -4.5915 -14.0554 -16.1666 -14.2541 
-15.8362 -11.2338 -10.4035 -5.8985 -11.8474 -15.3282 -12.3069 -20.6617 -20.0268 -18.1797 -17.8871 -9.3695 -6.5235 -6.814 -6.155 -6.435 -8.991 -5.3625 -14.5482 -19.42 -16.1666 
-16.716 -14.0583 -10.622 -13.1983 -15.9608 -15.6172 -22.2906 -26.0263 -21.2873 -20.5522 -18.5916 -11.2345 -8.258 -7.3885 -6.601 -10.7575 -9.399 -15.4868 -19.9128 -19.42 
