-4.759 
n/a 
n/a 
n/a 
n/a 
-4.759 
n/a 
n/a 
n/a 
n/a 
-4.759 
n/a 
n/a 
n/a 
n/a 
-4.759 
n/a 
n/a 
n/a 
n/a 
-5.7465 0 -4.235 -6.356 -3.989 -3.774 
-5.7465 -4.235 -11.5916 -11.1274 -7.793 
-10.061 -11.5916 -16.363 -14.9314 
-17.7352 -16.363 -20.167 
-22.5066 -20.167 
-9.6955 0 -8.817 -1.7565 -4.235 -6.356 
-9.6955 -8.817 -10.411 -6.326001 -11.5916 
-18.9565 -10.411 -14.9805 -13.9182 
-20.5505 -14.9805 -22.5727 
-25.12 -22.5727 
-5.7465 0 -4.235 -6.356 -3.989 
-5.7465 -4.235 -11.5916 -11.1274 
-10.061 -11.5916 -16.363 
-17.7352 -16.363 
-22.5066 
-5.7465 0 -4.235 -6.356 -5.464 0 
-5.7465 -4.235 -11.5916 -12.6024 -5.464 
-10.061 -11.5916 -17.838 -12.6024 
-17.7352 -17.838 -17.838 
-23.9816 -17.838 
