-4.759 
n/a 
n/a 
n/a 
n/a 
-4.759 
n/a 
n/a 
n/a 
n/a 
-4.759 
n/a 
n/a 
n/a 
n/a 
-4.759 
n/a 
n/a 
n/a 
n/a 
-16.485 -3.922 -6.8785 -3.729 
-18.8163 -11.6753 -10.0925 
-27.2856 -14.8893 
-30.4996 
n/a 
-6.1515 -3.729 0 -5.3885 -3.922 
-9.080501 -3.729 -5.3885 -8.2815 
-9.080501 -9.201 -8.2815 
-9.6575 -9.8725 
-9.8925 
-8.8405 -5.2125 -5.3885 -3.922 -6.1515 -3.729 0 
-13.226 -11.1552 -8.2815 -10.3225 -9.080501 -3.729 
-19.8443 -14.0482 -15.1004 -13.2515 -9.080501 
-22.7373 -20.8671 -18.0294 -13.2515 
-29.5562 -23.7961 -18.0294 
-12.16972 -3.922 -4.966 -3.729 
-16.09172 -9.972501 -9.609 
-22.14222 -14.9013 
-27.07102 
n/a 
