-4.759 
n/a 
n/a 
n/a 
n/a 
-4.759 
n/a 
n/a 
n/a 
n/a 
-4.759 
n/a 
n/a 
n/a 
n/a 
-4.759 
n/a 
n/a 
n/a 
n/a 
-10.5585 0 -12.16972 0 -5.92 -8.530001 0 -6.7825 -7.226 0 0 
-11.0145 -12.16972 -12.16972 -5.92 -15.092 -8.530001 -6.7825 -10.147 -7.226 0 
-23.68582 -12.16972 -18.08972 -15.092 -15.092 -15.5729 -10.147 -10.147 -7.226 
-23.68582 -18.08972 -27.26172 -15.092 -22.1349 -18.9374 -10.147 -10.147 
-29.60582 -27.26172 -27.26172 -22.1349 -25.4994 -18.9374 -10.147 
-10.5585 0 -6.5875 0 -5.92 -8.530001 0 -6.7825 -5.8395 0 
-11.0145 -6.5875 -6.5875 -5.92 -15.092 -8.530001 -6.7825 -14.1436 -5.8395 
-13.33 -6.5875 -13.4371 -15.092 -15.092 -15.5729 -14.1436 -14.1436 
-13.33 -13.4371 -22.6091 -15.092 -22.1349 -22.934 -14.1436 
-20.1796 -22.6091 -22.6091 -22.1349 -29.496 -22.934 
-2.1715 -8.387 0 -6.5875 0 0 -3.905 -5.9185 0 -6.7825 -7.226 0 
-11.0145 -8.387 -6.5875 -6.5875 0 -3.905 -10.4945 -5.9185 -6.7825 -10.147 -7.226 
-11.0145 -10.7025 -6.5875 -6.5875 -3.905 -10.4945 -10.4945 -13.5398 -10.147 -10.147 
-13.33 -10.7025 -6.5875 -10.7335 -10.4945 -10.4945 -18.1158 -16.9043 -10.147 
-13.33 -10.7025 -10.7335 -17.323 -10.4945 -18.1158 -21.4803 -16.9043 
-2.1715 -12.16972 0 -6.5875 0 0 -5.92 -8.530001 0 -6.7825 -6.249 0 0 
-14.58482 -12.16972 -6.5875 -6.5875 0 -5.92 -15.092 -8.530001 -6.7825 -14.5531 -6.249 0 
-14.58482 -18.75722 -6.5875 -6.5875 -5.92 -15.092 -15.092 -15.5729 -14.5531 -14.5531 -6.249 
-21.17232 -18.75722 -6.5875 -13.4371 -15.092 -15.092 -22.1349 -23.3435 -14.5531 -14.5531 
-21.17232 -18.75722 -13.4371 -22.6091 -15.092 -22.1349 -29.9055 -23.3435 -14.5531 
