-4.759 
n/a 
n/a 
n/a 
n/a 
-4.759 
n/a 
n/a 
n/a 
n/a 
-4.759 
n/a 
n/a 
n/a 
n/a 
-4.759 
n/a 
n/a 
n/a 
n/a 
-5.202 -2.9705 -4.4825 -3.2615 -5.075 -1.756 -3.8565 -4.712 -3.251 -4.164 -1.4985 -4.1865 -3.9675 -1.7695 -4.02 -3.9675 -1.934 -5.091 -3.518 0 
-7.7505 -6.665 -6.544 -8.9575 -6.264501 -4.9165 -6.9565 -7.8365 -6.1225 -5.1675 -5.177 -6.6535 -6.1355 -6.079 -6.4735 -5.608 -7.823 -8.882 -3.518 
-11.6364 -8.5465 -12.6898 -10.598 -9.923 -7.7685 -10.459 -10.5135 -7.1305 -9.286 -7.8455 -8.4725 -9.377501 -7.97 -7.9695 -12.1528 -11.8964 -8.882 
-13.5179 -14.7703 -14.3303 -14.2565 -12.9188 -11.4016 -13.136 -11.5215 -11.2882 -12.1911 -9.639001 -11.9951 -10.5645 -9.389501 -14.8329 -16.2262 -11.8964 
-19.7417 -16.4108 -17.9888 -17.2523 -16.5519 -14.0786 -14.144 -15.6792 -14.1933 -13.9846 -13.2094 -13.1821 -11.984 -16.2821 -18.9063 -16.2262 
-3.2615 -1.4985 -4.1855 -3.3715 -4.1865 -3.9675 -4.4465 -2.3345 -1.4985 -4.8135 -1.7565 -4.051 -3.9675 0 
-4.032 -5.8465 -7.9075 -7.212501 -6.6535 -8.778 -4.897501 -3.233 -5.4845 -6.0305 -5.091 -7.321 -3.9675 
-7.969501 -10.4413 -11.8799 -10.2053 -12.0016 -9.4995 -5.402 -7.313001 -6.236001 -8.647 -8.5705 -7.321 
-12.7365 -14.4137 -14.8727 -15.5534 -12.7231 -9.882 -9.9615 -7.855 -8.825001 -12.6621 -8.5705 
-16.7089 -17.4065 -20.2208 -16.2749 -13.1056 -14.6377 -10.127 -10.5125 -12.8251 -12.6621 
-4.1855 -5.202 -1.756 -3.8565 -3.8355 -2.8645 -3.43 -3.6615 -1.934 -4.1865 -3.9675 -2.4265 -2.8645 -4.548 -1.7695 -4.051 -3.9675 
-9.672001 -6.041 -4.9165 -7.1945 -6.5495 -4.9155 -6.0395 -4.437 -5.967 -6.6535 -6.363501 -4.1435 -5.9415 -6.2275 -5.7285 -7.321 
-10.437 -7.985 -8.6835 -10.4855 -8.611501 -7.660501 -7.4655 -8.5905 -7.993 -8.8145 -7.7805 -7.433001 -8.108 -10.4675 -9.1315 
-12.381 -12.505 -12.2213 -12.5475 -11.5235 -8.513 -12.1206 -10.66 -9.6495 -10.054 -11.2228 -8.896501 -12.4554 -13.8705 
-16.901 -16.0428 -14.2833 -15.4595 -12.376 -13.3893 -14.1901 -12.3165 -11.0078 -13.4889 -12.6863 -13.5233 -15.8584 
-3.2615 -4.1855 -2.229 -3.046 -3.8355 0 -3.8565 -5.8905 -4.4565 -1.7695 -1.4985 -4.1865 -3.9675 -4.066 -3.325 -1.4985 -4.02 -3.9675 
-7.224 -5.8465 -4.838 -5.4575 -3.8355 -3.8565 -7.255 -8.725 -4.9325 -2.7955 -5.177 -6.6535 -7.905001 -6.5505 -3.898 -4.969501 -6.4735 
-9.167 -9.6785 -7.42 -5.4575 -7.1925 -7.255 -10.0645 -8.752501 -5.777 -6.5165 -7.8455 -10.0185 -10.0505 -7.037 -7.649 -7.7735 
-13.1722 -12.5169 -7.42 -8.634001 -10.061 -10.0645 -10.117 -10.089 -9.9455 -9.038 -11.4385 -12.3222 -10.679 -10.3035 -10.9822 
-16.0106 -12.5169 -11.2159 -11.7999 -13.0313 -10.117 -11.6587 -14.2575 -12.5772 -12.728 -13.7422 -12.9507 -13.9455 -13.6367 
