-4.759 
n/a 
n/a 
n/a 
n/a 
-4.759 
n/a 
n/a 
n/a 
n/a 
-4.759 
n/a 
n/a 
n/a 
n/a 
-4.759 
n/a 
n/a 
n/a 
n/a 
-4.06 -1.934 -5.3885 0 -1.4985 -4.1865 -3.9245 -1.7565 -3.433 -1.756 -4.649 -3.35 -2.3335 -2.186 -4.99 -3.401 -4.809 0 -2.4945 -3.2495 -1.7565 -1.4985 -3.17 -4.4695 -4.328 -1.934 -3.8735 0 
-4.483 -6.4035 -5.3885 -1.4985 -5.177 -6.231 -4.439 -4.7085 -4.713 -6.2135 -7.187 -6.429 -3.7085 -5.502 -7.0175 -7.517 -4.809 -2.4945 -4.891 -4.822 -2.4195 -3.7115 -5.473001 -8.6395 -5.629 -4.885 -3.8735 
-8.426001 -6.4035 -7.4065 -5.177 -7.013 -6.241 -5.144 -5.8785 -10.2755 -9.1835 -10.575 -7.474501 -7.463 -7.5275 -9.171 -7.517 -7.852 -4.891 -6.2745 -5.203 -4.4355 -5.7745 -9.325001 -9.909 -7.7295 -4.885 
-8.426001 -8.0435 -9.255501 -7.013 -7.022 -6.593 -6.626 -10.564 -13.2455 -12.6675 -11.6205 -10.45 -9.4095 -9.5425 -9.171 -10.897 -9.8655 -6.2745 -6.458 -6.2355 -6.2345 -9.732 -10.224 -12.0761 -7.7295 
-10.001 -10.167 -10.139 -7.022 -7.3795 -8.481 -11.9315 -13.534 -16.7295 -13.713 -14.596 -12.4945 -11.3935 -9.5425 -12.698 -12.9105 -10.737 -6.458 -7.035 -7.8945 -9.85 -10.2455 -12.4963 -12.0761 
-4.426 -1.7565 -1.4985 -3.0835 -4.7285 -4.1555 -3.147 -1.4985 -5.3885 -4.1865 -3.9245 -1.7565 -3.433 -1.756 -4.649 -3.35 -2.9705 -2.4945 -1.4985 -3.2825 -3.433 -1.7565 -3.9245 -1.934 -3.8735 0 
-5.47 -2.4195 -3.535 -6.042 -8.4455 -5.77 -4.88 -7.283501 -8.376 -6.231 -4.439 -4.7085 -4.713 -6.2135 -7.187 -6.5695 -4.302 -3.9315 -3.712 -6.712 -5.7975 -6.826001 -5.8165 -4.885 -3.8735 
-5.9535 -4.6785 -6.335501 -9.523001 -9.541501 -7.053 -10.564 -10.7565 -9.4055 -6.241 -5.144 -5.8785 -10.2755 -9.1835 -10.209 -8.3605 -5.821 -5.42 -6.862 -8.7535 -10.4505 -9.145 -8.070001 -4.885 
-8.021 -7.476501 -10.0095 -10.7035 -10.8245 -13.4078 -14.037 -11.786 -9.414001 -6.593 -6.626 -10.564 -13.2455 -12.3015 -12.1362 -9.745001 -7.1685 -8.9455 -8.893001 -13.9269 -12.7695 -11.5985 -8.070001 
-9.983001 -11.3061 -11.3 -11.9865 -17.1793 -16.8808 -15.0665 -11.7945 -9.601501 -8.481 -11.9315 -13.534 -16.3635 -14.2287 -13.5207 -10.3635 -10.9926 -11.5465 -14.0448 -16.2459 -15.223 -11.5985 
-4.1865 -3.9245 -1.7565 -3.433 -1.756 -4.649 -3.35 -1.7565 -5.3885 -2.186 -7.371 -3.8435 -3.9245 -3.333 -1.934 -3.8735 
-6.231 -4.439 -4.7085 -4.713 -6.2135 -7.187 -3.7865 -7.235001 -7.7415 -9.3785 -11.042 -6.1575 -7.7425 -4.374 -4.885 
-6.241 -5.144 -5.8785 -10.2755 -9.1835 -8.7545 -9.641001 -8.9005 -15.642 -14.398 -14.546 -9.7635 -9.387501 -7.1855 
-6.593 -6.626 -10.564 -13.2455 -10.847 -10.7605 -11.4075 -17.2076 -20.2457 -17.104 -18.4406 -11.9313 -12.29 
-8.481 -11.9315 -13.534 -14.909 -12.853 -12.527 -19.7146 -21.3921 -22.9517 -20.9986 -20.6084 -14.8338 
-4.1865 -6.774 -1.7565 -3.433 -1.934 -5.3885 0 -1.756 -4.649 -3.35 -2.186 -4.0885 -3.8435 -8.113 -1.7565 -3.8735 0 
-8.6845 -7.173 -4.7085 -5.207 -6.4035 -5.3885 -1.756 -6.2135 -7.187 -5.587 -5.8685 -7.475 -10.276 -8.63 -5.112 -3.8735 
-8.6875 -8.118 -6.063 -9.315001 -6.4035 -7.176001 -6.2135 -9.1835 -9.699 -8.528 -10.004 -14.6397 -11.0252 -12.9139 -5.112 
-9.06 -9.856501 -9.491501 -9.315001 -7.7845 -10.494 -9.1835 -11.7915 -12.747 -13.1609 -17.4435 -15.3889 -15.3091 -12.9139 
-11.1809 -13.285 -9.491501 -10.3825 -11.1617 -10.6125 -11.7915 -14.8395 -17.3799 -20.6004 -18.1927 -19.6728 -15.3091 
