-4.759 
n/a 
n/a 
n/a 
n/a 
-4.759 
n/a 
n/a 
n/a 
n/a 
-4.759 
n/a 
n/a 
n/a 
n/a 
-4.759 
n/a 
n/a 
n/a 
n/a 
-3.5005 -4.5005 -4.243 0 -5.5425 0 -3.948 -2.8965 -3.4765 -2.4945 -3.074 -4.303 0 
-8.7405 -6.863501 -4.243 -5.5425 -5.5425 -3.948 -5.7575 -5.854 -5.538 -4.4205 -6.1305 -4.303 
-10.3105 -6.863501 -9.5385 -5.5425 -10.647 -5.7575 -8.712001 -7.829 -7.5835 -8.435501 -6.1305 
-10.3105 -12.6958 -9.5385 -10.647 -12.4565 -8.712001 -10.622 -9.2945 -9.144501 -8.435501 
-16.1428 -12.6958 -14.7646 -12.4565 -15.411 -10.622 -12.0875 -11.0711 -9.144501 
-3.6065 -2.8965 -3.4765 -3.5005 -4.5005 -4.243 0 -5.5425 -3.152 -3.074 -4.303 0 
-7.436 -5.854 -6.251 -8.7405 -6.863501 -4.243 -5.5425 -9.532501 -5.0635 -6.1305 -4.303 
-10.4185 -8.393001 -12.3072 -10.3105 -6.863501 -9.5385 -9.532501 -11.4704 -8.620501 -6.1305 
-12.9575 -14.695 -13.8772 -10.3105 -12.6958 -13.6501 -11.4704 -15.0274 -8.620501 
-19.2595 -16.265 -13.8772 -16.1428 -16.8074 -15.588 -15.0274 -15.0274 
-3.1385 -3.074 -4.4605 -4.5005 -4.243 0 -5.5425 -4.0135 -1.7565 -3.4765 0 
-6.103001 -6.344 -9.589001 -6.863501 -4.243 -5.5425 -10.1075 -4.201 -5.531 -3.4765 
-10.172 -12.4087 -9.852001 -6.863501 -9.5385 -10.1075 -10.483 -7.48 -5.531 
-16.3707 -12.6717 -9.852001 -12.6958 -14.2251 -10.483 -13.762 -7.48 
-16.6337 -12.6717 -15.7999 -17.3824 -14.6006 -13.762 -13.762 
-2.925 -3.6675 -4.211 0 -5.5425 -1.756 -2.8965 -3.135 -3.4765 -3.074 0 
-5.602 -6.6495 -4.211 -5.5425 -7.3715 -3.751 -6.925 -6.368501 -6.812 -3.074 
-8.716001 -6.6495 -7.69 -7.3715 -9.466001 -8.2255 -9.522 -8.953501 -6.812 
-8.716001 -10.8737 -10.1465 -9.466001 -14.0491 -11.2443 -12.7084 -8.953501 
-13.0634 -13.3302 -12.36 -14.0491 -17.0679 -14.4307 -12.7084 
