-4.759 
n/a 
n/a 
n/a 
n/a 
-4.759 
n/a 
n/a 
n/a 
n/a 
-4.759 
n/a 
n/a 
n/a 
n/a 
-4.759 
n/a 
n/a 
n/a 
n/a 
-4.251 -3.291 -4.202 -1.7565 -3.013 -1.4985 -2.7765 -2.6165 -4.598 0 
-8.815001 -8.238 -5.3045 -6.318501 -4.488 -5.857 -4.9255 -8.137 -4.598 
-14.2278 -9.467501 -10.0645 -7.952001 -8.533 -8.333 -11.7144 -8.137 
-15.4573 -14.3537 -11.7324 -12.1634 -11.8648 -15.1851 -11.7144 
-20.3435 -16.0216 -15.9438 -15.4952 -18.7169 -15.1851 
-4.7935 -2.0935 -6.6855 -1.4985 -3.6075 -4.6505 -2.7415 -2.6165 -4.3285 0 
-7.735001 -8.039001 -7.326 -4.5495 -8.133 -7.797501 -4.266 -5.818 -4.3285 
-13.7837 -8.870001 -9.8945 -9.2825 -11.4504 -9.484501 -7.079 -5.818 
-14.6147 -11.5651 -14.6275 -12.7135 -13.1374 -12.3185 -7.079 
-17.3098 -16.2981 -18.0585 -14.4005 -15.9714 -12.3185 
-4.7935 -4.7865 -3.436 -1.4985 -4.5515 -2.742 -2.6165 -2.489 -4.3285 
-10.821 -7.956 -4.213 -5.872001 -6.665501 -3.995 -3.82 -5.308001 
-13.9905 -8.904501 -8.854 -8.3865 -8.426001 -4.35 -5.9775 
-14.939 -13.6401 -11.8801 -9.822001 -8.7405 -6.061 
-19.6746 -16.6662 -13.3156 -10.041 -10.5975 
-4.278 -3.3875 -5.2275 -3.914 -2.3335 -2.186 -3.788 -4.196 -1.756 -4.5385 0 -3.759 0 -1.934 -2.8965 -3.9355 0 -2.4265 -3.3875 -2.6165 -3.8825 0 -2.0935 -4.3555 0 -2.688 -2.915 -2.4285 -3.8235 -3.8125 -1.8085 -3.9845 -2.3335 -2.186 -4.07 -1.7695 -2.489 -5.1195 -4.105 -1.8085 -3.7775 -1.7695 -1.8085 -4.5205 -3.534 0 
-8.6905 -7.7655 -9.512501 -5.6195 -3.7085 -4.9005 -6.288 -5.6835 -6.24 -4.5385 -3.759 -3.759 -1.934 -4.391 -4.9455 -3.9355 -2.4265 -4.889 -4.9205 -5.522 -3.8825 -2.0935 -4.763 -4.3555 -2.688 -5.3815 -4.946 -6.522 -6.476 -6.093 -5.2165 -5.2675 -3.7085 -4.8875 -4.3955 -3.1405 -5.9665 -9.64 -5 -4.9815 -4.781 -3.41 -5.549 -6.304 -3.534 
-10.078 -10.078 -9.999001 -6.811501 -5.994 -7.4825 -7.704 -8.127 -6.24 -9.458 -3.759 -6.336 -4.391 -4.962 -4.9455 -5.9535 -4.889 -6.3295 -8.146501 -5.522 -5.831 -4.763 -4.763 -7.113 -5.3815 -7.094501 -9.31 -8.881001 -9.113001 -9.521501 -6.556 -7.1125 -6.3395 -5.0475 -4.976 -6.7705 -9.948501 -9.9945 -8.056001 -5.418 -5.8055 -7.400001 -6.696 -6.304 
-10.084 -10.084 -10.0635 -8.909 -8.479501 -8.428 -9.799 -8.127 -10.382 -9.458 -6.336 -8.772 -4.962 -4.962 -6.184 -7.927001 -6.3295 -9.622001 -8.146501 -7.205 -8.277 -4.763 -7.8575 -9.7535 -7.094501 -9.922001 -9.9315 -10.051 -10.0785 -9.750001 -7.5855 -9.596001 -6.3865 -5.5465 -8.009001 -9.956 -10.0655 -10.075 -8.2485 -6.104 -9.650001 -8.243 -6.696 
-10.09 -10.09 -10.0725 -10.038 -9.370001 -10.0475 -9.799 -10.459 -10.382 -10.436 -8.772 -8.974 -4.962 -6.191 -8.0565 -9.029 -9.622001 -9.622001 -9.9615 -9.396501 -8.277 -7.8575 -9.7665 -10.0705 -9.922001 -10.0745 -10.0835 -10.084 -10.0845 -10.082 -9.84 -9.6215 -7.025001 -8.519 -9.975 -10.065 -10.078 -10.0875 -8.977 -9.8585 -9.960501 -8.243 
