-4.759 
n/a 
n/a 
n/a 
n/a 
-4.759 
n/a 
n/a 
n/a 
n/a 
-4.759 
n/a 
n/a 
n/a 
n/a 
-4.759 
n/a 
n/a 
n/a 
n/a 
-1.934 -1.4985 -4.6035 -3.098 -2.5045 0 -10.0625 -7.8155 0 
-2.6125 -5.8535 -8.5895 -5.4315 -2.5045 -10.0625 -18.2164 -7.8155 
-6.984 -10.1855 -11.3628 -5.4315 -13.4844 -18.2164 -18.2164 
-11.4802 -12.9588 -11.3628 -16.914 -21.6383 -18.2164 
-14.2535 -12.9588 -22.8453 -25.0679 -21.6383 
-2.5045 -1.4985 -4.6035 -1.7565 -12.16972 -2.8635 
-3.1915 -5.8535 -6.306001 -14.87542 -15.03322 
-8.0485 -6.6525 -20.01092 -17.73892 
-9.296 -20.52882 -22.87442 
-23.32772 -23.39232 
-3.5455 -10.6015 -7.8155 -4.6035 -2.8635 0 
-15.5768 -18.417 -13.0336 -8.451501 -2.8635 
-23.3923 -23.6351 -16.8816 -8.451501 
-28.6104 -27.4831 -16.8816 
-32.4584 -27.4831 
-3.5455 0 -8.4855 -7.8155 0 -4.6035 
-3.5455 -8.4855 -16.6104 -7.8155 -4.6035 
-13.4608 -16.6104 -16.6104 -13.0336 
-21.5857 -16.6104 -21.8285 
-21.5857 -21.8285 
