-4.759 
n/a 
n/a 
n/a 
n/a 
-4.759 
n/a 
n/a 
n/a 
n/a 
-4.759 
n/a 
n/a 
n/a 
n/a 
-4.759 
n/a 
n/a 
n/a 
n/a 
-1.4985 -3.367 -4.339 -4.0935 -3.4985 -2.915 
-4.6965 -6.294 -6.956 -7.9375 -6.059 
-6.957001 -8.6055 -9.23 -8.602 
-8.9095 -10.4505 -9.976001 
-10.494 -10.4645 
-1.934 -1.4985 -6.143001 -4.7725 -4.816 -5.593 -2.4945 -5.6235 
-2.6125 -5.736001 -8.734 -9.8305 -10.7025 -7.497001 -8.0035 
-6.47 -10.323 -14.2934 -15.9798 -12.6065 -13.6062 
-10.7095 -15.2368 -20.6681 -17.8838 -18.7157 
-16.4408 -21.6161 -22.5721 -23.993 
-3.1725 -3.5825 -2.186 -3.841 -4.7725 
-5.89 -5.8525 -6.5255 -8.6985 
-8.547001 -9.750001 -12.156 
-13.1061 -15.8001 
-19.1562 
-4.7725 -1.7565 -3.1725 -2.186 -3.5005 -3.4985 -4.3655 0 
-6.4595 -5.756001 -5.5235 -6.946 -7.152 -7.715 -4.3655 
-8.7465 -7.7335 -10.76 -10.9723 -12.0481 -7.715 
-11.9508 -13.3798 -14.7863 -15.8684 -12.0481 
-17.5971 -17.4061 -19.6824 -15.8684 
