-4.759 
n/a 
n/a 
n/a 
n/a 
-4.759 
n/a 
n/a 
n/a 
n/a 
-4.759 
n/a 
n/a 
n/a 
n/a 
-4.759 
n/a 
n/a 
n/a 
n/a 
-5.1875 -4.2655 -4.7175 -3.4635 -1.7695 -3.989 -3.098 
-7.408 -8.769 -7.138 -4.2045 -5.701 -7.378 
-12.3121 -11.4599 -7.1495 -8.233001 -8.438001 
-15.003 -11.4714 -11.404 -11.307 
-15.0145 -15.7259 -14.478 
-3.0415 -3.098 -4.109 -4.247 0 -3.43 -2.925 -1.7565 -1.8085 -5.0575 -3.759 -1.7565 -4.179 -3.499 -1.7565 -1.8085 -3.8475 -2.882 -2.489 -2.5195 -3.6065 -4.72 -3.711 0 
-6.0755 -7.776 -7.153 -4.247 -3.43 -5.0455 -4.898 -3.2595 -6.3155 -7.573 -4.5295 -5.2175 -8.031501 -4.306 -3.2595 -5.634 -6.759 -3.631 -5.6005 -5.35 -6.68 -5.7565 -3.711 
-11.3417 -11.0942 -7.153 -8.252501 -5.0455 -5.285 -6.0335 -7.767 -8.028501 -7.678501 -7.6715 -9.226501 -8.409 -5.781 -6.553 -8.134501 -7.5 -6.7 -7.8415 -7.5235 -6.985 -5.7565 
-14.6599 -11.0942 -10.3745 -8.9475 -5.285 -6.345 -9.7465 -9.544001 -8.080001 -10.5745 -11.8585 -9.528001 -9.429501 -7.78 -8.903501 -8.744 -10.2535 -8.558001 -9.757001 -7.9555 -6.985 
-14.6599 -14.3157 -10.745 -9.1245 -6.345 -9.7565 -11.7217 -9.592501 -10.6465 -14.7615 -12.16 -10.4965 -11.6599 -9.683001 -9.293501 -10.2975 -10.3245 -10.146 -9.995001 -7.9555 
-3.433 -1.7565 -2.3615 -3.098 -5.1875 -4.2655 -2.186 -5.0095 -3.1385 -1.7695 -4.052 -5.1375 0 
-4.1845 -3.523 -5.7725 -8.3905 -7.408 -5.908 -6.2845 -6.5925 -4.6115 -4.393 -9.621 -5.1375 
-5.5485 -7.598001 -12.0336 -10.75 -8.744 -10.6435 -7.743001 -6.6605 -7.3035 -9.964001 -9.621 
-8.47 -14.0947 -14.3931 -12.086 -13.6375 -12.102 -7.846 -9.6645 -13.5399 -9.964001 
-15.2359 -16.4542 -15.7291 -16.9795 -15.096 -12.205 -10.609 -16.1311 -13.5399 
-6.51 -3.5485 -5.1875 -4.2655 -3.998 -2.4285 -3.4635 -1.7695 -3.953 -1.756 -3.43 -2.791 -1.7695 -3.8185 -1.4985 -4.8525 
-9.175501 -8.988501 -7.408 -8.569 -6.4915 -5.5325 -4.2045 -6.0845 -5.523 -5.055 -5.9425 -4.3355 -4.74 -4.662 -6.545 
-14.8131 -10.647 -12.1121 -10.4855 -10.564 -6.185 -9.142501 -7.3135 -8.974501 -7.0705 -7.7415 -7.045 -5.4735 -10.6605 
-16.4716 -15.3511 -14.0286 -14.558 -11.2165 -11.837 -10.029 -11.148 -9.851001 -9.024 -11.1082 -7.803 -11.5678 
-21.1757 -17.2676 -18.1011 -15.2105 -16.8685 -12.7235 -13.9511 -12.0245 -12.2777 -12.7079 -11.8662 -14.0455 
