-4.759 
n/a 
n/a 
n/a 
n/a 
-4.759 
n/a 
n/a 
n/a 
n/a 
-4.759 
n/a 
n/a 
n/a 
n/a 
-4.759 
n/a 
n/a 
n/a 
n/a 
-3.8735 -4.4605 -3.644 -1.934 -3.38 -4.39 -1.934 -5.2345 -3.098 0 
-8.2355 -7.468 -5.4795 -5.278 -6.9735 -6.876 -6.9445 -8.322001 -3.098 
-11.9286 -8.580001 -9.361501 -9.292001 -9.8485 -10.2805 -10.0185 -8.322001 
-13.0406 -12.7288 -13.5557 -12.2298 -13.4496 -13.3545 -10.0185 
-17.1894 -16.923 -16.4935 -15.8309 -16.5236 -13.3545 
-3.8735 -4.305 -1.934 -4.39 -3.4765 -3.188 -5.2345 -3.5065 -1.7695 -3.383 -3.301 
-9.125 -5.912001 -6.6955 -7.231501 -6.5535 -8.322001 -8.165001 -5.488 -5.849 -4.6415 
-10.4515 -11.3355 -9.790001 -11.2011 -12.9153 -11.8723 -10.368 -10.007 -7.1575 
-15.875 -14.43 -13.808 -17.5629 -16.4656 -14.0753 -14.887 -11.3155 
-18.9695 -18.448 -20.1698 -21.1132 -18.6686 -18.5943 -16.1955 
-1.934 -4.39 -3.4765 0 -5.2345 -2.4945 -3.2345 -3.301 -1.934 -3.188 -3.518 
-6.6955 -7.231501 -3.4765 -5.2345 -7.6555 -7.1845 -5.792 -5.499001 -5.387 -7.135 
-9.790001 -7.231501 -8.747001 -7.6555 -12.6891 -9.7325 -8.1905 -9.063001 -9.4665 
-9.790001 -10.5425 -11.6376 -12.6891 -15.2371 -12.275 -12.2177 -13.3997 
-13.1494 -13.4331 -16.6712 -15.2371 -17.7796 -16.3022 -16.5544 
-1.934 -4.39 -5.2345 -3.6 -3.8735 -2.8645 -3.8535 -3.3235 -1.934 -1.4985 -3.38 -3.518 
-6.6955 -6.8015 -7.859501 -8.318501 -6.143 -5.189 -6.147 -5.0795 -2.6125 -4.4895 -6.113501 
-9.451501 -9.850501 -12.9404 -9.9355 -8.513 -7.029 -7.09 -5.77 -5.736 -6.5845 
-12.6385 -15.4888 -14.5574 -12.4303 -9.6295 -7.7015 -7.652 -8.8345 -8.938001 
-18.2768 -17.1058 -17.0522 -13.5468 -10.109 -8.186 -10.574 -12.2891 
