-4.759 
n/a 
n/a 
n/a 
n/a 
-4.759 
n/a 
n/a 
n/a 
n/a 
-4.759 
n/a 
n/a 
n/a 
n/a 
-4.759 
n/a 
n/a 
n/a 
n/a 
-3.5195 -3.5905 0 -1.4985 -3.3785 -4.519 -4.0875 -3.5015 -1.756 0 -7.424 -6.960001 0 -3.9955 -5.113 -2.5045 -4.432 -4.328 0 -3.4635 -2.3335 -1.4985 -4.891 -1.756 -4.257 -5.884501 -6.2675 -1.7565 -4.5165 0 
-5.636001 -3.5905 -1.4985 -4.4495 -6.1955 -7.759 -5.143 -5.087 -1.756 -7.424 -8.633 -6.960001 -3.9955 -10.3285 -7.236501 -6.429 -4.899 -4.328 -3.4635 -6.2075 -3.3515 -5.891001 -6.593 -6.3795 -8.9615 -13.4658 -7.876 -6.665501 -4.5165 
-5.636001 -5.1795 -4.4495 -7.255 -9.376501 -7.798501 -6.8125 -5.087 -9.062 -8.633 -8.633 -11.0145 -10.3285 -12.452 -11.6472 -6.5855 -4.899 -7.9015 -6.2075 -7.467 -7.717 -7.402 -10.76 -11.533 -16.6882 -15.0743 -13.116 -6.665501 
-7.054501 -8.061001 -7.255 -10.0995 -9.4005 -9.200001 -6.8125 -13.1636 -10.186 -8.633 -12.9575 -17.3475 -12.452 -16.8627 -11.8037 -6.5855 -8.166 -10.4765 -7.467 -11.9581 -9.35 -11.7562 -15.9135 -19.2597 -18.2967 -20.3143 -13.116 
-9.291 -11.1477 -10.0995 -10.1245 -10.89 -9.200001 -15.2823 -14.2876 -10.186 -12.9575 -19.2905 -19.471 -16.8627 -17.0192 -11.8037 -9.1175 -10.9766 -11.736 -11.9581 -13.5911 -13.8624 -16.9097 -23.6402 -20.8682 -23.5367 -20.3143 
-3.034 -7.424 -12.16972 -4.3195 -3.757 -3.2615 -4.389 -1.4985 -4.519 -1.934 -3.5195 -3.5905 0 -4.225 -4.348 -1.756 -6.144 -3.251 -3.43 -1.8085 -5.263 -3.898 -3.8675 0 
-9.951 -20.38632 -16.48922 -6.517 -6.943501 -6.1785 -5.452001 -5.844501 -5.7775 -5.009 -5.636001 -3.5905 -4.225 -6.583 -5.634 -8.08 -8.1085 -5.49 -4.6595 -6.4925 -6.269001 -7.358001 -3.8675 
-22.96412 -24.70582 -18.68672 -8.454 -9.269 -6.5635 -8.469001 -6.9995 -7.717 -6.676 -5.636001 -8.126 -6.583 -7.880001 -9.4865 -10.27 -10.0575 -6.2805 -9.981001 -6.7785 -7.470001 -7.358001 
-27.28362 -26.90332 -20.62372 -10.4265 -9.612 -9.2585 -9.323001 -9.009501 -9.4945 -6.676 -10.31 -11.0332 -7.880001 -12.0319 -11.8195 -12.219 -10.848 -11.883 -10.0365 -7.9885 -7.470001 
-29.48112 -28.84032 -22.59622 -10.687 -12.4602 -10.064 -11.4362 -10.7254 -9.4945 -10.6875 -13.2172 -12.3302 -12.0319 -14.3649 -13.7685 -13.0095 -16.4505 -11.9385 -11.2465 -7.9885 
-3.321 -3.7875 -5.9325 -1.7695 -1.4985 -3.7405 -5.5515 -6.85 -3.882 -3.43 -3.849 -4.6705 -3.7015 -3.332 -3.3435 -4.7285 0 -5.141 -3.3855 -2.7415 -1.8085 -5.5755 -4.1105 -1.756 -2.847 -4.103 -1.8085 -4.7905 -1.7695 -3.8475 0 -2.872 -3.3855 -2.7415 -3.7285 -4.0925 
-6.508 -8.357 -6.492001 -2.7955 -5.136001 -8.9215 -10.884 -10.5865 -7.0515 -6.2625 -8.1855 -6.8525 -5.97 -5.33 -6.4645 -4.7285 -5.141 -7.2295 -4.412 -3.891 -6.8085 -9.400501 -5.5855 -4.6065 -4.3465 -5.711 -5.993501 -5.9285 -5.786 -3.8475 -2.872 -5.1005 -4.412 -5.283 -6.726 
-10.5035 -8.982501 -7.265 -6.579 -10.3605 -14.3566 -14.6205 -13.756 -9.365001 -9.147501 -9.969501 -9.8675 -8.779 -8.987 -6.4645 -8.9575 -7.2295 -7.7815 -5.5175 -8.705 -9.8315 -10.428 -8.264501 -6.1995 -5.7465 -8.392 -6.402501 -7.5855 -5.786 -6.363 -5.1005 -6.178 -6.9515 -7.3415 
-11.129 -9.728001 -11.7691 -12.1243 -15.7956 -18.0931 -17.79 -16.0695 -12.4358 -11.5699 -13.0959 -12.7889 -10.426 -8.987 -10.6595 -11.4894 -7.7815 -8.9065 -10.1385 -10.7175 -10.488 -13.107 -9.5635 -7.888 -8.395 -8.555 -7.816 -7.5855 -7.7215 -8.697001 -6.178 -8.128501 -10.476 
-11.8745 -14.3133 -17.3144 -17.5594 -19.5321 -21.2626 -20.1035 -19.1403 -14.8582 -14.6963 -16.0173 -14.4359 -10.426 -13.2438 -13.1914 -12.0414 -8.9065 -13.8345 -12.151 -11.374 -13.167 -14.406 -10.265 -9.98 -8.558001 -8.992001 -7.816 -9.186501 -10.0405 -9.726 -8.128501 -11.7438 
-1.934 -3.5195 -3.5905 -3.3785 -4.519 -7.424 -8.748501 -3.9955 -1.756 -4.3195 -4.432 -4.328 -3.2615 -1.4985 -6.144 -4.891 -4.4635 -1.7695 -6.1495 0 
-5.009 -5.636001 -7.1315 -6.1955 -10.784 -10.4595 -14.0322 -6.33 -5.563 -7.228 -4.899 -7.192 -4.032 -6.455 -9.338 -9.195001 -4.8765 -8.357 -6.1495 
-6.676 -9.074501 -8.913 -13.1725 -13.8195 -15.7432 -16.3667 -9.026 -8.780001 -7.2585 -7.612 -7.9735 -8.751 -10.078 -13.7376 -9.321501 -9.8545 -8.357 
-10.1805 -10.5045 -16.0154 -16.208 -19.1032 -18.0777 -19.0627 -12.4828 -8.811001 -8.919001 -8.262 -13.0219 -12.4996 -14.4776 -13.8641 -14.8699 -9.8545 
-11.6105 -17.6069 -19.0509 -21.4917 -21.4377 -20.7737 -22.5195 -12.5138 -10.513 -9.453 -13.4748 -16.7705 -16.8992 -14.6041 -19.4125 -14.8699 
