-4.759 
n/a 
n/a 
n/a 
n/a 
-4.759 
n/a 
n/a 
n/a 
n/a 
-4.759 
n/a 
n/a 
n/a 
n/a 
-4.759 
n/a 
n/a 
n/a 
n/a 
-6.7135 0 -4.1125 0 -4.8625 0 -5.6465 -4.8775 -3.152 -4.3895 
-6.7135 -4.1125 -4.1125 -4.8625 -4.8625 -5.6465 -10.147 -6.6175 -6.313001 
-8.400001 -4.1125 -8.040001 -4.8625 -8.999001 -10.147 -12.443 -10.061 
-8.400001 -8.040001 -8.040001 -8.999001 -13.7789 -12.443 -15.8865 
-8.934001 -8.040001 -9.915501 -13.7789 -16.0749 -15.8865 
-2.925 -3.8185 -1.4985 -4.8775 -1.7565 -10.3985 0 -4.1125 0 -4.1865 -1.756 -4.8 0 
-6.34 -4.662 -6.4025 -6.057 -13.1042 -10.3985 -4.1125 -4.1125 -4.1865 -5.9565 -6.462 -4.8 
-6.8915 -10.504 -6.8685 -18.0673 -13.1042 -14.511 -4.1125 -7.0815 -5.9565 -8.577001 -6.462 
-12.8681 -10.97 -19.4272 -18.0673 -17.2167 -14.511 -7.0815 -7.9205 -8.577001 -8.577001 
-13.3341 -23.5287 -19.4272 -22.1798 -17.2167 -17.48 -7.9205 -9.885 -8.577001 
-4.936 -4.9225 0 -7.014 0 -4.8625 0 -5.484 -3.9675 -4.3535 
-11.136 -4.9225 -7.014 -7.014 -4.8625 -4.8625 -5.484 -8.439501 -8.8995 
-11.136 -12.9507 -7.014 -10.703 -4.8625 -10.1 -8.439501 -13.6615 
-19.1642 -12.9507 -10.703 -10.703 -10.1 -14.0005 -13.6615 
-19.1642 -16.6397 -10.703 -15.9405 -14.0005 -19.2225 
-4.3895 -2.3345 -6.7135 0 -4.1125 0 -4.8625 -1.756 -5.6465 -4.8775 
-4.6785 -8.7045 -6.7135 -4.1125 -4.1125 -4.8625 -6.1675 -6.9065 -10.147 
-9.7615 -8.7045 -8.400001 -4.1125 -8.040001 -6.1675 -9.0565 -10.2695 
-9.7615 -10.688 -8.400001 -8.040001 -8.408501 -9.0565 -12.5689 
-11.8532 -10.688 -8.934001 -8.408501 -10.0285 -12.5689 
