-4.759 
n/a 
n/a 
n/a 
n/a 
-4.759 
n/a 
n/a 
n/a 
n/a 
-4.759 
n/a 
n/a 
n/a 
n/a 
-4.759 
n/a 
n/a 
n/a 
n/a 
-3.8655 -2.847 -2.9995 -3.5435 -4.2655 
-6.8085 -6.693 -6.165 -7.3215 
-10.9907 -9.93 -10.218 
-14.2277 -14.167 
-18.4647 
-3.0365 -2.186 -2.847 -3.915 -4.2655 -1.934 -3.8655 0 
-3.66 -4.1045 -6.18 -7.348001 -5.8575 -4.9135 -3.8655 
-4.256001 -6.986001 -8.76 -8.481501 -8.5695 -4.9135 
-6.997001 -9.311001 -9.5935 -10.5535 -8.5695 
-9.313001 -9.936001 -11.8487 -10.5535 
-3.8655 -2.8645 -2.847 -3.915 -4.2655 0 
-6.2115 -4.6285 -6.18 -7.348001 -4.2655 
-8.1745 -6.9065 -8.76 -7.348001 
-10.223 -9.245 -8.76 
-12.5615 -9.245 
-3.0365 -2.186 -2.847 -7.9745 -4.2655 -1.934 -3.8655 0 
-3.66 -4.1045 -11.4283 -12.803 -5.8575 -4.9135 -3.8655 
-4.256001 -13.6516 -16.2568 -14.395 -8.5695 -4.9135 
-13.8733 -18.4801 -17.8488 -17.107 -8.5695 
-18.7018 -20.0721 -20.5608 -17.107 
