-4.759 
n/a 
n/a 
n/a 
n/a 
-4.759 
n/a 
n/a 
n/a 
n/a 
-4.759 
n/a 
n/a 
n/a 
n/a 
-4.759 
n/a 
n/a 
n/a 
n/a 
-2.4265 -2.186 -2.664 -4.5085 -2.3335 -3.8905 -4.439 -1.934 -7.897 0 -3.7805 0 -1.756 -3.8755 -4.394 -4.439 -1.934 -5.035 0 
-3.292 -3.8555 -6.625 -7.031 -5.363501 -7.1705 -5.314 -10.6095 -7.897 -3.7805 -3.7805 -1.756 -5.454 -7.48 -8.676001 -5.314 -7.221 -5.035 
-5.11 -8.363501 -8.866 -10.361 -8.871 -9.0185 -14.5703 -10.6095 -10.3895 -3.7805 -5.1485 -5.454 -9.529 -12.3196 -9.7435 -11.1818 -7.221 
-9.354001 -9.992001 -12.3676 -14.0337 -9.981001 -18.4408 -14.5703 -13.102 -10.3895 -5.1485 -9.6595 -9.529 -14.4358 -13.3871 -15.5663 -11.1818 
-10.3225 -13.576 -16.0403 -15.1437 -19.8733 -18.4408 -17.0628 -13.102 -11.7575 -9.6595 -13.7807 -14.4358 -15.5033 -19.2099 -15.5663 
-1.4985 -4.566 -3.644 -2.3335 -1.4985 -7.975501 0 0 -3.8905 0 -5.4435 -1.934 -1.4985 -4.8625 -1.756 -1.4985 -8.856 0 0 -4.394 0 -5.4435 -1.934 -1.4985 -5.035 -1.756 -4.967 -5.4375 
-5.4515 -7.3215 -4.989501 -3.3515 -8.569 -7.975501 0 -3.8905 -3.8905 -5.4435 -5.8235 -2.6125 -5.981501 -6.3855 -3.0405 -9.1925 -8.856 0 -4.394 -4.394 -5.4435 -5.8235 -2.6125 -5.9395 -6.5775 -6.6585 -9.418501 
-8.053 -7.635 -5.794001 -10.281 -8.569 -7.975501 -3.8905 -3.8905 -8.344 -5.8235 -6.3765 -7.590001 -7.211 -7.5175 -10.7565 -9.1925 -8.856 -4.394 -4.394 -8.595 -5.8235 -6.3765 -7.435501 -7.288 -12.0664 -10.4505 
-8.3 -8.331 -12.8577 -10.281 -8.569 -10.0105 -3.8905 -8.344 -8.757 -6.3765 -11.644 -8.905001 -7.956501 -15.5351 -10.7565 -9.1925 -10.958 -4.394 -8.595 -8.9875 -6.3765 -11.4895 -8.669001 -13.0409 -15.8584 
-9.01 -15.5175 -12.8577 -10.281 -10.7962 -10.0105 -8.344 -8.757 -9.337001 -11.644 -12.959 -9.8655 -16.1369 -15.5351 -10.7565 -11.3139 -10.958 -8.595 -8.9875 -9.2685 -11.4895 -12.723 -14.4421 -16.8329 
-8.8195 -4.221 -3.7805 -1.756 -9.0935 -4.221 -3.898 -1.756 -3.6845 -5.4375 0 
-13.2799 -8.984501 -5.1485 -10.907 -13.6383 -8.101501 -5.242001 -5.0105 -8.342501 -5.4375 
-18.0434 -9.984 -15.2333 -15.4518 -17.5188 -10.4265 -8.727501 -9.558001 -8.342501 
-19.0429 -20.4312 -19.7781 -19.3323 -19.8438 -13.912 -13.408 -9.558001 
-29.4901 -24.976 -23.6586 -21.6573 -23.3293 -18.5925 -13.408 
-2.4265 -2.186 -4.7815 -2.3335 -7.975501 -4.221 -1.934 -3.7805 -1.756 -8.856 -4.221 -1.934 -3.898 0 
-3.292 -5.5035 -5.3995 -9.8675 -12.7533 -5.1325 -5.1525 -5.1485 -10.4765 -13.3708 -5.1325 -6.015 -3.898 
-6.001 -6.1675 -13.4131 -14.7509 -13.6648 -8.644501 -7.1855 -14.8028 -14.9913 -14.2823 -9.456 -6.015 
-6.17 -14.2839 -18.2965 -15.6624 -17.1768 -10.419 -17.2146 -19.3176 -15.9028 -18.6058 -9.456 
-14.2868 -19.1673 -19.208 -19.1744 -18.9513 -20.4481 -21.7294 -20.2291 -20.2263 -18.6058 
