-4.759 
n/a 
n/a 
n/a 
n/a 
-4.759 
n/a 
n/a 
n/a 
n/a 
-4.759 
n/a 
n/a 
n/a 
n/a 
-4.759 
n/a 
n/a 
n/a 
n/a 
-4.628 -6.9645 -5.1785 -3.1335 -2.4945 -4.7925 -3.222 -3.54 -3.9035 
-7.012 -12.9236 -8.634001 -5.9225 -5.941501 -5.2095 -5.6115 -6.125501 
-13.0287 -16.3791 -11.7482 -9.38 -6.151 -6.088 -6.75 
-16.4842 -19.4933 -15.2057 -9.5375 -7.02 -7.0455 
-19.5984 -22.9508 -15.3632 -10.589 -8.4455 
-4.628 -6.739501 -3.307 -3.1335 -2.8645 -3.2495 -4.456 
-10.6215 -10.6925 -5.8455 -5.7585 -5.3035 -7.08 
-14.5745 -13.231 -8.356001 -8.330501 -9.370001 
-17.113 -15.7415 -10.718 -12.6496 
-19.6235 -18.1035 -15.0371 
-4.628 -4.743 -3.307 -2.674 -3.2495 -4.221 -5.9415 
-4.7515 -9.4565 -6.58 -5.2115 -6.798 -10.718 
-9.546 -12.9019 -9.749001 -8.799 -13.7256 
-13.0526 -16.0709 -13.5701 -15.8394 
-16.2216 -19.892 -20.6105 
-4.628 -4.743 -2.229 -5.391 -3.1335 -4.96 -1.7565 -3.2495 -5.42 0 
-4.7515 -6.5015 -7.5905 -9.0205 -8.714001 -5.1815 -4.5605 -7.9655 -5.42 
-6.5135 -12.7054 -11.5636 -14.8 -8.889 -6.55 -9.147 -7.9655 
-12.7538 -16.6785 -17.3431 -14.975 -10.0385 -10.088 -9.147 
-16.7269 -22.458 -17.5181 -16.1245 -14.0241 -10.088 
