-4.759 
n/a 
n/a 
n/a 
n/a 
-4.759 
n/a 
n/a 
n/a 
n/a 
-4.759 
n/a 
n/a 
n/a 
n/a 
-4.759 
n/a 
n/a 
n/a 
n/a 
-1.934 -3.5905 -1.756 -3.2615 0 -1.4985 -4.051 -3.9445 -9.807501 -1.756 -1.4985 -4.4475 -3.4775 -2.7415 -5.2025 0 
-5.055 -5.415 -4.788 -3.2615 -1.4985 -5.263 -5.376 -12.8835 -10.365 -3.0405 -5.684501 -7.319 -6.1005 -7.164001 -5.2025 
-6.0815 -8.125501 -4.788 -4.032 -5.263 -6.432 -11.6745 -12.181 -9.314001 -7.3005 -8.323001 -9.978001 -10.575 -7.164001 
-8.6955 -8.125501 -5.586 -8.048 -6.432 -13.2041 -13.0186 -13.3261 -13.6853 -9.8415 -11.3536 -14.4525 -10.575 
-8.6955 -9.106501 -9.7665 -9.519001 -13.8561 -14.6336 -14.7261 -18.3124 -16.7198 -12.9367 -15.8281 -14.4525 
-4.1865 -4.051 -3.758 -4.306 -1.756 -5.0475 -3.4775 -2.5045 -3.5905 -1.756 -3.4635 -3.277 -2.4265 -4.4725 -3.6515 -3.301 -3.518 0 
-7.452 -6.7585 -7.5985 -5.536 -6.5525 -8.153501 -5.746 -7.1355 -5.415 -5.7385 -6.535 -5.4405 -6.4565 -6.585501 -6.9255 -6.7555 -3.518 
-11.1723 -11.9672 -9.2215 -11.5607 -10.316 -10.5535 -10.5535 -9.059501 -8.944 -8.1295 -8.4515 -9.2095 -7.9945 -10.159 -10.9838 -6.7555 
-16.381 -13.5902 -15.2622 -15.3242 -12.931 -15.361 -12.4775 -12.6637 -10.0575 -10.071 -12.1767 -10.8629 -11.7822 -14.2173 -10.9838 
-18.004 -19.6309 -19.0257 -17.9392 -17.7385 -17.285 -16.0817 -13.7772 -11.999 -14.0136 -13.8301 -14.6506 -15.8405 -14.2173 
-4.1865 -12.16972 -1.756 -4.9675 -4.1545 -2.5045 -3.5905 -1.756 -3.436 -3.277 -1.7695 -2.489 -3.301 
-17.68782 -13.92572 -6.807 -9.97 -7.0855 -7.1355 -5.415 -5.457 -8.118501 -4.9945 -3.1405 -5.2005 
-19.44382 -18.97672 -12.2561 -13.4 -12.3767 -9.059501 -7.95 -10.1035 -10.275 -6.54 -5.8995 
-24.49482 -24.42582 -15.6861 -18.6912 -14.3007 -11.6697 -13.1951 -12.26 -12.1911 -9.411 
-29.94392 -27.85582 -20.9773 -20.6152 -16.9109 -16.9148 -15.3516 -14.1761 -15.0621 
-3.8735 -2.229 -4.051 -3.9445 -3.6395 -1.756 -3.993 -3.4775 -1.934 -3.5905 -2.186 -3.383 -3.3235 0 
-5.3655 -5.7005 -5.376 -5.307 -5.162 -5.382 -6.2375 -5.1195 -5.055 -6.4355 -4.438 -4.9265 -3.3235 
-7.525001 -7.275001 -6.9495 -6.804501 -8.7635 -7.820001 -7.928 -8.541 -7.2715 -9.0985 -6.319 -4.9265 
-8.6225 -8.467 -8.361 -10.7595 -11.7223 -9.98 -12.0011 -10.513 -9.7865 -11.1115 -6.319 
-10.5505 -10.634 -12.7564 -13.7183 -13.8823 -14.1895 -13.9731 -13.028 -11.8623 -11.1115 
