-4.759 
n/a 
n/a 
n/a 
n/a 
-4.759 
n/a 
n/a 
n/a 
n/a 
-4.759 
n/a 
n/a 
n/a 
n/a 
-4.759 
n/a 
n/a 
n/a 
n/a 
-6.557 -2.186 -1.4985 -4.121 -1.7565 -10.7115 -2.186 -1.4985 -4.435 -1.7565 -5.1845 
-8.833 -3.339 -5.189 -5.211 -13.7181 -12.3661 -3.339 -5.442 -5.090001 -6.580501 
-9.749001 -6.504 -5.738501 -18.2972 -14.8571 -13.1761 -7.141 -5.6825 -10.6056 
-12.914 -6.6175 -18.9525 -19.4362 -15.6671 -17.5796 -7.2875 -11.3607 
-13.0275 -20.0101 -20.0915 -20.2462 -20.0706 -17.8831 -13.1349 
-2.871 -3.0695 -2.7415 -5.5495 -2.5045 -6.557 -1.756 -10.7545 -1.756 -3.0695 -4.3845 -5.1845 -2.4945 -3.074 -5.1845 -3.6765 
-5.059 -4.6395 -7.5175 -6.796 -9.273001 -8.2015 -13.5191 -12.5105 -4.8565 -6.3415 -8.588 -8.622001 -4.4205 -8.947001 -9.148001 
-6.494 -8.4855 -8.353001 -13.7639 -10.7605 -20.3446 -15.2751 -15.611 -8.422001 -9.670501 -12.3527 -9.856501 -10.143 -13.0829 
-10.5664 -9.4355 -15.3841 -15.2514 -22.9036 -22.1006 -18.3756 -19.1765 -11.9776 -13.4856 -13.5872 -15.7166 -14.2789 
-11.5164 -16.3922 -16.8716 -27.3945 -24.6596 -25.2011 -21.9411 -22.7321 -15.7927 -14.7201 -19.4473 -19.8525 
-8.863001 -4.121 -3.1715 -2.4945 -1.4985 -6.557 0 -5.1845 -6.844 0 -3.8245 -10.7895 -6.824501 -1.7565 -9.6365 0 
-13.568 -7.9945 -6.0855 -3.9315 -8.1955 -6.557 -5.1845 -6.9655 -6.844 -3.8245 -15.9464 -17.614 -9.132501 -10.985 -9.6365 
-17.4415 -10.4425 -7.6485 -11.1553 -8.1955 -8.437 -6.9655 -6.9655 -11.6071 -15.9464 -22.7709 -19.922 -18.5522 -10.985 
-19.8895 -12.3341 -15.0417 -11.1553 -10.5861 -11.2618 -6.9655 -11.898 -23.729 -22.7709 -25.0789 -29.3417 -18.5522 
-21.7811 -19.7273 -15.0417 -13.5459 -13.4109 -11.2618 -11.898 -24.0199 -30.5535 -25.0789 -34.4986 -29.3417 

n/a 
n/a 
n/a 
n/a 
-4.759 
n/a 
n/a 
n/a 
n/a 
