-4.759 
n/a 
n/a 
n/a 
n/a 
-4.759 
n/a 
n/a 
n/a 
n/a 
-4.759 
n/a 
n/a 
n/a 
n/a 
-4.759 
n/a 
n/a 
n/a 
n/a 
-6.0755 -5.9885 0 -3.5455 -3.6885 0 -2.186 -2.7455 -3.8315 -3.5455 -3.6885 0 
-6.37 -5.9885 -3.5455 -9.284 -3.6885 -2.186 -4.686 -5.9075 -8.4945 -9.284 -3.6885 
-6.37 -9.4565 -9.284 -9.284 -5.4995 -4.686 -7.7745 -10.6605 -14.514 -9.284 
-10.2925 -16.5004 -9.284 -11.237 -8.477501 -7.7745 -13.0413 -16.68 -14.514 
-17.5212 -16.5004 -11.237 -14.215 -11.6528 -13.0413 -19.0608 -16.68 
-6.6335 0 -2.186 -1.4985 -3.8315 -3.452 -1.7565 -1.934 -3.5455 -3.8735 -1.934 -4.5735 -2.95 0 
-6.6335 -2.186 -3.339 -5.577001 -7.456501 -4.8515 -5.223001 -4.8495 -6.514501 -5.938 -5.86 -7.4445 -2.95 
-8.717501 -3.339 -7.6305 -8.705001 -9.844001 -8.896501 -8.795001 -7.274001 -8.365001 -9.127501 -8.08 -7.4445 
-9.9405 -7.6305 -10.749 -11.3497 -13.991 -12.7867 -11.4001 -8.791 -11.7577 -11.8847 -8.08 
-14.3788 -10.749 -13.3937 -15.4967 -17.8812 -15.3918 -12.9171 -12.2569 -14.5149 -11.8847 
-6.0755 -8.634001 -2.7415 -3.8315 -2.7455 -2.871 -1.7565 -1.4985 -4.6365 -3.5455 -4.1865 -3.6885 -3.452 
-15.5339 -11.7541 -7.675 -7.5565 -5.3835 -3.5385 -2.4195 -5.3015 -8.809501 -6.670501 -7.112 -6.9405 
-18.654 -16.6876 -11.8152 -9.297001 -6.2715 -3.7675 -5.9005 -9.047001 -10.75 -9.610001 -10.3885 
-23.5875 -20.8278 -13.5557 -10.8246 -6.575 -5.996 -9.4595 -11.0531 -13.6895 -13.0337 
-27.7277 -22.5683 -15.0833 -11.1281 -8.7545 -9.503 -11.274 -13.9926 -17.1132 
-6.6335 -2.8645 -3.452 -5.0075 -1.7695 -3.8315 
-9.7865 -7.865 -7.6895 -5.113 -6.101501 
-14.9204 -12.6411 -8.049001 -9.9055 
-19.6965 -13.0006 -13.1861 
-20.056 -18.1377 
