-4.759 
n/a 
n/a 
n/a 
n/a 
-4.759 
n/a 
n/a 
n/a 
n/a 
-4.759 
n/a 
n/a 
n/a 
n/a 
-4.759 
n/a 
n/a 
n/a 
n/a 
-3.5455 -1.4985 -7.761 -1.934 -3.135 -5.0575 -5.2545 -5.1735 -2.186 -1.934 -3.585 0 
-3.91 -9.901 -10.375 -4.4015 -7.3925 -10.204 -10.2485 -6.963 -4.0835 -5.6395 -3.585 
-13.2331 -12.515 -12.8425 -7.766 -12.9146 -15.4588 -12.2288 -8.872 -6.98 -5.6395 
-15.8471 -14.9825 -16.207 -13.3377 -18.1694 -17.4391 -14.1378 -12.1423 -6.98 
-18.3146 -18.347 -21.7787 -18.5925 -20.1497 -19.3481 -17.4081 -12.1423 
-3.135 -5.0575 -2.4945 -6.2115 -2.264 -12.16972 0 
-7.3925 -6.866 -8.554001 -7.926 -15.46572 -12.16972 
-8.776001 -13.1923 -9.9305 -21.67712 -15.46572 
-15.2115 -14.5688 -23.64382 -21.67712 
-16.588 -28.28212 -23.64382 
-2.5045 -1.4985 -3.486 -2.95 -3.135 -5.0575 -4.4725 -1.4985 -5.1735 -1.7565 -10.9655 -2.264 -1.4985 -3.486 -7.9935 -3.193 
-3.1915 -3.5655 -4.563 -6.116 -7.3925 -9.623501 -5.712 -5.9065 -5.7375 -13.6712 -13.2295 -2.9195 -3.5655 -12.6281 -11.5435 
-4.538 -4.577 -7.1215 -10.2865 -12.3341 -10.6235 -9.567501 -6.0965 -18.5836 -15.9352 -13.885 -4.9505 -12.7762 -16.1781 
-4.615 -7.126501 -11.4068 -15.2281 -13.3341 -14.479 -9.8625 -19.209 -20.8476 -16.5907 -15.916 -14.7522 -16.3262 
-7.1445 -11.4144 -16.3484 -16.2281 -17.1896 -14.774 -22.975 -21.473 -21.5031 -18.6217 -25.7177 -18.3022 
-7.7355 -2.95 -3.135 -5.0575 -4.5055 -9.463 -4.0905 
-11.0903 -6.116 -7.3925 -9.598501 -15.2781 -13.7505 
-14.2563 -10.2865 -12.3091 -20.6237 -19.5656 
-18.4268 -15.2031 -23.3343 -24.9112 
-23.3434 -26.2283 -27.6218 
