-4.759 
n/a 
n/a 
n/a 
n/a 
-4.759 
n/a 
n/a 
n/a 
n/a 
-4.759 
n/a 
n/a 
n/a 
n/a 
-4.759 
n/a 
n/a 
n/a 
n/a 
-3.5065 -2.3615 -3.6175 -2.7415 -2.6165 -6.4935 0 -5.5785 -4.101 -1.7695 -6.58 -3.3155 -3.091 -4.4455 -4.657 -1.756 -3.5745 -3.8935 -3.4985 -3.115 -4.899 -4.017 -2.0935 -3.1385 -4.0225 -2.0935 -3.7455 
-5.4055 -5.316 -6.1 -4.266 -8.495501 -6.4935 -5.5785 -8.8155 -4.6905 -8.311 -9.6505 -5.855 -5.4825 -8.101001 -6.045 -5.2215 -8.4345 -7.948501 -6.3875 -7.7165 -7.88 -5.6855 -4.6835 -6.2925 -6.233 -6.3415 
-9.096001 -7.493 -7.635 -9.028501 -8.495501 -12.6608 -8.8155 -9.179501 -10.4945 -10.5125 -12.3822 -7.848001 -8.873501 -9.492001 -8.803 -9.67 -12.6515 -9.146501 -10.168 -10.3095 -9.5205 -8.585501 -7.693 -8.370001 -11.1328 
-9.842001 -8.9795 -12.8415 -9.028501 -15.0086 -15.8978 -9.179501 -15.2747 -12.696 -13.2442 -14.3752 -9.595501 -10.1 -12.2724 -13.4077 -13.9966 -13.8495 -13.0804 -12.761 -11.95 -12.7171 -11.6766 -9.880501 -13.5396 
-10.6125 -14.403 -12.8415 -15.6152 -18.2456 -16.2618 -15.2747 -17.4762 -15.4277 -15.2372 -16.1227 -10.4605 -12.9186 -16.8771 -17.7343 -15.1946 -17.7834 -15.6734 -14.4015 -15.1466 -15.8082 -13.8641 -15.0693 
-2.5045 -2.3615 -2.7415 -2.6165 -4.1975 0 -5.5785 -4.101 -1.7695 -6.58 -3.3155 -3.091 -4.4455 -4.657 -1.756 -2.7415 -4.077 -1.934 -1.8085 -3.8935 -3.6175 -1.7565 -4.899 -1.4985 -4.017 -1.7565 -3.1385 -4.0225 -1.7695 -1.4985 -3.7455 0 
-4.9645 -4.455 -4.266 -6.3195 -4.1975 -5.5785 -8.8155 -4.6905 -8.311 -9.6505 -5.855 -5.4825 -8.101001 -6.045 -4.4655 -5.709001 -4.43 -3.2685 -4.6045 -7.312 -5.328 -6.4595 -5.949 -5.562 -4.8305 -4.388 -6.2925 -4.9235 -2.7955 -4.4155 -3.7455 
-6.6035 -5.7415 -6.899 -6.3195 -10.75 -8.8155 -9.179501 -10.4945 -10.5125 -12.3822 -7.848001 -8.873501 -9.492001 -8.190001 -7.0515 -5.883 -5.626 -6.058001 -7.726501 -8.599 -8.079 -7.3055 -8.8605 -6.314001 -8.821501 -7.082001 -6.9775 -5.748 -5.643 -4.4155 
-7.817 -8.644501 -6.899 -13.665 -13.987 -9.179501 -15.2747 -12.696 -13.2442 -14.3752 -9.595501 -10.1 -11.6594 -11.0014 -7.1365 -6.6255 -8.942 -10.0095 -8.9925 -11.462 -8.744 -10.041 -10.75 -9.689001 -11.7151 -7.734001 -7.6565 -8.645 -5.643 
-10.864 -8.644501 -14.6823 -16.902 -14.351 -15.2747 -17.4762 -15.4277 -15.2372 -16.1227 -10.4605 -12.3056 -14.4708 -11.0864 -8.1285 -10.6215 -12.9031 -11.2755 -11.9791 -12.127 -11.6987 -11.9305 -14.125 -12.5564 -12.3671 -8.406001 -10.66 -8.645 
-3.5065 -2.4265 -3.4405 -5.651501 -4.4565 -1.7695 -4.6335 0 -5.5785 -4.101 -1.7695 -3.091 -4.4455 -2.229 -4.303 0 -6.58 -3.0365 -2.9805 -4.254 -2.5045 -3.183 -1.8085 -3.519 -4.899 -3.213 -1.934 -1.4985 -3.7455 
-4.9345 -4.5365 -9.1385 -10.2885 -4.9325 -6.001501 -4.6335 -5.5785 -8.8155 -4.6905 -4.458 -5.4825 -5.7775 -6.267 -4.303 -6.58 -9.792001 -5.6105 -5.5985 -5.522 -5.993 -4.3575 -5.0315 -6.939 -8.405001 -4.4465 -2.6125 -4.4155 
-6.7075 -8.586 -12.7545 -10.178 -8.349 -6.001501 -9.855 -8.8155 -9.179501 -6.66 -6.697001 -6.4855 -10.4915 -6.267 -11.1415 -9.792001 -12.8546 -7.7085 -6.3975 -9.962 -6.7435 -7.640501 -8.6055 -9.0865 -10.0255 -5.06 -5.9055 
-10.767 -14.0064 -13.4699 -13.6674 -8.349 -11.5624 -13.2816 -9.179501 -11.4402 -8.6925 -7.705 -11.5143 -10.4915 -13.5033 -14.3535 -12.8546 -14.9526 -8.5705 -11.4207 -10.8529 -9.6555 -10.4185 -11.2318 -11.2652 -10.639 -8.6995 
-16.6183 -14.3978 -17.2482 -13.8138 -14.2005 -14.989 -13.6456 -11.4402 -13.4727 -9.196 -12.9638 -11.5143 -17.7278 -16.7153 -17.4161 -14.9526 -15.8146 -13.7161 -12.3116 -13.7649 -12.9749 -13.5328 -13.4105 -11.8787 -14.2785 
-2.9805 -3.5745 -2.6165 -5.2835 -3.0365 -3.0415 -2.9805 -4.101 -1.7695 -12.16972 -2.356 -3.091 -4.4455 -1.756 -3.918 -1.7695 -4.334 -1.4985 -4.017 
-4.8665 -4.114 -7.0815 -8.1415 -5.737 -5.0885 -5.2985 -4.6905 -14.92142 -14.52572 -4.513 -5.4825 -5.7155 -6.079 -6.328 -4.939 -5.3735 -5.562 
-5.333 -9.2205 -9.662001 -11.0816 -7.5265 -6.908 -5.869 -18.15002 -17.27742 -16.68272 -6.488 -6.6975 -9.899001 -7.8785 -9.836 -5.702 -8.354 
-10.5975 -11.7428 -12.7397 -12.8711 -9.042001 -7.4535 -19.61192 -20.50602 -19.43442 -18.65772 -7.5585 -10.31 -11.7047 -11.6135 -10.212 -8.925501 
-13.1198 -14.8205 -14.5292 -14.3866 -9.5155 -21.42262 -21.96792 -22.66302 -21.40942 -19.72822 -11.3472 -12.0841 -15.4397 -11.9895 -13.4355 
