-4.759 
n/a 
n/a 
n/a 
n/a 
-4.759 
n/a 
n/a 
n/a 
n/a 
-4.759 
n/a 
n/a 
n/a 
n/a 
-4.759 
n/a 
n/a 
n/a 
n/a 
-11.8885 -3.9725 0 -5.1645 0 0 -3.54 -4.114 0 0 -2.701 0 
-16.5742 -3.9725 -5.1645 -5.1645 0 -3.54 -6.679 -4.114 0 -2.701 -2.701 
-16.5742 -9.436 -5.1645 -5.1645 -3.54 -6.679 -6.679 -4.114 -2.701 -2.701 
-22.0377 -9.436 -5.1645 -9.8485 -6.679 -6.679 -6.679 -7.928 -2.701 
-22.0377 -9.436 -9.8485 -13.0895 -6.679 -6.679 -10.2865 -7.928 
-4.3285 0 -7.56 -5.847 0 -5.1645 0 -4.789 -3.9825 0 0 -5.3565 0 
-4.3285 -7.56 -9.519501 -5.847 -5.1645 -5.1645 -4.789 -8.2805 -3.9825 0 -5.3565 -5.3565 
-12.2389 -9.519501 -9.519501 -9.97 -5.1645 -11.0499 -8.2805 -8.2805 -3.9825 -5.3565 -5.3565 
-14.1984 -9.519501 -13.8291 -9.97 -11.0499 -14.5414 -8.2805 -8.2805 -9.262001 -5.3565 
-14.1984 -13.8291 -13.8291 -15.9208 -14.5414 -14.5414 -8.2805 -13.832 -9.262001 
-4.3285 -10.4975 0 -1.934 -5.1645 -3.54 -4.1665 0 -2.701 0 
-15.1764 -10.4975 -1.934 -6.5525 -9.8485 -7.416 -4.1665 -2.701 -2.701 
-15.1764 -12.4315 -6.5525 -10.2035 -13.8265 -7.416 -8.009001 -2.701 
-17.1104 -17.05 -10.2035 -14.3557 -13.8265 -10.702 -8.009001 
-21.7289 -20.701 -14.3557 -14.3557 -17.1125 -10.702 
-4.3285 0 -7.56 -5.847 0 -5.1645 0 -3.54 -6.9375 -2.229 0 
-4.3285 -7.56 -9.519501 -5.847 -5.1645 -5.1645 -3.54 -11.6019 -8.729 -2.229 
-12.2389 -9.519501 -9.519501 -9.97 -5.1645 -9.8485 -11.6019 -13.3934 -8.729 
-14.1984 -9.519501 -13.8291 -9.97 -9.8485 -18.0124 -13.3934 -13.3934 
-14.1984 -13.8291 -13.8291 -14.7194 -18.0124 -19.8039 -13.3934 
