-4.759 
n/a 
n/a 
n/a 
n/a 
-4.759 
n/a 
n/a 
n/a 
n/a 
-4.759 
n/a 
n/a 
n/a 
n/a 
-4.759 
n/a 
n/a 
n/a 
n/a 
-3.106 -6.9935 -3.9035 
-10.7495 -7.4145 
-11.1705 
n/a 
n/a 
-3.106 -3.8195 -5.0845 -3.9035 0 
-7.5695 -8.248501 -8.801001 -3.9035 
-12.5415 -8.858001 -8.801001 
-13.151 -8.858001 
-13.151 
-3.106 -3.8195 -5.0845 -3.9035 0 
-7.5695 -8.248501 -8.801001 -3.9035 
-12.5415 -8.858001 -8.801001 
-13.151 -8.858001 
-13.151 
-3.106 -3.8195 -4.088 -3.9035 0 
-7.5695 -8.38 -8.064501 -3.9035 
-12.673 -10.543 -8.064501 
-14.836 -10.543 
-14.836 
