-4.759 
n/a 
n/a 
n/a 
n/a 
-4.759 
n/a 
n/a 
n/a 
n/a 
-4.759 
n/a 
n/a 
n/a 
n/a 
-4.759 
n/a 
n/a 
n/a 
n/a 
-8.0625 -4.127 -6.341 -6.2275 -2.5195 -3.469 -2.95 
-12.9237 -11.7488 -10.3745 -8.750501 -6.0635 -4.7535 
-20.5455 -15.7823 -12.8975 -12.6431 -7.5455 
-24.579 -18.3053 -16.7901 -14.1251 
-27.102 -22.1979 -18.2721 
-2.5195 -4.5735 -7.2935 -4.7615 -6.341 -3.8905 
-6.318501 -13.0352 -12.7174 -9.435501 -9.842 
-15.4214 -18.4591 -17.3914 -13.1001 
-20.8453 -23.1331 -21.056 
-25.5193 -26.7977 
-7.2935 -3.644 -6.339 -9.103001 -3.1435 -3.9535 -2.5195 -4.5735 -3.4795 -4.179 
-9.906 -10.151 -16.28 -12.6229 -8.113 -6.238 -6.318501 -7.4725 -8.9725 
-16.413 -20.35 -19.7999 -17.5924 -10.1675 -10.382 -8.588501 -10.7175 
-26.612 -23.8699 -24.7694 -19.6469 -14.3381 -12.652 -12.0237 
-30.1319 -28.8394 -26.8239 -23.8175 -16.6081 -16.0872 
-5.4435 -6.648 -1.934 -4.744 -1.7695 -12.16972 -1.756 -3.074 -2.7295 -2.4945 -2.674 -1.934 -3.5905 -3.4795 
-13.4555 -9.018001 -8.816001 -7.469001 -14.92142 -13.92572 -4.566 -5.826 -3.7725 -6.7615 -5.0615 -5.709 -5.88 
-15.8255 -16.0578 -11.5924 -21.08552 -16.67742 -16.73572 -7.151501 -6.844501 -7.8615 -9.4475 -9.210501 -7.8035 
-22.8653 -18.8342 -25.20892 -22.84152 -19.48742 -19.32122 -8.104 -10.6095 -10.151 -13.6743 -11.4528 
-25.6417 -32.45072 -26.96492 -25.65152 -22.07292 -20.27372 -12.0782 -13.3866 -14.4884 -15.9166 
