-4.759 
n/a 
n/a 
n/a 
n/a 
-4.759 
n/a 
n/a 
n/a 
n/a 
-4.759 
n/a 
n/a 
n/a 
n/a 
-4.759 
n/a 
n/a 
n/a 
n/a 
-2.3615 -4.1175 -3.882 -5.3405 -1.7565 -4.2815 -1.934 -5.046 0 -3.676 -3.8755 -1.7695 -3.4465 -1.4985 -6.4785 0 
-6.37 -8.1415 -9.811001 -6.2495 -5.607 -6.152 -6.3405 -5.046 -3.676 -7.562 -5.463 -4.299 -4.946 -7.378 -6.4785 
-9.842 -14.3141 -10.9074 -10.123 -7.0925 -8.133 -6.3405 -9.0555 -7.562 -9.4045 -7.912001 -5.5425 -11.6095 -7.378 
-16.167 -15.4105 -14.7809 -11.9673 -9.195001 -8.133 -9.816001 -13.3169 -9.4045 -12.2007 -8.8135 -12.5704 -11.6095 
-17.2634 -19.284 -16.6252 -14.0698 -9.195001 -11.7417 -14.2192 -15.1594 -12.2007 -13.1022 -16.0304 -12.5704 
-2.3615 -3.9005 -5.046 -5.867 -1.7695 -3.676 -2.229 -3.8275 -1.7695 -4.23 -4.763 0 
-6.328 -10.9575 -11.6216 -6.57 -5.5605 -4.593 -5.697001 -5.9455 -6.3265 -8.2155 -4.763 
-13.9568 -17.5331 -12.3246 -10.115 -6.135 -6.95 -7.816 -11.0985 -9.975 -8.2155 
-20.5324 -18.2361 -15.8696 -10.6405 -8.692 -8.0955 -13.509 -14.747 -9.975 
-21.2354 -21.7811 -16.3951 -13.7439 -10.2899 -15.2033 -17.1575 -14.747 
-2.3615 -4.172 -1.7695 -5.3405 -1.7565 -4.2815 -1.934 -1.4985 -3.158 -5.046 -1.756 -7.241 -4.0875 -3.355 -1.934 -1.4985 -3.8275 0 
-6.109 -4.8625 -6.067501 -6.2495 -5.607 -6.152 -2.6125 -4.178 -7.7545 -6.858 -9.153 -12.1583 -5.7705 -4.8475 -2.6125 -4.726 -3.8275 
-6.2715 -9.691501 -8.717501 -10.123 -7.0925 -6.795001 -5.265 -8.332001 -9.426001 -14.9292 -14.3005 -13.8413 -5.8455 -5.376 -5.815001 -4.726 
-11.3805 -10.72 -12.6944 -11.9673 -7.6255 -8.966001 -8.933001 -9.5755 -17.6258 -20.0767 -15.9835 -13.9163 -6.1595 -7.704 -5.815001 
-12.409 -14.6969 -14.5387 -12.5003 -10.0155 -10.702 -10.0225 -17.8265 -22.7733 -21.7597 -16.0585 -14.2303 -8.515 -7.704 
-2.0935 -2.3615 -4.1175 -1.934 -5.046 -3.034 -3.2615 -5.3405 -4.2815 0 -3.676 -3.8755 -1.4985 -3.7095 -1.7565 -1.4985 -4.088 -1.7565 -3.8275 0 
-3.854 -6.37 -5.713 -6.3405 -7.533 -6.608 -8.377501 -10.035 -4.2815 -3.676 -7.562 -5.275 -4.89 -4.7465 -2.4195 -5.6785 -5.4975 -4.8265 -3.8275 
-8.936501 -8.0895 -10.396 -8.0135 -10.597 -12.0884 -13.3122 -10.035 -8.035501 -7.562 -8.804501 -8.913501 -5.0975 -5.369 -6.388 -6.936501 -9.4245 -4.8265 
-10.898 -12.8991 -12.069 -11.1239 -16.0774 -17.0231 -13.3122 -13.789 -12.4849 -8.804501 -12.5868 -9.331 -5.7135 -10.3885 -7.9525 -10.494 -9.4245 
-15.7076 -14.5721 -15.1794 -16.6043 -21.0121 -17.0231 -17.0662 -18.2384 -13.7274 -12.5868 -13.0043 -9.849001 -10.805 -11.953 -11.774 -10.494 
