-4.759 
n/a 
n/a 
n/a 
n/a 
-4.759 
n/a 
n/a 
n/a 
n/a 
-4.759 
n/a 
n/a 
n/a 
n/a 
-4.759 
n/a 
n/a 
n/a 
n/a 
-3.995 -1.934 -4.066 -1.934 -3.458 -1.4985 -3.7075 -1.756 -1.4985 -4.4515 -3.135 -4.8565 -3.995 -4.359 -3.952 0 
-5.975 -7.1715 -5.226 -5.207 -4.063 -4.6235 -5.318 -3.0405 -5.0235 -7.965501 -8.0795 -9.1745 -8.6155 -9.2925 -3.952 
-11.9011 -8.6145 -8.264 -6.0585 -7.3255 -5.845 -6.396501 -6.4645 -8.193501 -13.1698 -12.8271 -14.2696 -14.0186 -9.2925 
-13.3441 -11.7445 -8.95 -9.200001 -7.477 -6.502501 -7.0165 -9.8865 -13.4734 -17.9174 -17.9222 -19.6727 -14.0186 
-16.4741 -12.4305 -10.5535 -9.3815 -7.7135 -7.028 -10.2755 -15.1664 -18.221 -23.0125 -23.3253 -19.6727 
-3.8735 -2.8645 -1.4985 -5.1495 -4.0415 -3.5125 -4.2985 -3.251 -3.849 -6.142 -1.4985 -3.0835 -3.7775 -1.7565 -5.6785 -2.186 -3.557 -1.934 -1.4985 -6.645 -2.5045 -3.3235 -2.5045 -1.4985 -6.2055 -6.7445 -1.756 -9.101501 
-6.143 -4.3545 -5.3835 -8.9545 -5.9115 -7.1875 -5.874 -6.9645 -7.7775 -7.5415 -3.535 -6.672501 -6.1245 -7.247001 -7.975 -5.0815 -4.4175 -2.6125 -6.879001 -8.418 -3.7105 -3.8485 -3.583 -7.455 -8.836 -7.815 -10.1345 
-7.6055 -7.227 -9.101501 -11.3235 -9.668 -7.2625 -8.2185 -9.198501 -9.022 -9.3255 -7.071501 -8.5585 -12.29 -8.772501 -11.0843 -5.6285 -4.9675 -7.719 -8.540001 -9.413501 -3.8545 -4.654 -9.458 -9.5075 -9.058001 -10.159 
-10.1505 -11.2752 -11.5063 -15.08 -9.855 -9.523001 -9.8785 -10.2085 -10.6345 -12.9628 -8.624001 -15.065 -13.8155 -12.2002 -11.6313 -6.0695 -9.1 -9.0865 -9.596001 -9.512501 -4.6565 -10.223 -11.6701 -9.5765 -12.124 
-14.1987 -13.68 -15.2628 -15.267 -12.2275 -11.5358 -10.8885 -11.821 -14.2718 -14.5153 -15.2055 -16.5905 -17.2432 -12.7472 -12.0723 -10.0065 -10.5231 -10.2335 -9.672501 -10.04 -10.223 -12.7165 -11.7391 -12.5641 
-3.995 -1.756 -3.307 -1.7565 -5.0615 -1.7695 -3.135 -4.8565 
-5.3025 -5.912 -4.8035 -7.2665 -6.8415 -4.779 -8.0795 
-9.901 -7.127501 -10.5535 -8.8365 -10.0675 -9.887501 
-10.4225 -13.2793 -12.5881 -12.1669 -15.176 
-17.0281 -15.3139 -15.9185 -17.2754 
-3.034 -3.962 -2.5195 -1.4985 -3.995 0 -3.972 -3.074 -4.1835 -3.115 -4.1655 -3.135 -4.201 -1.934 -5.23 
-6.918 -5.7095 -3.1695 -4.712 -3.995 -3.972 -7.254 -6.2075 -6.825001 -7.131001 -7.087501 -6.343 -5.6445 -7.0995 
-7.474 -6.112 -6.2025 -4.712 -8.238 -7.254 -9.679501 -9.5115 -10.634 -9.93 -9.528501 -7.9115 -8.325001 
-7.896501 -8.0935 -6.2025 -9.014501 -11.941 -9.679501 -12.9429 -13.3259 -13.433 -12.3154 -10.555 -11.2498 
-9.748 -8.0935 -10.718 -12.8597 -14.3665 -12.9429 -16.7573 -16.1249 -15.8184 -13.3419 -13.8933 
