-4.759 
n/a 
n/a 
n/a 
n/a 
-4.759 
n/a 
n/a 
n/a 
n/a 
-4.759 
n/a 
n/a 
n/a 
n/a 
-4.759 
n/a 
n/a 
n/a 
n/a 
-2.9805 -4.4895 -1.4985 -7.448 -4.754 -4.397 -2.0935 -3.284 -3.5385 -1.934 -5.1845 -5.74 0 
-6.522 -5.623 -7.0125 -10.245 -8.1035 -5.634 -5.3945 -5.796 -4.9765 -6.564 -5.7465 -5.74 
-7.205501 -12.002 -8.743 -8.7615 -9.438001 -8.838 -7.0855 -6.917 -9.241 -6.819 -5.7465 
-12.5367 -11.561 -8.844501 -9.6675 -10.2935 -9.7995 -8.186501 -10.76 -9.302 -6.819 
-12.5747 -11.2815 -10.101 -10.4425 -10.422 -10.9033 -12.1789 -10.821 -9.302 
-2.9805 -2.229 -4.752 -2.688 -4.397 -1.7565 -3.284 -3.5385 -2.229 -4.487 0 
-4.2145 -7.7315 -6.1565 -6.5565 -5.847 -5.0585 -5.796 -4.2445 -6.2645 -4.487 
-10.66 -9.726 -10.647 -7.921 -9.651501 -6.9185 -7.18 -8.1965 -6.2645 
-12.6545 -14.2679 -12.0115 -11.7011 -11.5945 -8.804501 -10.598 -8.1965 
-17.1964 -15.6324 -15.7916 -13.6441 -13.4805 -12.4559 -10.598 
-2.9805 -4.4895 -3.046 -7.448 -4.754 -4.397 -2.0935 -3.284 -3.5385 -1.934 -6.557 
-6.522 -8.12 -10.066 -10.245 -8.1035 -5.634 -5.3945 -5.796 -4.9765 -7.536 
-9.986 -14.649 -10.5885 -8.7615 -9.438001 -8.838 -7.0855 -6.917 -10.3345 
-16.515 -15.0575 -10.2885 -9.6675 -10.2935 -9.7995 -8.186501 -12.3614 
-16.9235 -15.883 -11.878 -10.4425 -10.422 -10.9033 -13.7803 
-1.7695 -9.035001 -2.264 -5.0655 -3.5505 -3.2 -2.0935 -3.284 -5.1475 0 
-11.7867 -11.117 -7.983001 -9.6505 -6.4655 -4.5875 -5.3945 -8.0705 -5.1475 
-13.8687 -16.836 -13.052 -12.8913 -8.283501 -8.177 -10.316 -8.0705 
-19.5877 -21.905 -16.2928 -14.7093 -12.3846 -13.4323 -10.316 
-24.6567 -25.1458 -18.1108 -18.8104 -17.6399 -13.4323 
