-4.759 
n/a 
n/a 
n/a 
n/a 
-4.759 
n/a 
n/a 
n/a 
n/a 
-4.759 
n/a 
n/a 
n/a 
n/a 
-4.759 
n/a 
n/a 
n/a 
n/a 
-1.4985 -3.452 -3.251 -3.7855 -4.4525 -1.7695 -3.5855 
-4.4485 -6.8535 -5.8015 -8.1905 -5.610001 -5.989 
-7.2485 -9.488501 -10.2645 -8.962501 -8.691 
-9.882501 -14.1503 -10.344 -12.0895 
-14.5167 -14.2298 -13.5776 
-2.3615 -4.537 -3.098 -3.5855 -1.7695 -1.4985 -3.9175 -3.5015 
-6.1475 -7.962 -7.4085 -5.916 -2.7955 -4.6635 -8.356501 
-9.9945 -12.7241 -9.824 -7.0185 -5.615 -8.969501 
-14.7566 -15.1396 -10.9265 -10.022 -9.745001 
-17.1721 -16.2421 -13.93 -14.152 
-2.4265 -2.186 -4.7175 -3.699 -2.7455 -3.5855 
-3.292 -5.732 -8.495001 -6.662 -6.1905 
-6.754 -8.7945 -12.2756 -10.0675 
-9.8645 -12.7759 -15.6811 
-13.8703 -16.1814 
-2.3615 -4.7175 -4.0075 -2.264 -4.5235 
-7.1745 -7.27 -4.453 -7.079 
-10.2776 -7.2955 -8.73 
-10.3031 -11.7163 
-14.7239 
