-4.759 
n/a 
n/a 
n/a 
n/a 
-4.759 
n/a 
n/a 
n/a 
n/a 
-4.759 
n/a 
n/a 
n/a 
n/a 
-4.759 
n/a 
n/a 
n/a 
n/a 
-3.506 -2.341 -4.9595 0 -3.8235 -3.098 0 -9.941501 0 -4.1865 -3.383 -4.4695 -3.3195 -3.819 
-5.465 -7.3365 -4.9595 -3.8235 -6.497 -3.098 -9.941501 -9.941501 -4.1865 -8.8855 -6.6995 -7.267 -6.1505 
-8.97 -7.3365 -8.532001 -6.497 -6.497 -13.4329 -9.941501 -14.3102 -8.8855 -12.3742 -9.831501 -9.3385 
-8.97 -11.294 -11.7175 -6.497 -17.2555 -13.4329 -14.3102 -19.0092 -12.3742 -15.5062 -11.903 
-13.1737 -14.4795 -11.7175 -17.2555 -17.2555 -17.8016 -19.0092 -22.4979 -15.5062 -17.5777 
-3.506 -2.341 0 -4.9595 0 -3.399 -3.098 0 -9.8555 0 -2.9805 -2.186 -2.871 -1.7565 -1.4985 -3.301 -3.3195 -3.819 -1.934 -3.8735 
-5.465 -2.341 -4.9595 -4.9595 -3.399 -5.2825 -3.098 -9.8555 -9.8555 -2.9805 -4.1635 -4.247 -3.5385 -2.4195 -4.6235 -6.091001 -6.1505 -5.8935 -4.885 
-5.465 -7.3365 -4.9595 -9.696001 -5.2825 -5.2825 -13.3469 -9.8555 -12.9954 -4.1635 -6.139501 -4.411 -3.7675 -5.822001 -7.687 -9.734 -7.943501 -8.956 
-8.97 -7.3365 -9.696001 -11.4275 -5.2825 -16.3684 -13.3469 -12.9954 -14.1784 -6.139501 -6.217 -4.5655 -6.91 -9.068501 -11.5082 -11.5662 -10.4265 
-8.97 -12.458 -11.4275 -11.4275 -16.3684 -16.3684 -16.4868 -14.1784 -16.1544 -6.217 -6.3935 -7.754 -10.7369 -13.0429 -13.3404 -14.0492 
-3.506 -2.341 0 -4.9595 0 -4.22 -3.098 0 -12.16972 0 -2.871 -1.7565 -1.4985 -3.2825 -3.3195 -4.273 -1.934 -3.8735 
-5.465 -2.341 -4.9595 -4.9595 -4.22 -6.9095 -3.098 -12.16972 -12.16972 -2.871 -3.5385 -2.4195 -3.712 -6.162001 -7.183001 -5.962 -4.885 
-5.465 -7.3365 -4.9595 -10.6345 -6.9095 -6.9095 -15.66112 -12.16972 -15.04072 -3.5385 -3.7675 -4.687 -6.488501 -9.906 -8.984 -9.211 
-8.97 -7.3365 -10.6345 -13.324 -6.9095 -19.88022 -15.66112 -15.04072 -15.70822 -3.7675 -4.982 -7.249501 -10.092 -10.5075 -10.486 
-8.97 -13.3965 -13.324 -13.324 -19.88022 -19.88022 -18.53212 -15.70822 -15.93722 -4.982 -7.99 -10.2535 -10.615 -12.0095 
-3.506 -2.341 0 -4.9595 0 -3.399 -3.098 0 -9.941501 0 -2.9805 -2.7415 -2.871 -1.7565 -1.4985 -3.2825 -3.3195 -4.273 -1.7565 -3.8735 0 
-5.465 -2.341 -4.9595 -4.9595 -3.399 -5.2825 -3.098 -9.941501 -9.941501 -2.9805 -4.004 -4.8915 -3.5385 -2.4195 -3.712 -6.162001 -7.183001 -5.385 -5.112 -3.8735 
-5.465 -7.3365 -4.9595 -9.696001 -5.2825 -5.2825 -13.4329 -9.941501 -13.1042 -4.004 -6.0835 -5.0085 -3.7675 -4.687 -6.488501 -9.906 -8.851001 -9.777501 -5.112 
-8.97 -7.3365 -9.696001 -11.4275 -5.2825 -16.4544 -13.4329 -13.1042 -14.1277 -6.0835 -6.1225 -5.2005 -4.982 -7.249501 -10.092 -10.7535 -10.7575 -9.777501 
-8.97 -12.458 -11.4275 -11.4275 -16.4544 -16.4544 -16.5956 -14.1277 -16.2072 -6.1225 -6.289501 -6.3465 -7.99 -10.2535 -10.9691 -12.66 -10.7575 
