-4.759 
n/a 
n/a 
n/a 
n/a 
-4.759 
n/a 
n/a 
n/a 
n/a 
-4.759 
n/a 
n/a 
n/a 
n/a 
-4.759 
n/a 
n/a 
n/a 
n/a 
-1.4985 -4.3105 -4.369 -2.186 -1.4985 -4.4475 -1.7565 -3.8655 
-4.977 -5.765 -6.3585 -3.339 -5.684501 -6.1265 -5.196 
-6.9915 -8.13 -7.527501 -7.2645 -6.517001 -9.021001 
-8.224501 -9.215 -8.5705 -7.6095 -9.423501 
-9.265 -10.025 -9.144001 -10.567 
-3.8655 -7.8795 -2.186 -3.8655 -4.4475 
-12.6942 -9.8655 -6.4195 -8.285501 
-14.6802 -14.1932 -10.0965 
-19.0079 -17.8702 
-22.6849 
-3.8655 -2.229 -4.4475 -2.186 -3.849 -4.3105 -4.369 0 
-5.1985 -6.33 -6.3355 -4.8565 -8.3835 -5.765 -4.369 
-8.786 -7.726501 -8.599501 -9.754 -9.9512 -5.765 
-9.7395 -9.566501 -13.724 -11.3217 -9.9512 
-11.8707 -14.8596 -15.2917 -11.3217 
-3.8655 -7.555501 -2.186 -3.8655 -2.229 -4.9675 
-12.3702 -9.462001 -6.4195 -5.1985 -7.081501 
-14.2767 -13.8791 -6.494 -11.1288 
-18.6938 -13.9536 -13.6221 
-18.7683 -21.0817 
