-4.759 
n/a 
n/a 
n/a 
n/a 
-4.759 
n/a 
n/a 
n/a 
n/a 
-4.759 
n/a 
n/a 
n/a 
n/a 
-4.759 
n/a 
n/a 
n/a 
n/a 
-7.193501 -3.594 -3.6785 -2.3335 -3.0365 -2.4945 -3.589 -5.0715 -1.934 -3.5085 -1.934 -2.3615 -11.0905 0 
-10.2385 -7.581 -4.529 -4.2925 -3.688 -6.946001 -9.8225 -6.7535 -5.161 -5.8385 -3.539 -14.7402 -11.0905 
-14.2255 -8.3995 -6.211 -4.9395 -7.524001 -13.6619 -11.5855 -10.6605 -6.924001 -7.898 -16.6227 -14.7402 
-15.044 -10.1385 -6.8395 -8.9235 -14.4293 -15.4249 -15.4925 -12.4235 -8.807501 -21.3435 -16.6227 
-16.783 -10.5395 -10.749 -16.0278 -16.1923 -19.3319 -17.2555 -14.307 -22.3012 -21.3435 
-1.934 -2.3615 -4.5475 -1.8085 -3.5085 -1.7565 -3.589 -7.01 -2.4945 -3.0365 
-3.539 -7.752 -6.6905 -4.6755 -4.8005 -5.748 -10.9394 -8.598001 -4.952001 
-9.978001 -9.605 -9.2685 -4.927 -7.2475 -13.611 -12.5274 -10.7575 
-11.916 -12.296 -9.333 -7.2935 -15.3231 -15.199 -14.6869 
-14.607 -12.3605 -11.7201 -15.3761 -16.9111 -17.3585 
-1.934 -2.3615 -4.5925 -3.589 -8.894501 -2.4945 -3.8245 -4.288 -8.253 
-3.539 -6.8815 -9.552 -12.8239 -11.7758 -5.751 -9.013 -13.5928 
-7.939 -12.2386 -18.7869 -15.7052 -15.0323 -12.1243 -18.3692 
-13.7789 -21.4735 -21.6682 -18.9617 -21.4056 -21.4805 
-23.0138 -24.3548 -24.9247 -25.335 -30.7618 
-2.3615 -4.126 -4.5925 -3.589 -8.894501 -3.644 -1.934 -3.594 0 
-5.538 -9.033001 -9.552 -12.8239 -12.9253 -5.7535 -5.401 -3.594 
-10.1075 -14.0409 -18.7869 -16.8547 -15.0348 -10.1855 -5.401 
-15.1154 -23.2758 -22.8177 -18.9642 -19.4668 -10.1855 
-24.3503 -27.3066 -24.9272 -23.3962 -19.4668 
