-4.759 
n/a 
n/a 
n/a 
n/a 
-4.759 
n/a 
n/a 
n/a 
n/a 
-4.759 
n/a 
n/a 
n/a 
n/a 
-4.759 
n/a 
n/a 
n/a 
n/a 
-3.0365 -2.186 -2.664 -3.133 -4.6595 -4.227 -3.4425 -1.7565 -3.4295 -5.2155 -3.3155 -4.221 -3.1385 -2.7765 -4.5965 
-3.66 -3.8555 -7.516 -7.437 -6.0535 -7.767 -4.5535 -5.143 -9.192501 -7.7015 -8.311501 -6.6955 -5.1855 -6.163 
-4.9795 -9.0345 -11.913 -9.1735 -9.1675 -8.952001 -7.753 -11.8854 -11.8467 -12.9127 -9.653001 -9.2665 -7.8695 
-9.782001 -13.4843 -13.6495 -12.4573 -10.4435 -12.2075 -14.7454 -14.5396 -17.0579 -14.2542 -12.386 -12.0777 
-14.2318 -15.2208 -16.9333 -13.7333 -13.699 -19.1999 -17.3996 -19.7508 -18.3994 -16.9872 -15.1972 
-3.0365 -2.186 -2.664 -3.4295 -5.2155 -1.934 -3.133 -4.197 -4.227 -2.9705 -2.186 -3.8115 -1.7695 -4.5965 -4.221 -3.1385 0 
-3.66 -3.8555 -4.8355 -9.192501 -6.842501 -5.905 -7.288 -5.2115 -6.876 -3.89 -5.177 -3.8325 -5.2165 -9.607 -6.6955 -3.1385 
-4.9795 -5.6655 -10.016 -10.9877 -11.3349 -9.657001 -7.949 -7.77 -7.5455 -6.843 -5.1905 -6.756 -11.3224 -12.2013 -6.6955 
-7.1 -11.525 -11.8112 -15.4801 -15.0869 -10.676 -10.1635 -8.2895 -10.8395 -6.850501 -8.329 -13.4989 -13.9167 -12.2013 
-12.8437 -13.3202 -16.3036 -19.2321 -16.1059 -12.8905 -10.355 -11.7589 -10.847 -10.2506 -15.1253 -16.0932 -13.9167 
-3.4295 -10.235 -1.7565 -3.133 -7.07 -4.227 -4.201 -2.356 -4.194 -1.7565 -4.221 -3.1385 0 
-14.8953 -12.3519 -5.2 -10.586 -9.155001 -7.8925 -6.703 -6.7095 -5.1445 -5.7335 -6.6955 -3.1385 
-17.0122 -15.7954 -13.1506 -12.671 -12.8923 -10.19 -11.4297 -7.466001 -8.173 -8.0675 -6.6955 
-20.4557 -23.746 -15.2356 -16.4083 -15.1898 -14.9167 -12.1862 -9.687501 -9.550501 -8.0675 
-28.4063 -25.831 -18.9729 -18.7058 -19.9165 -15.6732 -14.4077 -11.0872 -9.550501 
-1.934 -3.133 -4.702 -5.6125 -1.756 -4.221 -4.9225 -4.6825 -3.7345 -1.934 -3.4295 -5.8625 -3.768 -2.186 -3.0365 
-5.905 -6.799 -8.3035 -6.9835 -6.386 -9.488001 -9.72 -8.465501 -5.35 -5.57 -10.016 -10.932 -6.05 -4.5415 
-8.454 -9.734 -10.564 -12.1727 -12.1322 -14.3885 -13.728 -9.717001 -9.160501 -12.8429 -15.2997 -13.214 -8.543 
-12.3748 -12.6081 -15.7532 -17.9189 -17.0327 -18.3965 -14.9795 -13.6845 -16.6834 -18.1266 -17.5817 -15.707 
-15.2489 -17.7973 -21.4994 -22.8194 -21.0407 -19.648 -18.947 -21.2074 -21.9671 -20.4086 -20.0747 
