-4.759 
n/a 
n/a 
n/a 
n/a 
-4.759 
n/a 
n/a 
n/a 
n/a 
-4.759 
n/a 
n/a 
n/a 
n/a 
-4.759 
n/a 
n/a 
n/a 
n/a 
-8.282001 -3.4715 -1.7565 -3.131 -8.8575 -1.934 -3.872 -4.0935 -3.533 -3.602 0 
-10.007 -4.173 -5.3875 -12.6921 -11.1383 -6.3875 -6.9135 -8.609 -7.441 -3.602 
-11.0023 -8.8465 -15.2874 -14.9729 -15.5918 -10.609 -11.9216 -12.6806 -7.441 
-15.6758 -18.9676 -17.5682 -19.4264 -19.8133 -15.6171 -15.9932 -12.6806 
-25.7969 -21.2484 -22.0217 -23.6479 -24.8214 -19.6887 -15.9932 
-2.871 -1.7565 -3.6085 -3.452 -1.7565 -3.131 -4.278 -3.872 -2.229 -1.756 -3.8605 -4.96 0 
-3.5385 -5.2885 -7.138 -4.8515 -5.3875 -7.557 -8.372001 -5.469501 -4.366 -5.9695 -9.499001 -4.96 
-8.285 -9.077001 -8.531 -8.5415 -10.1225 -8.7135 -10.5839 -6.536 -8.655001 -12.1132 -9.499001 
-12.4647 -10.672 -12.7006 -13.5719 -11.3766 -12.6044 -11.6504 -11.7372 -15.0545 -12.1132 
-14.0597 -14.8416 -17.731 -14.826 -15.2675 -13.6709 -16.8516 -18.1367 -15.0545 
-2.664 -3.6085 -4.1395 -4.281 -3.131 -4.278 -4.5855 -4.3725 -4.3865 -3.533 -4.928 -1.934 -2.4265 0 
-5.588 -7.397 -8.532001 -7.824 -7.557 -9.908501 -6.848001 -8.7015 -9.262501 -8.599001 -6.160001 -4.6645 -2.4265 
-9.1115 -12.4523 -12.1992 -12.5838 -13.9003 -12.3884 -11.7724 -13.6349 -14.4369 -9.487 -9.198501 -4.6645 
-14.313 -16.1195 -16.959 -18.9271 -16.3802 -17.3128 -16.7058 -18.8093 -15.3249 -12.6665 -9.198501 
-17.9802 -20.8793 -23.3023 -21.407 -21.3046 -22.2462 -21.8802 -19.6973 -18.5044 -12.6665 
-1.934 -3.131 -9.4145 -3.7875 -3.533 -4.867 
-4.8435 -13.2491 -13.4852 -8.8785 -8.47 
-15.3408 -17.3198 -18.5762 -13.9275 
-19.4115 -22.4108 -23.6252 
-24.5025 -27.4598 
