-4.759 
n/a 
n/a 
n/a 
n/a 
-4.759 
n/a 
n/a 
n/a 
n/a 
-4.759 
n/a 
n/a 
n/a 
n/a 
-4.759 
n/a 
n/a 
n/a 
n/a 
-1.4985 -3.54 -4.3105 -5.9415 -1.7565 -1.4985 -3.9075 -7.235 0 -5.272 -1.934 -2.3615 -3.1715 -2.4945 -8.024501 0 -9.873 -1.756 -11.128 
-4.529 -7.4095 -8.462501 -6.974 -2.4195 -4.9185 -8.659 -7.235 -5.272 -6.5715 -3.539 -5.249 -6.0855 -10.8415 -8.024501 -9.873 -11.142 -13.8926 
-8.632 -10.513 -9.287001 -7.1535 -5.650001 -8.9185 -8.659 -10.575 -6.5715 -8.432501 -5.6405 -7.3625 -14.7629 -10.8415 -18.3751 -11.142 -23.2786 
-11.8511 -11.3375 -9.704 -8.444 -9.2285 -8.9185 -10.76 -11.8745 -8.432501 -10.7684 -7.617 -16.3057 -14.7629 -21.1921 -19.6441 -23.2786 
-12.6756 -11.7545 -11.0647 -12.1697 -9.2285 -11.1201 -12.0595 -13.7355 -10.7684 -12.7449 -16.6394 -16.3057 -25.1135 -22.4611 -31.7807 
-9.105 -3.158 -3.034 -2.4265 -5.622 -3.2615 -9.448501 0 -6.864 -3.959 -3.9725 -1.756 -4.657 -2.5685 -5.008 -3.894 -1.756 -4.7425 -2.4265 
-10.9315 -5.5955 -4.3295 -7.940001 -8.1125 -13.8236 -9.448501 -6.864 -10.862 -8.761 -5.5515 -6.28 -7.692 -7.1635 -6.425 -5.115 -6.0415 -6.7895 
-13.369 -6.919 -8.758501 -10.467 -19.161 -13.8236 -16.3737 -10.862 -15.664 -10.022 -10.9081 -8.8935 -12.7372 -8.089001 -7.542001 -7.8255 -8.0195 
-14.6925 -10.6735 -11.5669 -21.5155 -19.161 -20.7488 -20.3717 -15.664 -16.925 -15.6266 -13.5216 -13.9281 -13.6627 -9.198 -10.6547 -9.861001 
-18.447 -13.4819 -22.6154 -21.5155 -26.0862 -24.7468 -25.1737 -16.925 -22.5296 -18.2401 -18.5562 -14.8536 -14.7717 -12.3327 -12.6902 
-2.5685 -2.4945 -5.12 -1.4985 -7.400001 -3.5005 -3.9725 0 -4.9255 -2.5045 -1.4985 -2.95 -1.7565 -7.400001 -2.229 -3.5285 -2.264 -3.9075 0 
-5.3665 -9.852501 -5.936501 -7.988001 -11.6003 -7.566 -3.9725 -4.9255 -7.460001 -3.1915 -3.9285 -4.3785 -8.6545 -10.233 -5.8175 -5.843 -6.623 -3.9075 
-12.9145 -10.795 -13.392 -12.5899 -15.6658 -7.566 -9.177 -7.460001 -8.165501 -4.5155 -4.676 -12.2045 -11.7169 -13.8215 -8.616501 -9.93 -6.623 
-13.857 -18.2505 -17.9939 -16.6554 -15.6658 -13.3069 -11.8851 -8.165501 -9.145 -4.837 -12.7612 -15.2669 -15.3054 -16.6205 -12.9881 -9.93 
-21.3125 -22.8524 -22.0594 -16.6554 -21.4067 -16.015 -12.5906 -9.145 -9.495501 -13.3116 -15.8236 -18.8554 -18.1044 -20.9921 -12.9881 
-5.0285 -3.819 -4.4545 -6.169 0 -3.9075 -1.7565 -8.712001 -1.7565 -3.9725 -2.5685 -1.7695 -4.293 0 
-8.8005 -9.0065 -9.2465 -6.169 -3.9075 -5.9855 -10.884 -10.6673 -5.669 -7.004 -5.236 -6.798501 -4.293 
-14.2894 -14.0401 -9.2465 -11.3145 -5.9855 -15.9956 -12.8393 -14.5798 -9.7165 -10.048 -10.8452 -6.798501 
-19.323 -14.0401 -14.502 -13.3925 -15.9956 -17.9509 -16.7518 -18.6273 -12.9439 -15.7558 -10.8452 
-19.323 -19.2956 -16.58 -23.4026 -17.9509 -21.8634 -20.7993 -21.8547 -18.6517 -15.7558 
