-4.759 
n/a 
n/a 
n/a 
n/a 
-4.759 
n/a 
n/a 
n/a 
n/a 
-4.759 
n/a 
n/a 
n/a 
n/a 
-4.759 
n/a 
n/a 
n/a 
n/a 
-4.617 0 -12.16972 0 -5.943501 0 
-4.617 -12.16972 -12.16972 -5.943501 -5.943501 
-17.18092 -12.16972 -18.11322 -5.943501 
-17.18092 -18.11322 -18.11322 
-23.12442 -18.11322 
-4.617 0 -6.341 -8.6765 0 -5.943501 0 
-4.617 -6.341 -10.523 -8.6765 -5.943501 -5.943501 
-11.136 -10.523 -10.523 -15.0848 -5.943501 
-15.318 -10.523 -16.9313 -15.0848 
-15.318 -16.9313 -16.9313 
-16.78672 0 -5.943501 0 
-17.18092 -5.943501 -5.943501 
-23.12442 -5.943501 
-23.12442 
n/a 
-4.617 -10.9655 0 -5.943501 0 
-15.9767 -10.9655 -5.943501 -5.943501 
-15.9767 -16.909 -5.943501 
-21.9202 -16.909 
-21.9202 
