-4.759 
n/a 
n/a 
n/a 
n/a 
-4.759 
n/a 
n/a 
n/a 
n/a 
-4.759 
n/a 
n/a 
n/a 
n/a 
-4.759 
n/a 
n/a 
n/a 
n/a 
-10.049 -1.934 -1.4985 -3.5455 -1.756 -9.2375 -1.934 -1.4985 -3.75 -1.756 -8.937 -1.934 -1.4985 -3.502 -1.756 -9.410501 -1.934 -1.4985 -3.641 -2.4945 -3.849 -4.518 -4.6195 0 
-12.179 -2.6125 -4.554 -5.364501 -12.0021 -12.0867 -2.6125 -4.8715 -5.1985 -10.862 -11.1415 -2.6125 -4.5955 -5.513 -10.862 -11.4935 -2.6125 -4.644 -6.763 -5.410501 -8.4575 -8.4545 -4.6195 
-12.8575 -5.298 -5.8465 -16.6558 -14.8513 -12.7652 -5.621 -5.991 -15.4503 -13.0665 -11.82 -5.258 -5.966001 -15.5146 -12.945 -12.172 -5.3205 -7.059 -9.477501 -10.2135 -12.1798 -8.4545 
-15.543 -6.4405 -17.2144 -19.505 -15.5298 -15.7737 -6.685 -16.293 -17.6548 -13.745 -14.4655 -6.465 -16.0656 -17.5976 -13.6235 -14.88 -7.373501 -9.977501 -14.3975 -14.1468 -12.1798 
-16.6855 -17.8114 -20.0636 -20.1835 -18.5383 -16.8377 -16.9816 -18.4975 -18.3333 -16.3905 -15.6725 -16.6598 -18.1486 -18.2761 -16.3315 -16.933 -10.2695 -14.9201 -18.3308 -14.1468 
-5.1875 -2.229 -3.5125 -3.644 0 -3.5455 -3.7575 -8.961 0 0 -3.75 -2.9825 -9.262501 0 0 -3.502 -3.7575 -10.7545 0 0 -3.641 -3.7575 -9.410501 0 
-7.694 -5.187 -7.1905 -3.644 -3.5455 -5.799001 -13.7609 -8.961 0 -3.75 -7.009 -13.3716 -9.262501 0 -3.502 -5.712 -15.5544 -10.7545 0 -3.641 -5.455501 -14.2104 -9.410501 
-10.7335 -8.542001 -7.1905 -7.4355 -5.799001 -16.4932 -13.7609 -8.961 -3.75 -7.009 -18.3839 -13.3716 -9.262501 -3.502 -5.712 -18.1947 -15.5544 -10.7545 -3.641 -5.455501 -16.651 -14.2104 
-14.0885 -8.542001 -11.141 -10.523 -16.4932 -16.4932 -13.7609 -13.3364 -7.009 -18.3839 -18.3839 -13.3716 -12.8989 -5.712 -18.1947 -18.1947 -15.5544 -14.3955 -5.455501 -16.651 -16.651 
-14.0885 -12.4949 -14.2285 -21.2172 -16.4932 -16.4932 -18.1363 -16.5954 -18.3839 -18.3839 -18.3839 -17.008 -15.1089 -18.1947 -18.1947 -18.1947 -19.1954 -16.21 -16.651 -16.651 
-3.5455 -4.295 -2.0935 -8.862 0 -3.75 -4.295 -2.0935 -9.262501 0 -3.502 -4.295 -2.0935 -10.0655 0 -3.641 -4.295 -2.0935 -9.410501 -4.508 0 
-7.837 -5.8775 -11.9465 -8.862 -3.75 -7.772 -5.8775 -12.347 -9.262501 -3.502 -7.3975 -5.8775 -13.15 -10.0655 -3.641 -7.405001 -5.8775 -12.495 -14.0675 -4.508 
-9.649 -16.1569 -11.9465 -12.8208 -7.772 -9.415501 -16.5574 -12.347 -12.8989 -7.3975 -9.266001 -17.3604 -13.15 -13.7709 -7.405001 -9.206501 -16.7054 -17.152 -14.0675 
-19.997 -16.1569 -15.9053 -16.8428 -9.415501 -20.1904 -16.5574 -15.9834 -16.7944 -9.266001 -20.7729 -17.3604 -16.8554 -17.5349 -9.206501 -20.0916 -21.3624 -17.152 
-19.997 -20.1157 -19.9273 -18.4863 -20.1904 -20.1904 -20.1938 -19.8789 -18.6629 -20.7729 -20.7729 -21.0658 -20.6194 -19.3364 -20.0916 -24.7486 -21.3624 
-3.5455 -3.9665 -8.862 -3.502 -3.9665 -10.0235 -3.75 -3.9665 -7.0275 -3.641 -9.410501 
-8.962 -13.8351 -12.5728 -9.1415 -14.9966 -13.8509 -8.606001 -12.0006 -11.1471 -14.2311 
-19.0206 -17.5459 -18.2123 -20.3632 -18.824 -18.7069 -16.8253 -16.1202 -21.7372 
-22.7314 -23.1854 -29.434 -24.1906 -23.68 -26.9262 -20.9449 -26.7103 
-28.3709 -34.4071 -33.2614 -29.0466 -31.8993 -31.0458 -31.535 
