-4.759 
n/a 
n/a 
n/a 
n/a 
-4.759 
n/a 
n/a 
n/a 
n/a 
-4.759 
n/a 
n/a 
n/a 
n/a 
-4.759 
n/a 
n/a 
n/a 
n/a 
-4.031 -4.0995 -2.3335 -2.186 -4.4715 0 -5.3365 -9.3065 -1.7695 -2.688 -4.088 0 -4.2465 -5.753 0 
-6.4225 -6.3075 -3.7085 -8.785501 -4.4715 -5.3365 -15.8408 -10.016 -4.698 -6.3835 -4.088 -4.2465 -9.01 -5.753 
-8.071 -7.6625 -9.514501 -8.785501 -9.654001 -15.8408 -16.5503 -13.9063 -7.2965 -6.3835 -7.570001 -9.01 -9.01 
-8.7075 -13.9501 -9.514501 -14.3304 -20.2851 -16.5503 -20.4406 -16.5048 -7.2965 -10.4565 -13.5927 -9.01 
-15.2009 -13.9501 -15.1888 -24.9615 -20.9946 -20.4406 -23.0391 -16.5048 -11.5951 -16.4792 -13.5927 
-5.882 -4.05 0 -7.54 -4.6385 0 -3.6065 -3.959 -4.3275 -3.152 -1.4985 -4.031 
-6.3015 -4.05 -7.54 -12.8061 -4.6385 -3.6065 -5.801001 -8.6695 -7.6095 -4.764 -4.771 
-6.3015 -12.6898 -12.8061 -12.8061 -9.126501 -5.801001 -10.3345 -12.1715 -9.114 -7.5335 
-15.8401 -17.9559 -12.8061 -17.2941 -11.4394 -10.3345 -13.8365 -13.676 -12.0027 
-21.1062 -17.9559 -17.2941 -19.607 -15.9729 -13.8365 -15.341 -16.5647 
-5.8205 -4.4715 0 -4.2465 -4.6045 -2.4945 -3.8175 -4.2895 -2.0935 -2.3615 
-7.0765 -4.4715 -4.2465 -10.6215 -6.695001 -6.2215 -6.794 -5.047 -3.854 
-7.0765 -7.771001 -10.6215 -12.712 -10.757 -8.449501 -7.2665 -5.996 
-10.6605 -15.7602 -12.712 -16.774 -12.985 -8.858001 -8.133 
-19.2923 -17.8507 -16.774 -19.002 -13.3935 -9.986501 
-2.4945 -1.4985 -3.535 -4.4125 -1.7695 -2.4265 
-3.9315 -4.255 -6.771 -6.660001 -4.524 
-5.984 -6.897 -9.3095 -9.793501 
-7.7655 -9.473001 -12.4904 
-10.4335 -12.6663 
