-4.759 
n/a 
n/a 
n/a 
n/a 
-4.759 
n/a 
n/a 
n/a 
n/a 
-4.759 
n/a 
n/a 
n/a 
n/a 
-4.759 
n/a 
n/a 
n/a 
n/a 
-1.7695 -4.737 -2.5045 -2.871 -2.7765 -2.9645 -1.8085 -5.728 -4.1575 0 -3.486 -4.228 0 -3.8945 -3.09 0 -2.4285 -2.9995 -3.264 -1.7565 -1.4985 -3.5965 -5.1745 -3.969 -3.2775 -2.5045 -6.143001 0 
-5.0625 -7.238 -4.7085 -4.952 -4.5195 -4.4315 -6.8605 -7.3885 -4.1575 -3.486 -4.8835 -4.228 -3.8945 -6.7035 -3.09 -2.4285 -4.345 -5.477 -3.6125 -2.4195 -4.746 -6.572001 -7.608001 -7.0595 -3.678 -6.7635 -3.6065 
-7.560501 -9.105 -6.711 -6.592 -5.8765 -8.387 -8.0675 -7.3885 -6.88 -4.8835 -4.8835 -6.983 -6.7035 -6.7035 -5.2345 -4.345 -6.896 -5.611 -5.2985 -5.778501 -8.347501 -7.6485 -9.8675 -7.111 -7.232501 -6.6325 
-9.42 -10.647 -9.0185 -7.7225 -9.961 -9.713501 -8.0675 -9.205 -9.14 -4.8835 -8.8645 -10.249 -6.7035 -9.534 -6.602 -6.896 -6.9375 -7.4925 -8.4825 -9.163501 -9.404501 -9.9775 -9.9025 -8.9755 -6.935 
-10.6475 -10.7245 -9.7095 -10.7175 -10.7215 -9.713501 -10.322 -9.830501 -9.14 -8.8645 -10.7575 -10.249 -9.534 -10.675 -9.972 -6.9375 -8.528001 -10.634 -10.7175 -10.3165 -10.7035 -10.023 -10.6695 -8.612 
-4.4715 -3.3255 -3.8925 -2.7275 -3.4155 -3.4625 -4.024 -1.756 -3.8935 -2.186 -3.2955 -1.934 -3.383 -3.6885 -4.197 
-7.019001 -7.9045 -7.008 -3.6065 -7.3195 -5.8035 -6.1295 -5.5145 -6.4445 -4.348001 -4.2285 -5.5185 -5.3195 -5.059 
-11.707 -11.3312 -7.4635 -7.772501 -7.7415 -7.573 -6.6855 -8.452001 -8.447001 -5.3545 -7.619 -7.026 -6.9075 
-15.1337 -11.7867 -12.5311 -8.054001 -9.662001 -8.2155 -8.861 -10.6079 -9.636001 -8.620501 -8.8335 -8.292 
-15.5892 -16.8543 -12.8126 -9.963501 -10.3495 -10.126 -11.1005 -11.7969 -13.2534 -9.818001 -9.934501 
-3.17 -5.73 -3.2955 -2.264 -3.563 -1.756 -3.8455 -4.617 
-10.6095 -9.632001 -5.16 -6.602 -5.293 -4.9575 -6.2985 
-14.5115 -11.6479 -8.992001 -8.3745 -5.4875 -7.474501 
-16.5274 -15.4799 -12.2257 -8.9145 -7.5725 
-20.3594 -18.7136 -12.7657 -10.3225 
-3.17 -1.7565 -3.1725 -4.5125 -1.756 -4.357 -2.186 -4.078 -1.7695 -4.861 
-4.179 -5.756001 -6.595 -6.12 -5.6465 -7.384501 -7.5205 -5.835 -6.835501 
-8.900001 -9.072001 -8.403 -6.2235 -8.434 -12.9612 -8.769001 -11.8054 
-12.6856 -10.3745 -8.5675 -9.061501 -14.1559 -14.2097 -15.008 
-13.9881 -10.714 -12.0685 -14.844 -15.4044 -20.4487 
