-4.759 
n/a 
n/a 
n/a 
n/a 
-4.759 
n/a 
n/a 
n/a 
n/a 
-4.759 
n/a 
n/a 
n/a 
n/a 
-4.759 
n/a 
n/a 
n/a 
n/a 

n/a 
n/a 
n/a 
n/a 
-3.0365 -2.4945 -4.8745 -2.5645 -3.594 -3.5795 -1.934 -2.3615 -3.452 0 
-3.688 -6.618001 -8.502501 -6.598001 -6.526 -5.5965 -3.539 -4.5465 -3.452 
-8.456501 -10.6052 -12.6714 -10.3605 -8.779 -7.079 -5.7115 -4.5465 
-12.6669 -14.7741 -16.4339 -12.9315 -10.7307 -9.179501 -5.7115 
-16.8358 -18.5366 -19.0049 -14.8832 -12.8312 -9.179501 
-11.0905 -11.0905 
-22.181 
n/a 
n/a 
n/a 
-12.16972 -11.0905 
-23.26022 
n/a 
n/a 
n/a 
