-4.759 
n/a 
n/a 
n/a 
n/a 
-4.759 
n/a 
n/a 
n/a 
n/a 
-4.759 
n/a 
n/a 
n/a 
n/a 
-4.759 
n/a 
n/a 
n/a 
n/a 
-5.0335 -3.571 -6.688 -2.229 -2.4945 -4.6935 
-8.834001 -10.7665 -9.5935 -5.159 -8.232 
-16.4395 -13.672 -12.5235 -10.7175 
-19.345 -16.602 -18.082 
-22.275 -22.1605 
-4.455 -4.7055 -4.3185 -2.8645 -8.647 
-9.842001 -8.4655 -6.816 -13.1145 
-14.0018 -11.6794 -17.33 
-17.2157 -22.1934 
-27.7297 
-3.0365 -2.7415 -5.359 -1.934 -1.4985 -6.688 -1.7565 -1.4985 -4.455 
-4.2225 -9.496 -7.1025 -2.6125 -8.413501 -9.221001 -2.4195 -5.262 
-11.9304 -11.4697 -7.778 -10.4425 -10.0375 -10.2045 -6.328001 
-13.9041 -12.1452 -16.0214 -12.0665 -11.16 -14.275 
-14.5796 -20.3886 -17.6454 -13.189 -15.2305 
-1.4985 -4.3185 -3.43 -2.3345 -6.478 -4.921 0 
-5.545 -7.84 -4.5865 -9.366501 -11.983 -4.921 
-9.1245 -9.0255 -12.1979 -15.0629 -11.983 
-10.4595 -16.7797 -17.8943 -15.0629 
-18.2137 -22.4761 -17.8943 
