-4.759 
n/a 
n/a 
n/a 
n/a 
-4.759 
n/a 
n/a 
n/a 
n/a 
-4.759 
n/a 
n/a 
n/a 
n/a 
-4.759 
n/a 
n/a 
n/a 
n/a 
-4.3685 -1.7695 -1.8085 -3.307 -1.7565 -4.969 -1.934 -3.9995 -4.125 
-6.599501 -3.41 -5.612 -4.8035 -7.155001 -6.714001 -5.127 -4.1335 
-8.7685 -7.313 -6.41 -9.193501 -8.434001 -8.9715 -5.154 
-12.8353 -7.956 -10.0535 -9.7285 -10.4105 -9.076 
-13.4783 -12.1667 -10.652 -10.4885 -10.4545 
-3.7825 -3.319 -1.7565 -9.705501 -1.7695 -2.5685 -3.473 
-7.942501 -4.165 -12.4112 -11.976 -4.2305 -6.485 
-8.510501 -15.6837 -14.6817 -14.437 -7.706 
-20.2492 -17.9542 -17.1427 -17.9125 
-22.5197 -20.4152 -20.6182 
-1.4985 -3.7825 -4.0885 -4.103 -2.4945 -2.5685 -3.891 -4.3035 -3.098 0 
-4.8035 -7.276 -8.351 -5.9515 -4.6335 -6.2465 -7.608001 -7.834001 -3.098 
-7.8735 -10.028 -10.27 -8.222 -8.6765 -10.048 -11.5069 -7.834001 
-10.041 -12.6354 -12.5405 -10.1305 -12.6368 -13.9469 -11.5069 
-12.7032 -14.9059 -14.449 -15.5408 -16.5357 -13.9469 

n/a 
n/a 
n/a 
n/a 
