-4.759 
n/a 
n/a 
n/a 
n/a 
-4.759 
n/a 
n/a 
n/a 
n/a 
-4.759 
n/a 
n/a 
n/a 
n/a 
-4.759 
n/a 
n/a 
n/a 
n/a 
-4.2445 -4.838 -2.8645 -3.43 -1.7695 -4.4305 -3.83 -4.1785 -3.2955 -2.0935 -6.9615 -4.9135 -1.756 -5.7625 -3.2955 -3.1495 -2.4945 -2.5685 -1.934 -3.44 -1.756 -3.6395 -3.2955 
-5.992 -7.6215 -4.9155 -4.647 -5.602 -9.1085 -6.259501 -7.2045 -4.307 -7.988501 -9.05 -6.451 -7.8135 -10.093 -6.2365 -4.459 -4.6335 -4.606 -5.547 -5.5375 -6.2985 -7.306 
-9.1265 -9.887501 -6.825 -8.765 -10.3035 -11.7628 -9.52 -8.1145 -9.079 -7.696 -7.4525 -13.5009 -12.8102 -13.2082 -7.632 -5.958 -6.195001 -8.759501 -6.916 -8.32 -10.0605 
-11.6569 -12.062 -11.2084 -13.7267 -12.9578 -15.0233 -10.5545 -13.5875 -9.6155 -9.229 -15.6015 -18.4976 -15.9254 -14.6037 -9.366 -7.9975 -9.803 -9.8225 -10.2941 -12.6648 
-13.8314 -16.4454 -16.1701 -16.381 -16.2183 -16.0578 -16.0275 -13.7285 -11.2705 -17.7757 -20.6334 -21.6128 -17.3209 -16.3377 -11.4273 -11.7177 -11.1188 -13.185 -14.6389 
-3.3035 -2.3335 -5.4245 -2.4945 -4.4715 -3.8225 0 -3.7015 -3.5025 -4.2445 -4.838 -4.4305 -6.486 -4.9845 -4.853 -6.9615 -4.9135 0 -6.9615 -4.9135 0 0 -5.7625 0 -3.115 -4.299 -4.9285 0 -3.45 -3.44 -1.756 -4.823 -2.8645 -3.535 -3.355 -1.756 -4.5115 0 
-5.148 -7.156 -8.804501 -5.7935 -8.042001 -3.8225 -3.7015 -7.127501 -8.8725 -5.992 -9.526501 -12.1115 -13.5865 -10.8025 -10.542 -9.05 -4.9135 -5.9715 -9.05 -4.9135 0 -5.7625 -5.7625 -3.115 -7.543 -9.234001 -4.9285 -3.45 -8.2625 -5.5375 -6.996 -7.0775 -7.9135 -6.408 -5.5415 -6.4135 -4.5115 
-10.4265 -11.414 -12.2287 -8.827001 -8.042001 -8.7545 -7.127501 -13.3831 -10.1555 -10.4505 -18.0355 -18.584 -20.0219 -17.1435 -11.286 -6.0635 -8.6485 -6.0635 -6.0635 -4.9135 -5.7625 -5.7625 -9.4335 -7.543 -13.04 -9.234001 -8.9235 -8.2625 -9.998 -9.8465 -10.181 -13.2745 -10.586 -8.324 -11.0526 -6.4135 
-14.8301 -14.8382 -15.2622 -8.827001 -13.4972 -12.3247 -13.3831 -14.6661 -15.0184 -19.8833 -24.029 -24.7154 -26.3629 -17.2355 -11.286 -8.6805 -8.863001 -6.0635 -6.0635 -7.081501 -5.7625 -9.4335 -14.0631 -13.04 -13.04 -13.2604 -13.883 -9.998 -14.675 -13.3861 -16.378 -15.947 -13.0344 -14.1171 -11.0526 
-18.2543 -17.8717 -15.2622 -14.4648 -17.0674 -18.5803 -14.6661 -19.529 -24.4512 -25.8768 -30.1604 -31.0564 -26.4549 -17.2355 -13.903 -8.908 -8.863001 -6.0635 -7.0825 -7.081501 -9.4335 -14.0631 -19.5601 -13.04 -17.0664 -18.2199 -15.6185 -14.675 -18.2146 -19.5831 -19.0505 -18.3954 -18.8275 -14.1171 
-4.6345 -4.414 -4.5115 -3.152 -4.4715 -3.8225 0 -3.7015 -4.2115 -2.4265 -2.742 -4.299 -4.2445 -7.102 -1.4985 -4.1035 -1.7565 -4.0595 -6.9615 -4.9135 -4.299 -2.742 -2.489 -3.768 0 -2.3615 -2.742 -4.299 -3.3425 -3.44 -1.756 -4.823 0 
-7.9505 -7.11 -6.670001 -6.2925 -8.042001 -3.8225 -3.7015 -8.436001 -6.8505 -4.095 -6.706 -9.062 -8.458 -7.9595 -5.0955 -5.0635 -5.726501 -10.397 -9.05 -7.8435 -6.9185 -3.301 -5.222 -3.768 -2.3615 -4.486 -6.706 -7.168 -6.538 -5.5375 -6.996 -4.823 
-10.443 -9.774 -9.277 -9.7885 -8.042001 -8.7545 -8.436001 -10.76 -8.438001 -8.1245 -12.1264 -11.915 -9.3865 -12.054 -5.2255 -9.643501 -10.9145 -9.043501 -7.869 -10.5865 -7.532001 -6.3075 -5.222 -6.0265 -4.486 -9.72 -9.683001 -10.8181 -7.7095 -9.8465 -6.996 
-13.107 -12.381 -12.9804 -9.7885 -13.4972 -13.6332 -10.76 -12.3475 -12.7231 -13.6477 -15.0882 -13.0598 -13.7953 -12.3108 -9.781 -14.9241 -10.9992 -10.801 -10.5885 -11.2 -10.543 -6.3075 -7.676001 -7.235 -9.72 -12.9156 -13.4225 -11.9896 -12.5207 -9.8465 
-15.714 -16.0844 -12.9804 -15.2925 -18.3759 -15.9572 -12.3475 -16.6326 -18.2463 -16.6095 -16.1242 -17.2832 -13.9819 -17.1359 -15.075 -14.9676 -13.7206 -14.4324 -11.199 -14.211 -10.543 -8.47 -9.193501 -12.985 -12.9156 -16.6551 -14.594 -16.8008 -12.5207 
-3.851 -1.7695 -5.684 -1.7565 -4.9125 -4.2445 -4.838 -4.0595 -4.1035 -4.4565 -1.7695 -6.9615 -4.9135 -2.7765 -4.285 -3.44 -1.756 -3.6395 0 
-4.0015 -7.0375 -7.072001 -6.572501 -8.992001 -5.992 -8.665001 -8.4275 -8.827501 -4.9325 -7.5205 -9.05 -7.9905 -6.248 -8.489 -5.5375 -6.2985 -3.6395 
-8.8265 -9.521 -12.3024 -11.0658 -11.6537 -10.218 -14.1568 -13.4653 -9.105501 -10.9215 -7.707 -9.1475 -11.9664 -11.4578 -10.411 -8.32 -6.2985 
-10.292 -14.9066 -16.7957 -13.7275 -15.8797 -15.8638 -19.1946 -13.7433 -14.5064 -10.1665 -10.7945 -13.4604 -17.1762 -13.3798 -13.1935 -8.32 
-15.8628 -19.3999 -19.4574 -17.9535 -21.5255 -20.9016 -19.4726 -19.1442 -14.5299 -13.0005 -14.9128 -18.6656 -19.0982 -16.1623 -13.1935 
