-4.759 
n/a 
n/a 
n/a 
n/a 
-4.759 
n/a 
n/a 
n/a 
n/a 
-4.759 
n/a 
n/a 
n/a 
n/a 
-4.759 
n/a 
n/a 
n/a 
n/a 
-3.115 -6.222 -4.983 -5.959 -4.969 -2.4945 -4.5485 -2.3345 -4.563 -7.686 
-9.480501 -9.546 -9.448 -9.1505 -6.285 -5.861 -5.4845 -7.3085 -13.4278 
-13.0505 -14.0284 -13.0221 -10.758 -8.2465 -6.673501 -10.292 -16.7243 
-17.5329 -17.6025 -14.6296 -12.7195 -9.004001 -11.6874 -19.7078 
-21.107 -19.21 -16.5911 -13.477 -14.0387 -21.1032 
-6.0755 -7.4535 -2.186 -8.064 -1.7695 -3.9335 -1.7565 -3.737 0 
-14.3534 -9.418 -11.4604 -9.951 -5.1355 -5.68 -5.1295 -3.737 
-16.3179 -18.8956 -13.3474 -13.871 -8.595 -9.415501 -5.1295 
-25.7955 -20.7826 -17.2674 -17.3305 -12.3731 -9.415501 
-27.6825 -24.7026 -20.7269 -21.1086 -12.3731 
-3.115 -5.072 -4.983 0 -1.4985 -5.959 -4.983 -2.4945 -3.074 -4.5485 -2.3345 -3.757 -1.7565 -4.3415 -4.896 
-8.2225 -6.574 -4.983 -1.4985 -6.8315 -10.523 -6.5395 -4.4205 -6.911 -5.4845 -5.1715 -4.742 -5.3895 -7.0385 
-9.307 -6.574 -6.8 -6.8315 -11.6667 -12.0795 -8.4175 -7.943001 -8.267 -8.1365 -5.1885 -8.55 -7.956 
-9.307 -8.0435 -12.4768 -11.6667 -13.2232 -13.9575 -12.2164 -8.857 -10.7175 -8.1505 -8.7205 -10.4035 
-11.0057 -13.9161 -17.312 -13.2232 -15.1012 -17.7564 -13.1304 -11.3399 -10.759 -11.8393 -10.4025 
-4.361 -4.591 -2.4945 -4.1675 -12.16972 -1.756 -4.7825 -4.91 -2.3615 
-10.703 -7.903 -7.965001 -17.99322 -13.92572 -6.1245 -9.765501 -6.781 
-14.015 -13.9159 -22.08952 -19.74922 -18.29422 -11.6135 -11.7163 
-20.0279 -28.04042 -23.84552 -24.11772 -23.78322 -13.5643 
-34.15242 -29.79642 -28.21402 -29.60672 -25.73402 
