-4.759 
n/a 
n/a 
n/a 
n/a 
-4.759 
n/a 
n/a 
n/a 
n/a 
-4.759 
n/a 
n/a 
n/a 
n/a 
-4.759 
n/a 
n/a 
n/a 
n/a 
-5.5065 -2.186 -4.521 -1.7695 -3.2345 -5.787 -4.9795 -4.9605 -1.7565 -4.889 -4.8115 -10.5895 
-7.553 -5.5885 -5.107 -3.713 -9.7875 -10.1415 -8.685 -5.512 -6.831501 -6.759501 -16.327 
-11.2581 -5.6205 -8.7005 -10.644 -15.6345 -14.7218 -9.607 -10.259 -8.8625 -19.0294 
-11.2901 -9.47 -15.8375 -16.2908 -20.25 -16.08 -14.509 -12.29 -21.2898 
-15.1396 -16.7262 -21.3495 -20.9063 -21.172 -20.982 -16.54 -24.7173 
-2.4265 -2.8645 -5.787 -7.7225 -5.438 -4.221 -1.7695 -2.3615 -2.871 
-4.1435 -8.941 -13.3102 -13.4851 -10.4505 -4.626 -3.736 -4.583 
-11.2855 -18.7143 -19.6424 -18.4976 -10.567 -7.123001 -6.06 
-20.3996 -24.6033 -24.6549 -18.6141 -13.064 -8.109501 
-26.1622 -29.6158 -24.7714 -21.1111 -14.0505 
-2.3615 -2.186 -4.221 -1.7695 -5.2185 -1.7565 -7.3595 -12.16972 -5.233 -7.460001 -1.7565 -5.438 -3.543 -3.6115 
-3.5005 -5.4275 -4.626 -7.392001 -6.474 -9.226001 -19.66762 -17.40272 -11.1415 -7.988501 -6.921501 -9.224501 -5.4165 
-7.4335 -5.4945 -10.66 -8.455001 -14.275 -21.67342 -25.20242 -23.31122 -11.67 -8.5015 -9.327001 -10.173 
-7.464 -12.6127 -11.723 -16.5446 -28.07772 -27.70922 -31.11092 -23.83972 -12.183 -10.1815 -10.1775 
-14.6278 -13.6757 -19.8126 -30.34732 -33.31072 -33.61772 -31.63942 -24.35272 -13.863 -10.33 
-2.3615 -2.186 -4.521 -1.7695 -5.8005 -5.787 -4.9795 -4.9605 -1.7565 -5.438 0 
-3.5005 -5.5885 -5.107 -7.934501 -12.0265 -10.1415 -8.685 -5.512 -6.921501 -5.438 
-6.4855 -5.6205 -10.1035 -14.4213 -17.5967 -14.7218 -9.607 -8.959001 -6.921501 
-6.502 -10.575 -16.7767 -19.9333 -22.2122 -16.08 -13.209 -8.959001 
-11.7697 -17.2482 -22.2887 -24.5488 -23.1342 -19.682 -13.209 
