-4.759 
n/a 
n/a 
n/a 
n/a 
-4.759 
n/a 
n/a 
n/a 
n/a 
-4.759 
n/a 
n/a 
n/a 
n/a 
-4.759 
n/a 
n/a 
n/a 
n/a 
-4.3475 -2.186 -3.0835 -3.2955 -1.934 -3.8735 0 
-6.3855 -5.597 -6.145 -4.2285 -4.885 -3.8735 
-9.980501 -7.51 -6.9305 -7.6775 -4.885 
-11.8935 -8.2925 -9.47 -7.6775 
-12.676 -11.3314 -9.47 
-3.264 0 -4.3475 0 -2.186 -5.5035 -3.2955 -1.934 -3.8735 0 
-3.264 -4.3475 -4.3475 -2.186 -7.374001 -8.745001 -4.2285 -4.885 -3.8735 
-7.2745 -4.3475 -6.3855 -7.374001 -9.4735 -9.567 -7.6775 -4.885 
-7.2745 -6.3855 -12.1291 -9.4735 -10.4605 -13.0184 -7.6775 
-8.461 -12.1291 -14.2286 -10.4605 -13.9119 -13.0184 
-4.3475 -3.264 -2.186 -3.2955 -3.0835 -1.934 -3.8735 
-7.487 -5.153501 -4.348001 -6.7045 -5.265 -4.885 
-9.163 -6.991 -7.7895 -8.279 -8.279 
-11.2357 -10.018 -9.2095 -11.3658 
-14.2627 -12.0146 -12.5117 
-3.0835 -1.7565 -2.5685 -1.4985 -4.3475 -4.339 -2.7415 -4.4895 -1.934 -3.8735 -3.098 0 
-4.9645 -3.938 -3.7015 -5.861501 -7.465 -6.418 -5.4595 -5.366 -4.885 -7.3735 -3.098 
-5.325 -4.8455 -8.512501 -9.564501 -10.259 -7.9595 -6.0625 -8.194 -7.8135 -7.3735 
-6.3565 -9.2735 -12.4897 -12.5931 -11.9915 -8.515 -8.910501 -10.5325 -7.8135 
-10.5635 -13.5765 -15.5183 -14.3256 -12.547 -11.495 -11.4212 -10.5325 
