-4.759 
n/a 
n/a 
n/a 
n/a 
-4.759 
n/a 
n/a 
n/a 
n/a 
-4.759 
n/a 
n/a 
n/a 
n/a 
-4.759 
n/a 
n/a 
n/a 
n/a 
-3.135 -6.9515 -2.4945 -3.2955 -1.7695 -3.8905 -5.728 -4.3655 -1.934 -7.296 
-9.620001 -8.8085 -4.6305 -3.9425 -4.6555 -9.9615 -11.0049 -5.9055 -9.8695 
-10.4875 -11.0751 -5.1225 -6.677 -10.9043 -15.639 -12.5449 -14.6034 
-13.1103 -11.5671 -8.049001 -13.1332 -16.5818 -17.179 -21.2428 
-13.6023 -14.4936 -15.1528 -18.8107 -18.1218 -25.8769 
-1.934 -5.003 -3.135 -4.468 -2.742 -2.489 -4.7135 -4.942 
-7.2845 -8.382 -7.266 -6.474501 -3.301 -6.521501 -7.375 
-10.4185 -12.7706 -9.005 -7.0235 -7.296 -9.265501 
-14.8071 -14.5096 -9.47 -11.3713 -10.2805 
-16.5461 -14.9746 -14.1236 -14.3558 
-1.934 -5.003 0 -3.135 -6.9515 -3.2955 -1.7695 -3.6785 -4.2895 -2.9195 0 
-7.2845 -5.003 -3.135 -9.620001 -9.749001 -3.9425 -4.268 -8.033501 -7.142 -2.9195 
-7.2845 -8.382 -9.620001 -12.5015 -10.2515 -6.255 -8.809001 -11.3556 -7.142 
-10.4185 -15.1246 -12.5015 -13.004 -12.564 -10.1185 -12.1559 -11.3556 
-17.1611 -18.0061 -13.004 -15.3165 -16.4275 -13.688 -12.1559 
-1.934 -4.3285 -3.135 -3.9355 -3.6845 -3.3715 -4.447 -2.9195 0 
-6.1585 -7.686501 -6.3365 -7.4475 -7.117001 -8.262501 -6.5075 -2.9195 
-9.645 -10.016 -9.807001 -11.2406 -12.44 -10.8924 -6.5075 
-11.9425 -13.4865 -14.0067 -16.5636 -15.0699 -10.8924 
-15.413 -17.6862 -19.3297 -19.1935 -15.0699 
