-4.759 
n/a 
n/a 
n/a 
n/a 
-4.759 
n/a 
n/a 
n/a 
n/a 
-4.759 
n/a 
n/a 
n/a 
n/a 
-4.759 
n/a 
n/a 
n/a 
n/a 
-3.4975 -2.229 -3.115 -4.294 0 -2.6165 -4.366 0 
-6.219 -5.1225 -7.019001 -4.294 -2.6165 -8.030001 -4.366 
-8.926001 -9.302 -7.019001 -7.529 -8.030001 -8.030001 
-13.4173 -9.302 -9.732 -9.512 -8.030001 
-13.4173 -12.1564 -11.759 -9.512 
-3.676 -2.229 -4.138 -1.7565 -4.366 -4.221 -1.7695 -4.294 -4.6495 -1.7565 -4.9225 0 
-4.593 -6.438 -5.1845 -5.715 -8.681 -4.626 -6.739501 -9.8545 -6.189001 -6.4125 -4.9225 
-9.767 -8.471001 -10.4544 -9.788501 -10.368 -10.733 -12.6846 -11.5886 -9.896501 -6.4125 
-12.1816 -13.7717 -14.5279 -12.0289 -16.475 -16.6781 -14.4187 -15.2961 -9.896501 
-17.4823 -17.8452 -16.7683 -18.1359 -22.4201 -18.4122 -18.1262 -15.2961 
-4.3665 -3.857 -4.294 -3.2295 -4.366 0 
-7.841001 -8.728001 -7.8385 -6.9965 -4.366 
-13.1016 -10.4675 -9.5675 -6.9965 
-14.8411 -12.1965 -9.5675 
-16.5701 -12.1965 
-4.3665 -3.115 -3.17 -4.294 -4.0745 -1.7695 -4.366 0 
-7.028501 -5.534 -7.938 -9.084001 -5.6095 -6.638501 -4.366 
-9.209001 -9.751501 -13.1974 -10.419 -11.0787 -6.638501 
-13.6171 -15.0413 -14.5324 -15.8882 -11.0787 
-18.9069 -16.3763 -20.0016 -15.8882 
