-4.759 
n/a 
n/a 
n/a 
n/a 
-4.759 
n/a 
n/a 
n/a 
n/a 
-4.759 
n/a 
n/a 
n/a 
n/a 
-4.759 
n/a 
n/a 
n/a 
n/a 
-2.3345 -5.3525 -4.6945 -1.7565 -4.9375 -1.7565 -3.972 -2.925 -4.554 -2.3335 -3.7075 -5.1835 -3.1435 -3.9785 -3.7515 0 
-6.903501 -10.1995 -6.384501 -6.199501 -5.944 -5.8405 -6.981 -7.4865 -6.607 -6.679 -8.966001 -8.003 -7.1125 -6.294 -3.7515 
-12.2119 -12.8973 -11.4823 -6.948 -9.3615 -8.5255 -11.7941 -8.1895 -11.3833 -12.5959 -12.3487 -12.4634 -9.0795 -6.294 
-14.9097 -17.9951 -12.2308 -10.9211 -12.2379 -13.4158 -12.4971 -13.0654 -17.3002 -15.9786 -16.8091 -14.4304 -9.0795 
-20.0075 -18.7436 -16.2039 -13.7975 -17.1282 -14.1188 -17.373 -18.9823 -20.6829 -20.439 -18.7761 -14.4304 
-1.7695 -3.2345 -1.4985 -3.326 -1.7565 -3.3435 -4.9375 -1.7565 -4.335 -1.7565 -3.972 -3.264 -1.4985 -3.7075 -2.8645 -1.4985 -3.9785 -3.7515 
-3.713 -4.328 -4.841001 -5.826 -4.4105 -9.51 -5.944 -5.117 -4.436 -5.8405 -7.9915 -4.4645 -4.6235 -6.4255 -4.3545 -4.496 -6.294 
-4.717 -8.037001 -6.5605 -9.262 -10.7595 -10.3905 -10.1521 -5.1925 -7.8075 -9.3205 -9.3205 -7.9205 -6.809501 -8.0965 -8.393001 -7.3835 
-8.3 -9.948 -9.922501 -15.789 -11.64 -14.9028 -10.2276 -8.2775 -11.7333 -10.75 -12.8309 -9.559501 -8.771501 -12.4958 -10.354 
-10.2805 -13.3828 -16.4737 -16.6695 -16.1523 -14.9783 -13.3126 -12.4219 -13.1628 -14.2604 -14.4699 -11.7533 -13.312 -14.4568 
-3.0415 -3.3715 -4.7295 -4.969 -1.934 -9.442 0 -2.3335 -2.4945 -1.934 -3.3435 -4.4695 -3.321 -2.7295 -3.581 -4.2635 -1.4985 -3.7515 -1.7565 -3.7075 0 
-4.5985 -8.5965 -6.7685 -6.127501 -12.3824 -9.442 -2.3335 -3.947 -4.2645 -5.009501 -8.022501 -7.455 -4.911 -7.683001 -9.1435 -4.9175 -4.705501 -4.6045 -5.7275 -3.7075 
-9.4925 -9.555 -7.889 -17.2927 -12.3824 -11.9587 -3.947 -5.6445 -7.494 -10.1765 -11.3966 -9.036 -9.7605 -13.6813 -10.0485 -8.491501 -4.844501 -9.3215 -5.7275 
-10.734 -10.7929 -19.4126 -17.2927 -14.8991 -13.5722 -5.6445 -9.932501 -13.0034 -13.8436 -12.9776 -13.8467 -15.9344 -14.5863 -13.8567 -8.894 -10.2695 -9.3215 
-11.9719 -22.3165 -19.4126 -19.8094 -16.5126 -15.2697 -9.932501 -15.6419 -16.6705 -15.4246 -17.7883 -20.0206 -16.8394 -18.3945 -14.2592 -14.7464 -10.2695 
-3.833 -1.7565 -3.948 -3.972 -4.4615 -2.3335 -1.4985 -3.7075 -2.8645 -5.1835 -3.957 -1.7565 -3.1435 -3.3435 -4.359 0 
-5.1895 -5.05 -8.130501 -8.658501 -4.959 -3.3515 -4.6235 -6.4255 -6.825 -8.929501 -4.676 -4.124 -6.169 -5.284 -4.359 
-7.799 -9.000001 -13.3264 -9.054 -5.3645 -6.584 -6.809501 -9.797001 -10.254 -9.810501 -6.599 -6.732501 -6.984 -5.284 
-11.9178 -14.2941 -13.7219 -9.6415 -9.223001 -7.943 -9.8065 -13.6938 -11.135 -11.8307 -9.0085 -7.617001 -6.984 
-17.2119 -14.6896 -14.3094 -13.6098 -10.5435 -11.178 -13.7129 -14.5748 -13.1552 -14.2402 -10.2085 -7.617001 
