-4.759 
n/a 
n/a 
n/a 
n/a 
-4.759 
n/a 
n/a 
n/a 
n/a 
-4.759 
n/a 
n/a 
n/a 
n/a 
-4.759 
n/a 
n/a 
n/a 
n/a 
-1.4985 -5.603 -2.4945 -3.115 -4.1805 0 -4.0045 0 -2.915 -3.433 0 -4.216 -1.934 -2.3615 -3.59 0 
-7.476501 -7.285501 -5.505 -7.947001 -4.1805 -4.0045 -4.0045 -2.915 -4.682 -3.433 -4.216 -6.4675 -3.539 -5.0215 -3.59 
-9.0085 -10.7025 -10.7242 -7.947001 -7.512 -4.0045 -6.563001 -4.682 -4.682 -7.5815 -6.4675 -8.1825 -5.3335 -5.0215 
-12.4743 -15.9217 -10.7242 -10.411 -7.512 -6.563001 -7.81 -4.682 -8.907001 -9.366 -8.1825 -9.2875 -5.3335 
-17.6935 -15.9217 -13.1882 -10.411 -9.828 -7.81 -7.81 -8.907001 -10.8583 -11.622 -9.2875 -9.2875 
-3.691 -2.229 -4.247 -2.264 -4.076 0 -5.394 0 -2.915 -3.433 -4.834 -4.668 -1.756 -4.47 0 -4.682 -4.712 -3.6005 
-5.0855 -6.1785 -6.8525 -6.308001 -4.076 -5.394 -5.394 -2.915 -4.682 -8.867001 -9.83 -6.7325 -5.3405 -4.47 -4.682 -9.1 -7.400001 
-8.679001 -8.885 -10.264 -6.308001 -8.404501 -5.394 -7.619 -4.682 -10.848 -14.3618 -12.1769 -10.523 -5.3405 -9.047001 -9.1 -12.1104 
-11.5839 -12.4095 -10.264 -11.3655 -8.404501 -7.619 -8.579 -10.848 -16.3428 -16.7087 -15.9674 -10.523 -10.2639 -13.9576 -12.1104 
-15.1084 -12.4095 -15.3215 -11.3655 -11.1359 -8.579 -15.1414 -16.3428 -18.6897 -20.4992 -15.9674 -15.4464 -15.1745 -16.968 
-3.691 -5.6855 -3.9035 -5.6855 0 -4.784 0 -3.5025 -1.934 -1.4985 -2.5685 -2.9645 -1.7565 -1.4985 -5.6855 0 
-8.976001 -9.7845 -10.4855 -5.6855 -4.784 -4.784 -3.5025 -5.7415 -2.6125 -4.907001 -6.115 -3.7825 -2.4195 -7.198 -5.6855 
-14.0592 -16.5175 -10.4855 -10.155 -4.784 -7.372001 -5.7415 -6.5445 -5.379001 -9.5065 -6.713 -4.56 -7.983001 -7.198 
-20.7922 -16.5175 -14.955 -10.155 -7.372001 -10.4185 -6.5445 -10.7575 -11.0337 -10.648 -7.1655 -10.6095 -7.983001 
-20.7922 -20.987 -14.955 -12.9316 -10.4185 -11.2215 -10.7575 -16.4122 -12.1752 -11.1005 -13.918 -10.6095 
-3.691 -2.229 -5.603 -2.4945 -4.1805 0 -5.394 0 -2.915 -3.433 -2.4945 -3.859 -4.668 -1.756 -4.47 -3.3235 -1.756 -4.09 -2.7835 -3.989 
-5.0855 -8.2305 -7.285501 -7.729001 -4.1805 -5.394 -5.394 -2.915 -4.682 -6.1775 -7.303 -8.996 -6.7325 -5.3405 -7.836 -5.0535 -5.5625 -7.204 -5.509 
-12.1754 -9.5255 -12.9582 -7.729001 -8.5295 -5.394 -7.619 -4.682 -7.645 -11.5088 -13.0164 -11.5583 -10.523 -8.8975 -8.943001 -9.081 -8.861501 -9.322001 
-13.4704 -15.3796 -12.9582 -12.5018 -8.5295 -7.619 -8.579 -7.645 -13.2417 -17.2222 -15.5787 -15.3488 -14.08 -10.4185 -13.0895 -12.6286 -11.0475 
-19.3245 -15.3796 -17.731 -12.5018 -9.995 -8.579 -11.9384 -13.2417 -18.9551 -19.7845 -19.3692 -18.9058 -15.601 -14.565 -16.6371 -14.8146 
