-4.759 
n/a 
n/a 
n/a 
n/a 
-4.759 
n/a 
n/a 
n/a 
n/a 
-4.759 
n/a 
n/a 
n/a 
n/a 
-4.759 
n/a 
n/a 
n/a 
n/a 
-12.16972 -4.5845 -4.4525 -3.074 -4.467 -1.934 -12.16972 -4.176 
-16.75422 -9.0485 -7.902 -7.183001 -5.57 -15.11012 -16.34572 
-21.21822 -12.7332 -12.3976 -7.8155 -19.61192 -19.28612 
-24.90292 -17.2288 -13.0301 -22.07362 -23.78792 
-29.39852 -17.8613 -27.28822 -26.24962 
-7.4885 -4.5845 -4.4525 -2.186 -3.8055 -2.264 -3.1435 -4.176 -3.6245 
-12.7002 -9.0485 -6.1875 -5.751 -5.0265 -4.6705 -7.324 -8.0185 
-17.1642 -10.249 -9.605501 -6.55 -7.660501 -8.715 -11.6721 
-18.3647 -13.999 -10.384 -9.058001 -11.9746 -13.1119 
-22.1147 -14.7775 -12.9954 -13.6937 -16.3715 
-1.4985 -4.4525 -1.7565 -7.4885 0 -1.4985 -4.5845 0 -2.7415 -5.5325 -2.264 -2.985 -4.5645 0 
-5.514 -5.591001 -9.320001 -7.4885 -1.4985 -5.802501 -4.5845 -2.7415 -7.619 -6.659 -4.3835 -7.507 -4.5645 
-6.323 -13.9543 -9.320001 -8.967 -5.802501 -5.802501 -7.093 -7.619 -8.39 -8.762 -8.97 -7.507 
-14.8027 -13.9543 -10.1685 -13.55 -5.802501 -7.973001 -12.3435 -8.39 -10.3885 -13.5991 -8.97 
-14.8027 -14.8028 -14.9861 -13.55 -7.973001 -13.3051 -13.1145 -10.3885 -15.2256 -13.5991 
-6.864 -2.229 -4.761 -4.5845 -2.186 -4.467 -2.264 -2.985 -4.5645 -3.6245 
-8.205501 -7.528 -9.786501 -6.660501 -5.8915 -5.482 -4.3835 -7.507 -8.561001 
-14.3867 -12.8487 -12.2535 -10.5035 -6.4155 -7.882 -8.97 -10.426 
-19.7074 -15.3157 -16.0965 -11.0275 -9.2305 -12.8339 -11.961 
-22.1744 -19.1587 -16.6205 -13.8425 -14.2626 -15.8249 
