-4.759 
n/a 
n/a 
n/a 
n/a 
-4.759 
n/a 
n/a 
n/a 
n/a 
-4.759 
n/a 
n/a 
n/a 
n/a 
-4.759 
n/a 
n/a 
n/a 
n/a 
-3.091 -3.3975 -3.402 -2.264 -3.3195 
-5.146 -6.526501 -3.793 -5.974 
-9.111 -7.427001 -8.01 
-9.293 -12.0598 
-14.1466 
-3.091 -3.3975 -5.0075 -1.7695 -3.3195 
-5.146 -7.969501 -5.113 -5.453001 
-9.4455 -8.037001 -8.719001 
-9.4915 -12.3352 
-14.0187 
-3.091 -3.3975 -3.074 -3.4635 -1.7695 -3.3195 
-5.146 -6.746 -6.531 -4.2045 -5.453001 
-7.9445 -10.27 -6.7485 -7.575 
-11.5981 -10.552 -10.634 
-11.8801 -14.4375 
-3.091 -3.3975 -2.8645 -4.405 -3.941 
-5.146 -5.872001 -7.989501 -7.283 
-7.1665 -10.6215 -10.0745 
-12.178 -12.7065 
-14.263 
