-4.759 
n/a 
n/a 
n/a 
n/a 
-4.759 
n/a 
n/a 
n/a 
n/a 
-4.759 
n/a 
n/a 
n/a 
n/a 
-4.759 
n/a 
n/a 
n/a 
n/a 
-2.3345 -3.3425 -1.4985 -4.076 -3.913 0 -4.304 -3.7075 0 0 -3.994 -1.7565 -3.64 -2.4945 -3.8755 0 -3.047 -6.0635 -2.0935 -2.645 0 
-4.554 -4.0125 -5.641001 -7.263 -3.913 -4.304 -8.1285 -3.7075 0 -3.994 -5.113 -5.468 -5.508 -5.463 -3.8755 -3.047 -9.4975 -8.931001 -3.883 -2.645 
-5.1225 -8.8335 -8.594001 -7.263 -7.933 -8.1285 -8.1285 -3.7075 -3.994 -5.113 -9.024 -7.8875 -7.63 -5.463 -7.259501 -9.4975 -12.5992 -10.533 -3.883 
-10.0775 -11.9801 -8.594001 -12.2042 -10.4425 -8.1285 -8.1285 -8.822001 -5.113 -9.024 -11.8657 -10.142 -7.63 -8.632 -14.0738 -12.5992 -14.2012 -10.533 
-13.2241 -11.9801 -13.7538 -14.7137 -10.4425 -8.1285 -13.5462 -9.5495 -9.024 -11.8657 -14.1202 -10.142 -11.187 -15.6329 -17.1755 -14.2012 -14.2012 
-4.267 -3.866 -2.186 -3.776 -3.8235 -3.866 -1.756 -5.2125 -3.737 -6.0635 
-9.2665 -5.582 -6.1405 -7.042001 -6.2875 -5.4345 -6.5155 -8.514 -10.9739 
-11.1149 -8.8985 -10.6535 -10.3304 -7.7965 -11.2568 -9.68 -16.2749 
-14.4314 -14.0013 -13.9419 -11.8394 -14.114 -14.4213 -17.4795 
-19.5342 -17.2897 -15.4509 -18.1569 -17.2785 -22.2208 
0 -4.6905 -3.7075 0 -2.186 -4.015 -4.763 0 -2.645 -3.047 -6.0635 0 0 
-4.6905 -8.4235 -3.7075 -2.186 -7.1225 -8.085501 -4.763 -2.645 -5.226 -9.4975 -6.0635 0 
-8.4235 -8.4235 -5.196 -7.1225 -11.892 -8.085501 -7.791 -5.226 -12.8731 -9.4975 -6.0635 
-8.4235 -10.082 -9.992001 -11.892 -11.892 -11.6381 -10.7242 -12.8731 -12.8731 -9.4975 
-10.082 -14.878 -14.8705 -11.892 -15.4446 -14.5713 -18.3713 -12.8731 -12.8731 
-1.4985 -5.1375 -2.4945 -4.256 -2.356 -1.4985 -3.0785 -1.7565 -1.8085 -3.4865 -3.3775 -3.849 0 -4.6905 -3.3755 0 0 -2.0935 -2.645 -3.509 -3.047 -6.0635 0 
-6.425 -6.669001 -5.569 -5.265 -3.1615 -4.779 -5.1815 -3.2595 -4.572001 -6.946 -7.381 -3.849 -4.6905 -9.412001 -3.3755 0 -2.0935 -3.883 -4.5505 -5.539001 -9.4975 -6.0635 
-7.653501 -9.596001 -6.684 -5.753 -5.297501 -5.2205 -6.0835 -6.0475 -7.434501 -9.543501 -7.381 -8.4735 -9.412001 -9.412001 -3.3755 -2.0935 -3.883 -5.042 -6.337 -12.5215 -9.4975 
-10.403 -10.577 -7.252501 -9.311 -5.3145 -6.108 -8.3465 -9.372001 -9.668501 -9.543501 -12.3335 -13.3074 -9.412001 -9.412001 -4.9855 -3.883 -5.042 -6.422501 -13.3353 -12.5215 
-11.56 -11.1455 -9.9855 -9.374001 -6.228001 -8.368 -11.8322 -11.7004 -9.668501 -14.8134 -17.1674 -13.3074 -9.412001 -10.9736 -7.027 -5.042 -6.422501 -13.4388 -13.3353 
