-4.759 
n/a 
n/a 
n/a 
n/a 
-4.759 
n/a 
n/a 
n/a 
n/a 
-4.759 
n/a 
n/a 
n/a 
n/a 
-4.759 
n/a 
n/a 
n/a 
n/a 
-4.4715 -4.1455 -3.8315 -4.916 -2.186 -5.589 -1.7695 -2.998 -4.3225 -3.949 
-6.271 -6.422501 -7.5635 -6.886001 -7.9585 -7.657001 -5.084 -6.245501 -6.967501 
-10.688 -8.342001 -8.698501 -13.175 -10.8395 -9.7215 -7.6285 -8.8655 
-12.6075 -9.726001 -15.5041 -15.457 -12.1055 -11.791 -10.328 
-13.9915 -16.6672 -17.7861 -17.1515 -14.8687 -15.1997 
-1.934 -3.3785 -1.4985 -5.0295 -4.2715 -5.589 -1.7695 -2.998 -6.499 -1.934 -3.949 0 
-4.5895 -5.409 -6.0815 -9.342 -9.334001 -7.657001 -5.084 -8.151001 -7.6725 -5.4275 -3.949 
-5.5825 -10.6875 -10.7684 -14.5737 -11.9055 -9.7215 -8.925501 -9.210001 -8.453 -5.4275 
-11.0282 -15.3744 -16.0001 -17.7158 -14.0316 -12.9365 -9.951 -9.904501 -8.453 
-15.7151 -20.6061 -19.1422 -19.4103 -17.9403 -14.4192 -10.439 -9.904501 
-4.4715 -4.7935 -1.8085 -3.6385 -3.7875 -5.589 0 -2.998 -4.3225 -5.0295 
-8.385 -7.1295 -4.581 -7.028 -9.950001 -5.08 -2.998 -6.245501 -8.6155 
-10.66 -9.894001 -7.737 -14.1484 -10.5865 -7.161 -6.245501 -11.1125 
-13.4245 -13.195 -15.1232 -14.1484 -12.6675 -10.485 -11.1125 
-16.7255 -20.5812 -15.1232 -16.2294 -15.9915 -15.984 
-4.251 -6.041 -3.8015 -5.589 -1.7695 -2.998 -4.3225 -3.949 0 
-10.2645 -9.887501 -9.177 -7.657001 -5.084 -6.245501 -6.967501 -3.949 
-14.9188 -15.5063 -12.003 -9.7215 -7.6285 -8.8655 -6.967501 
-20.5376 -18.4588 -13.9395 -11.791 -10.328 -8.8655 
-23.4901 -20.1533 -16.7027 -15.1997 -10.328 
