-4.759 
n/a 
n/a 
n/a 
n/a 
-4.759 
n/a 
n/a 
n/a 
n/a 
-4.759 
n/a 
n/a 
n/a 
n/a 
-4.759 
n/a 
n/a 
n/a 
n/a 
-3.433 -1.7565 -1.4985 -2.688 -4.582 -1.7695 -4.081 -3.8275 -1.7695 -2.664 -3.498 -1.756 -1.4985 -5.8085 -3.519 -1.7565 -4.676 -4.5485 -4.39 -2.5685 -4.172 -1.4985 -3.959 -3.7115 -1.7695 -1.8085 -3.8275 -3.2615 -2.9965 -3.277 
-4.1845 -2.4195 -3.702 -7.1385 -6.1495 -4.517 -7.997001 -5.9455 -4.185 -5.1155 -5.389 -3.0405 -7.006001 -9.555 -4.4175 -6.110001 -6.076 -9.3995 -7.047501 -7.1955 -5.360001 -5.5 -7.797 -6.8535 -3.41 -5.421 -6.7565 -6.147 -4.8715 
-4.6515 -4.636 -7.962 -8.468 -8.802 -8.417001 -8.632501 -7.8395 -5.6315 -6.6095 -6.453 -8.397 -10.586 -9.878 -8.877001 -7.695001 -9.715 -12.1602 -12.3987 -8.998501 -9.617001 -9.948001 -11.4076 -8.0175 -7.1085 -8.527 -10.044 -6.5105 
-7.034 -8.723001 -9.814 -11.3837 -12.9338 -9.2165 -9.938001 -7.974 -6.7305 -7.485 -12.0793 -12.035 -10.7685 -14.3375 -10.754 -11.5874 -12.5269 -17.5114 -14.2017 -13.3227 -14.2902 -13.5568 -12.5716 -12.0404 -10.203 -12.0673 -10.321 
-11.2218 -10.609 -12.8263 -15.5155 -13.7333 -10.204 -9.963 -9 -7.579 -13.2573 -15.7173 -12.2175 -15.228 -16.2145 -14.6464 -14.3993 -17.8781 -19.3144 -18.5259 -17.9959 -17.899 -14.7208 -16.5945 -15.1349 -13.9901 -12.3443 
-1.4985 -3.8675 -1.7695 -3.498 -1.4985 -3.8275 -1.756 -9.825001 -3.6045 -1.7565 -1.4985 -2.688 -3.959 -2.4945 -1.4985 -4.031 -2.0935 -1.4985 -3.819 -3.693 -3.188 -3.8275 
-4.976 -5.071 -4.8045 -5.105 -4.726 -5.1855 -12.5896 -13.8299 -4.455 -2.4195 -3.702 -6.815001 -5.624 -3.9315 -4.771 -4.8935 -2.9725 -6.05 -4.852 -7.54 -4.801 
-6.2205 -7.832 -5.6915 -6.6675 -6.0755 -17.0343 -16.5945 -14.6804 -5.1925 -4.636 -8.018 -8.503 -7.361 -6.614 -5.3855 -5.596 -7.609001 -8.210501 -8.769501 -9.1805 
-9.0985 -8.2295 -6.898 -7.83 -18.1735 -21.0392 -17.445 -15.4179 -7.8085 -8.624001 -9.4445 -10.6215 -10.3095 -7.535 -5.895 -10.6735 -9.574 -12.1946 -10.3475 
-9.406 -9.2945 -8.001 -20.2862 -22.1784 -21.8897 -18.1825 -18.0339 -11.9027 -10.228 -11.6098 -13.57 -11.2305 -8.024501 -11.0913 -12.6385 -13.6241 -13.7726 
-3.498 -1.7565 -3.8275 -3.7855 -1.4985 -3.8675 -1.7695 -3.737 -3.59 -2.9965 -3.277 -3.2615 -3.693 -3.5185 -2.871 -3.8275 0 
-4.005 -4.8265 -8.015 -4.709001 -4.976 -5.071 -5.321 -8.005501 -7.5625 -4.8715 -5.1005 -7.6055 -7.639501 -5.7235 -7.3665 -3.8275 
-7.543 -8.858001 -8.4405 -8.764501 -6.2205 -9.5845 -9.956 -12.5014 -8.897 -6.6955 -10.0675 -11.9158 -10.4035 -10.9934 -7.3665 
-11.8189 -9.381001 -12.577 -10.361 -10.962 -14.6045 -14.7373 -13.8359 -10.0035 -12.0491 -14.3778 -14.6798 -15.6734 -10.9934 
-12.3419 -13.5175 -14.1735 -15.1025 -15.982 -19.3858 -16.0718 -14.9424 -15.6907 -16.3594 -17.1418 -19.9497 -15.6734 
-1.4985 -3.8675 -3.251 -4.518 -3.9225 -1.4985 -3.959 -1.756 -4.676 -3.8755 -5.192 -3.959 -1.934 -3.333 -1.7695 -4.081 -1.7695 -2.664 -3.498 -1.7695 -3.8055 -2.664 -3.498 -1.7695 -1.4985 -3.8275 -3.251 -4.8635 -3.571 -3.8275 -3.2615 -2.9965 -3.277 0 
-4.976 -7.056 -6.1035 -7.841001 -4.463 -5.5 -5.173 -6.3745 -5.776 -9.285501 -8.053 -5.2625 -3.9835 -4.022 -4.517 -5.434 -4.185 -5.1155 -5.0505 -4.5215 -5.757 -5.1155 -5.0505 -2.7955 -4.726 -6.6365 -6.8455 -9.5585 -6.8715 -6.7565 -6.147 -4.8715 -3.277 
-7.779 -10.0285 -10.6095 -8.190001 -7.142 -6.985 -9.02 -7.7735 -11.3776 -12.3945 -9.1195 -7.0315 -4.0425 -6.221 -5.9315 -7.361501 -5.6315 -5.5875 -7.6745 -6.2665 -6.087501 -5.5875 -5.871 -6.153 -7.053 -9.352 -11.7405 -12.859 -9.432 -10.044 -6.5105 -4.8715 
-10.621 -14.6165 -10.9585 -10.476 -8.592 -11.2316 -11.1622 -13.7087 -14.4866 -13.461 -11.2207 -7.057 -6.2315 -7.978001 -7.823501 -7.588 -7.652501 -9.363501 -9.8275 -6.515501 -6.0965 -6.119 -7.356501 -8.954 -9.8585 -14.5976 -15.041 -15.4195 -12.8185 -10.321 -6.5105 
-15.209 -14.9655 -13.2445 -11.926 -12.9772 -13.3738 -17.0974 -16.8177 -15.5531 -15.5622 -11.2462 -9.2725 -7.9815 -9.363501 -7.990001 -9.1555 -10.194 -10.0075 -10.031 -6.524 -6.582 -7.5085 -10.522 -11.8693 -15.0915 -17.8981 -17.6015 -18.806 -13.0955 -10.321 
