-4.759 
n/a 
n/a 
n/a 
n/a 
-4.759 
n/a 
n/a 
n/a 
n/a 
-4.759 
n/a 
n/a 
n/a 
n/a 
-4.759 
n/a 
n/a 
n/a 
n/a 
-4.0105 -3.522 0 -8.27 -7.2045 -18.87 
-8.1415 -3.522 -8.27 -15.9013 -27.1322 
-8.1415 -12.5554 -15.9013 -32.296 
-17.5685 -20.1867 -32.3374 
-25.1998 -36.6228 
-3.9175 -3.718 0 -4.759 -1.7565 -8.27 
-8.265 -3.718 -4.759 -5.3575 -9.440001 
-8.265 -8.814501 -5.3575 -13.9436 
-13.4011 -9.558001 -13.9436 
-14.1446 -18.1537 
-8.863001 -4.8635 
-14.3105 
n/a 
n/a 
n/a 
-3.0835 -4.359 -4.867 0 -5.1845 -3.1385 -2.229 -7.2045 -11.0555 
-6.1675 -11.046 -4.867 -5.1845 -7.4095 -4.6125 -9.095501 -19.1134 
-13.5013 -11.046 -11.015 -7.4095 -9.0015 -10.513 -20.9912 
-13.5013 -17.194 -13.24 -9.0015 -15.2002 -22.4087 
-19.6493 -19.419 -14.832 -15.2002 -27.0959 
