-4.759 
n/a 
n/a 
n/a 
n/a 
-4.759 
n/a 
n/a 
n/a 
n/a 
-4.759 
n/a 
n/a 
n/a 
n/a 
-4.759 
n/a 
n/a 
n/a 
n/a 
-1.934 -5.281 0 -2.925 -2.674 -3.383 -3.931 -1.934 -3.0435 -1.756 -3.7905 -4.4625 
-6.4895 -5.281 -2.925 -4.1785 -5.6065 -8.987 -5.505 -4.8565 -4.5065 -5.3495 -9.4215 
-6.4895 -8.432 -4.1785 -6.8095 -12.0591 -10.8538 -8.476001 -5.9805 -7.941501 -11.2139 
-8.786 -9.908501 -6.8095 -13.3987 -13.9259 -13.8248 -9.669001 -9.514501 -14.2341 
-10.3675 -12.5633 -13.3987 -15.2655 -16.8969 -15.0178 -13.2954 -15.8205 
-1.934 -5.281 -3.433 -1.7565 -3.4155 -3.931 -1.934 -3.0435 0 -4.0555 -1.7695 -4.4625 
-6.4895 -9.314 -4.1845 -5.0175 -6.6905 -5.505 -4.8565 -3.0435 -4.0555 -4.7475 -6.2735 
-9.6685 -9.7495 -7.936 -8.2945 -8.172501 -8.476001 -4.8565 -7.6485 -4.7475 -10.1425 
-10.0525 -13.6072 -10.7175 -9.7705 -11.4707 -8.476001 -9.352 -8.304501 -10.1425 
-13.8204 -16.3887 -12.1935 -13.1531 -11.4707 -13.2507 -10.0685 -14.0155 
-5.281 -3.158 -4.7995 -3.0435 -1.7695 -3.931 0 
-9.17 -8.382001 -8.087501 -5.0925 -6.156001 -3.931 
-14.6956 -11.7992 -9.8485 -10.107 -6.156001 
-18.1128 -13.5602 -15.3258 -10.107 
-19.8738 -19.0375 -15.3258 
-1.934 -5.281 0 -2.9805 -4.3195 -4.23 -3.851 -1.7695 -1.4985 -3.931 -1.934 -3.091 -3.0435 
-6.4895 -5.281 -2.9805 -5.4865 -7.8495 -7.6185 -4.0015 -2.7955 -5.055 -5.505 -4.2105 -5.8945 
-6.4895 -7.56 -5.4865 -8.2225 -10.155 -7.6865 -4.5775 -6.3985 -6.754001 -7.886001 -7.197001 
-7.8235 -9.062 -8.2225 -10.9276 -10.162 -8.174 -7.133 -8.1835 -8.599001 -10.096 
-9.160501 -11.8174 -10.9276 -10.9346 -10.7903 -10.8871 -8.8665 -10.6875 -11.229 
