-4.759 
n/a 
n/a 
n/a 
n/a 
-4.759 
n/a 
n/a 
n/a 
n/a 
-4.759 
n/a 
n/a 
n/a 
n/a 
-4.759 
n/a 
n/a 
n/a 
n/a 
-3.034 -5.128 -1.934 -3.7345 -3.995 -4.4515 -3.1435 -5.8885 -3.335 -7.961 -1.7695 -5.942 -1.934 -2.664 -5.295 -3.3755 
-6.623 -6.3865 -5.3795 -6.5895 -6.726 -8.0165 -8.8205 -8.4335 -11.659 -10.159 -7.030001 -7.836501 -4.0475 -9.530001 -8.380501 
-7.6975 -8.889 -8.663501 -9.495501 -11.1832 -13.9657 -11.4669 -18.2451 -15.4262 -16.2632 -8.567501 -9.502001 -11.3975 -12.6637 
-10.4855 -12.3896 -10.199 -14.4233 -17.1324 -16.6121 -21.2785 -21.7391 -21.0289 -17.8007 -10.025 -17.1504 -14.5312 
-13.9861 -13.9251 -15.5062 -20.3725 -19.7788 -26.4237 -24.7725 -27.3418 -22.5664 -19.2582 -17.8894 -20.2841 
-3.4985 -4.5075 -2.5195 -3.7345 -3.3255 -3.5455 -4.918 0 -2.4265 -4.1675 -3.115 -3.995 -1.756 -4.4515 -2.4945 -5.284 -1.934 -4.809 -4.764 0 
-6.157001 -6.7865 -5.9715 -6.9675 -6.7545 -5.943501 -4.918 -2.4265 -4.8995 -4.664 -7.232501 -5.3025 -6.289 -7.178 -7.607 -7.249001 -6.4385 -9.1295 -4.764 
-8.919001 -9.283 -9.099501 -10.6659 -9.805 -5.943501 -7.4135 -4.8995 -5.1585 -9.142 -8.469501 -7.31 -7.8545 -10.674 -8.741501 -8.723001 -10.749 -9.1295 
-11.6763 -12.8368 -13.0383 -13.7164 -9.805 -8.201 -9.63 -5.1585 -9.5835 -10.477 -10.6735 -8.6695 -11.5899 -11.8085 -9.887501 -13.8977 -10.749 
-15.2301 -16.7756 -16.0888 -13.7164 -12.1517 -10.609 -9.922501 -9.5835 -11.0453 -12.681 -12.033 -12.5205 -12.7244 -12.9545 -15.153 -13.8977 
-3.034 -2.7295 -3.047 -1.4985 -3.7345 -2.5195 -3.5455 -4.918 -2.4265 -4.114 -1.4985 -4.9375 -1.934 -4.809 
-4.536 -5.018 -4.095 -4.9965 -6.3495 -5.71 -5.943501 -7.4135 -4.5725 -5.8665 -5.8885 -6.5605 -6.4385 
-6.446 -5.9645 -7.735001 -7.621 -10.107 -8.186001 -8.201 -9.2755 -6.03 -10.6735 -7.722001 -9.4115 
-7.317 -9.4075 -10.2915 -11.6951 -12.6496 -10.9105 -9.759501 -10.894 -10.7565 -12.507 -10.8704 
-10.8612 -12.0652 -14.5238 -14.2377 -15.3741 -12.469 -11.8756 -15.6205 -12.59 -15.6554 
-2.7295 -3.9335 -1.8085 -4.809 -3.7575 -4.9375 -1.7565 -1.4985 -3.7075 0 -3.995 -1.756 -3.1435 -4.9375 -2.5195 -1.4985 -6.115 -4.295 -1.934 -1.4985 -4.5285 
-5.461 -5.6115 -7.961 -6.1035 -8.423 -5.944 -2.4195 -4.6235 -3.7075 -3.995 -5.3025 -4.1365 -7.496 -7.132 -3.1695 -7.064501 -8.691 -5.888 -2.6125 -4.936 
-7.2635 -12.7906 -9.622001 -10.4675 -9.452001 -6.2175 -5.468501 -4.6235 -6.968 -5.3025 -6.9485 -8.6435 -9.727501 -7.9525 -8.356501 -9.311501 -10.3105 -6.6175 -5.8485 
-14.5468 -14.4516 -13.762 -11.4965 -9.7895 -8.348001 -5.468501 -7.4175 -7.985001 -6.9485 -9.7515 -10.9828 -10.47 -13.4057 -10.8297 -11.1276 -11.04 -9.715 
-16.2078 -18.5916 -14.791 -11.834 -11.977 -8.348001 -7.993501 -8.132001 -10.411 -9.7515 -12.2546 -11.7253 -15.9232 -15.8789 -12.6458 -11.8571 -14.1375 
