-4.759 
n/a 
n/a 
n/a 
n/a 
-4.759 
n/a 
n/a 
n/a 
n/a 
-4.759 
n/a 
n/a 
n/a 
n/a 
-4.759 
n/a 
n/a 
n/a 
n/a 
-2.9805 -3.264 -2.3335 -5.071 -2.186 -3.644 -3.1575 -8.6355 -3.034 -2.9805 -3.5745 -1.8085 -3.326 -2.264 -2.4265 0 
-4.3595 -4.533 -8.073 -7.715 -5.006001 -4.568501 -9.8505 -10.446 -4.4605 -4.8665 -5.1095 -5.233 -5.025001 -4.561 -2.4265 
-5.5185 -10.3745 -9.97 -9.834001 -5.5085 -11.074 -13.086 -11.927 -6.5915 -6.397 -8.173 -7.397 -7.502501 -4.561 
-11.5322 -12.2715 -12.1766 -10.8809 -11.526 -14.4587 -14.5567 -14.2528 -8.1545 -9.546 -8.940001 -9.533501 -7.502501 
-13.4292 -14.4781 -13.2235 -17.2186 -15.6449 -15.6832 -16.8825 -15.8158 -11.2421 -10.635 -10.459 -9.533501 
-1.4985 -3.6825 -2.7415 -5.1895 -2.5195 -2.664 -4.7165 -3.9235 -1.7695 -2.871 -1.7565 -4.2105 -3.4075 -4.473 -1.756 -4.401 0 
-4.87 -6.0635 -6.549 -6.692 -4.625 -6.076 -8.3645 -5.6555 -4.5615 -3.5385 -5.385 -7.295 -7.892001 -5.9785 -5.7295 -4.401 
-6.662001 -9.5765 -7.603 -7.85 -7.9195 -8.6175 -9.953501 -8.456501 -5.133 -8.634501 -9.515501 -10.172 -9.066501 -9.869 -5.7295 
-9.9835 -10.1825 -8.575001 -9.989 -10.0925 -10.025 -10.199 -9.2005 -9.624001 -10.199 -10.2005 -11.7725 -13.0644 -9.869 
-10.5085 -10.6065 -10.5975 -10.754 -10.196 -10.1995 -10.2115 -10.2 -10.2005 -10.207 -11.8494 -15.7704 -13.0644 
-2.9805 -4.4155 -2.3335 -2.9805 -5.972 -4.816 -2.3335 -5.071 -3.5505 -2.4945 -2.645 -5.2955 -3.1575 -1.4985 -8.6355 -3.5505 0 
-6.335501 -5.6635 -4.1515 -9.190001 -10.151 -5.693501 -8.073 -6.717 -6.614 -4.6775 -7.976501 -6.745501 -4.1355 -8.469501 -8.796 -3.5505 
-6.904 -6.884 -10.068 -13.4702 -11.0285 -11.9286 -8.974501 -9.3245 -8.6765 -10.016 -9.0755 -7.756001 -10.844 -9.6815 -8.1545 
-7.567501 -13.2091 -15.1528 -14.3477 -17.2636 -12.8301 -12.1536 -11.714 -14.194 -10.5915 -9.736 -13.311 -11.4805 -9.790001 
-13.9944 -18.2939 -16.0303 -20.5828 -18.1651 -16.0092 -14.5431 -17.2315 -14.7695 -11.252 -15.6928 -14.5088 -11.4805 
-2.9805 -4.5295 -2.5195 -3.091 -4.8155 0 -2.0935 -3.6835 -4.603 0 -5.071 -3.5505 -2.186 -2.645 -5.2955 -3.1575 -3.5645 -5.071 -3.5505 0 
-6.540501 -6.6345 -4.8225 -7.2475 -4.8155 -2.0935 -5.189 -6.9475 -4.603 -5.071 -6.717 -5.4715 -4.528 -7.976501 -6.745501 -6.265 -7.150001 -6.717 -3.5505 
-8.961 -9.006001 -8.593 -7.2475 -6.787 -5.189 -8.981501 -6.9475 -10.985 -6.717 -8.327001 -7.4925 -9.531501 -9.0755 -8.8745 -9.533501 -8.1545 -6.717 
-9.816501 -12.8841 -8.593 -9.6245 -10.138 -8.981501 -8.981501 -13.6733 -12.631 -8.327001 -10.316 -12.987 -10.312 -11.3557 -12.5664 -10.7045 -8.1545 
-13.6946 -12.8841 -11.3426 -13.0509 -14.1543 -8.981501 -15.8589 -15.3193 -14.241 -10.316 -15.8105 -13.7675 -12.5922 -15.0476 -13.7374 -10.7045 
