-4.759 
n/a 
n/a 
n/a 
n/a 
-4.759 
n/a 
n/a 
n/a 
n/a 
-4.759 
n/a 
n/a 
n/a 
n/a 
-4.759 
n/a 
n/a 
n/a 
n/a 
-4.732 -4.4245 0 -2.4265 -6.3235 -2.5045 -1.8085 -8.1675 -4.304 
-8.860001 -4.4245 -2.4265 -7.611 -6.764 -3.3625 -8.019 -10.912 
-8.860001 -7.022 -7.611 -8.111 -7.161 -8.623501 -11.1085 
-10.674 -12.9665 -8.111 -8.365001 -12.328 -13.497 
-16.6185 -13.4665 -8.365001 -13.8344 -17.3331 
-5.7865 -4.4245 -3.0365 -2.4945 -3.2495 -4.5475 -4.5375 -5.1335 
-10.0195 -7.504 -3.688 -4.891 -6.2395 -9.925501 -8.189501 
-13.099 -8.2735 -5.0435 -8.269001 -12.5415 -13.8951 
-13.8685 -9.3655 -8.862 -14.8726 -16.5111 
-14.9605 -13.2314 -15.9424 -18.8422 
-5.7865 -4.4245 0 -6.557 -2.8645 -3.2495 -5.2565 0 
-10.0195 -4.4245 -6.557 -9.126 -5.3035 -7.945001 -5.2565 
-10.0195 -11.1415 -9.126 -11.5434 -9.925 -7.945001 
-16.7365 -13.7105 -11.5434 -16.1649 -9.925 
-19.3055 -16.1279 -16.1649 -16.1649 
-4.732 -4.4245 -6.557 -3.251 -3.2495 -4.815 -4.304 0 
-8.860001 -11.1415 -9.9205 -5.5775 -8.096001 -7.8695 -4.304 
-15.778 -14.505 -12.247 -9.922501 -11.6773 -7.8695 
-19.1415 -16.8315 -16.592 -13.7546 -11.6773 
-21.468 -21.1765 -20.4241 -13.7546 
