-4.759 
n/a 
n/a 
n/a 
n/a 
-4.759 
n/a 
n/a 
n/a 
n/a 
-4.759 
n/a 
n/a 
n/a 
n/a 
-4.759 
n/a 
n/a 
n/a 
n/a 
-5.148 -4.795 -4.9385 -2.5685 -1.4985 -4.418 -3.325 -4.176 -3.4985 -1.934 -3.7375 -3.5785 -4.179 
-6.9915 -8.0415 -7.347501 -3.7015 -5.732 -7.55 -7.2115 -8.079 -5.373 -6.299 -5.134 -9.224501 
-10.2135 -10.702 -7.768501 -7.2775 -8.438 -10.609 -8.415501 -9.293 -10.243 -8.033501 -10.2595 
-13.8014 -11.123 -11.6409 -9.964001 -11.766 -11.813 -9.603001 -14.3216 -11.9775 -13.1 
-14.2224 -14.9954 -14.3274 -13.3298 -12.97 -13.0005 -14.6452 -16.0561 -17.044 
-3.5445 -3.7375 -3.5785 -1.4985 -3.8195 -3.9615 -1.4985 -4.1385 -2.9705 -3.152 -7.658 -9.298 -2.229 -4.1 -3.152 -4.9385 
-7.333 -5.134 -5.474 -5.146501 -6.659 -4.716 -5.0575 -7.4905 -5.007 -10.884 -17.3764 -11.6412 -6.1495 -7.298 -6.4045 
-8.5775 -6.639 -9.4775 -7.987 -7.243001 -7.81 -7.9705 -9.39 -13.095 -20.6024 -19.7196 -15.5617 -8.984 -10.8793 
-9.8625 -10.7229 -12.0714 -8.2465 -10.054 -11.5524 -9.876 -17.4986 -22.8134 -22.9456 -23.6401 -18.3962 -12.6481 
-13.9464 -13.3168 -12.3309 -10.733 -14.2208 -13.4579 -18.0316 -27.217 -25.1566 -26.8661 -26.4746 -22.0603 
-1.934 -2.7455 -3.7375 -3.5785 -1.4985 -5.0265 -4.348 -3.251 -4.9385 -2.5685 -1.4985 -4.088 -1.934 -1.4985 -4.1385 -4.3355 -4.418 0 
-5.2345 -7.887001 -5.134 -5.474 -6.196 -6.706 -6.8715 -7.030001 -7.347501 -3.7015 -5.6785 -5.429501 -2.6125 -5.0575 -5.686 -7.6875 -4.418 
-9.7685 -9.353001 -6.639 -9.788501 -7.2215 -8.566 -8.8745 -9.0115 -7.768501 -6.683 -7.061 -5.9065 -5.7615 -6.073501 -8.8815 -7.6875 
-10.6625 -11.113 -10.316 -10.2785 -8.911501 -10.597 -10.8976 -9.456 -11.0464 -7.7475 -7.589001 -8.6625 -6.860001 -10.185 -8.8815 
-12.4225 -14.79 -10.4365 -10.4015 -11.0103 -12.6201 -11.3421 -12.7655 -12.1109 -8.17 -10.4778 -10.103 -11.1383 -10.185 
-3.321 -2.3345 -3.7375 -3.5785 -5.4005 -4.39 0 -2.925 -4.954 -3.17 -1.7565 -1.4985 -4.176 -4.7505 -1.934 -4.1385 0 
-5.886 -7.0035 -5.134 -10.1425 -7.7615 -4.39 -2.925 -7.238501 -7.833501 -4.179 -2.4195 -5.1055 -8.248 -5.939 -6.352 -4.1385 
-11.1014 -9.7655 -11.867 -12.5035 -7.7615 -7.198 -7.238501 -9.570001 -7.898001 -4.497 -5.8275 -8.6055 -9.537001 -10.688 -6.352 
-13.8634 -16.5415 -14.228 -12.5035 -10.078 -10.233 -9.570001 -9.632501 -8.122001 -8.1955 -9.482501 -9.945001 -14.3818 -10.688 
-20.6394 -18.9025 -14.228 -14.82 -13.113 -12.5645 -9.632501 -9.835501 -12.1059 -12.0127 -10.661 -14.729 -14.3818 
