-4.759 
n/a 
n/a 
n/a 
n/a 
-4.759 
n/a 
n/a 
n/a 
n/a 
-4.759 
n/a 
n/a 
n/a 
n/a 
-4.759 
n/a 
n/a 
n/a 
n/a 
-3.0365 -2.4945 -3.074 -4.0415 -2.0935 -4.31 -1.7695 -4.236 -3.586 -2.985 -4.3925 -4.302 0 
-3.688 -4.4205 -8.1765 -5.51 -6.047501 -5.658 -5.427001 -7.686501 -6.443 -6.0015 -9.403001 -4.302 
-5.288 -8.568501 -8.6295 -9.4285 -6.9265 -8.4665 -8.736001 -9.317 -8.848001 -10.111 -9.403001 
-8.581 -8.808001 -12.5514 -10.452 -9.687 -12.2109 -9.980501 -11.9776 -13.2057 -10.111 
-8.811501 -12.7371 -13.5749 -13.2125 -13.498 -13.4554 -12.7423 -16.3353 -13.2057 
-4.31 -4.8865 -3.766 -3.992 -3.473 -3.8085 -5.29 -2.674 0 
-9.386001 -8.604501 -8.435 -8.7995 -7.7835 -10.7963 -9.824501 -2.674 
-13.1876 -14.0199 -13.4801 -13.2622 -15.6227 -15.3308 -9.824501 
-18.603 -19.065 -17.9428 -21.1014 -20.1572 -15.3308 
-23.6481 -23.5277 -25.782 -25.6359 -20.1572 
-4.0415 -1.7695 -4.31 -2.264 -1.4985 -4.398 -3.586 -2.985 -8.120501 
-5.718 -6.1695 -6.4665 -2.9195 -5.363 -8.541 -6.443 -9.906 
-10.876 -7.955501 -7.007501 -5.7415 -10.2865 -12.2306 -14.1398 
-12.662 -8.849 -10.5975 -10.467 -13.9761 -19.9274 
-13.5555 -12.6218 -15.323 -14.1566 -21.6729 
-2.7295 -2.7765 -3.1715 -1.4985 -3.275 -1.934 -1.4985 -3.16 -2.9775 -2.186 -3.383 -4.236 0 
-4.065 -4.9895 -4.8205 -4.7845 -5.386 -2.6125 -4.0625 -4.6715 -4.91 -4.438 -6.0965 -4.236 
-6.4475 -6.529 -8.342 -6.739501 -6.0385 -5.7115 -5.8255 -6.3285 -7.562 -7.5315 -6.0965 
-7.5655 -9.937501 -10.7728 -7.514501 -9.013 -7.187 -7.269501 -8.552501 -11.1025 -7.5315 
-11.1032 -12.4861 -11.5478 -10.6335 -11.0781 -9.111001 -9.146001 -12.3966 -11.1025 
