-4.759 
n/a 
n/a 
n/a 
n/a 
-4.759 
n/a 
n/a 
n/a 
n/a 
-4.759 
n/a 
n/a 
n/a 
n/a 
-4.759 
n/a 
n/a 
n/a 
n/a 
-2.3615 -4.4385 -1.7565 -4.594 -4.4215 -2.4285 -5.759 -4.7515 -2.4945 -3.383 -4.6735 -1.7695 -1.4985 -7.4525 -3.1575 -3.9115 -2.3615 -3.644 -2.3335 -1.4985 -3.664 -2.7765 -2.9645 -1.4985 -6.3965 -4.1335 -2.4285 -2.9995 -2.8965 -4.1335 -2.0935 -2.985 -4.7715 -1.7695 -3.519 -1.4985 -3.568 0 
-6.924 -5.339001 -5.9325 -10.013 -6.524 -7.828001 -10.802 -6.6425 -4.732 -8.928 -5.0215 -2.7955 -9.13 -10.9458 -8.1565 -6.523 -6.573501 -4.989501 -3.3515 -5.285501 -5.2105 -4.5195 -3.957 -7.349501 -8.697001 -6.198 -4.345 -4.1905 -6.071 -5.649 -4.3315 -8.0045 -5.7995 -4.951 -5.0755 -4.649 -3.568 
-8.514 -9.935501 -11.9963 -12.1155 -12.8989 -13.3954 -12.693 -8.896 -10.0785 -9.1555 -5.5635 -10.6622 -12.7769 -15.9448 -11.1888 -11.246 -7.479001 -5.794001 -6.922 -7.0595 -6.7885 -5.1955 -8.384001 -9.854501 -11.2063 -8.132 -4.7685 -7.5075 -7.797501 -8.3315 -9.040501 -9.313101 -9.5535 -5.8085 -8.514 -4.649 
-12.9403 -15.9993 -14.0988 -18.4904 -18.4663 -15.2864 -14.9465 -14.7113 -10.2395 -9.618 -13.9144 -14.3091 -17.7759 -18.9771 -15.9118 -12.1515 -8.079 -9.517001 -7.960001 -8.623 -7.303501 -9.399 -11.163 -12.4326 -13.1403 -8.613 -8.7685 -9.4655 -10.304 -13.2231 -10.6663 -13.0671 -10.128 -9.4475 -8.514 
-19.0041 -18.1018 -20.4737 -24.0578 -20.3573 -17.5399 -20.7618 -14.8723 -10.7175 -17.9689 -17.5613 -19.3081 -20.8082 -23.7001 -16.8173 -12.7515 -11.9368 -11.0742 -9.406 -9.165001 -11.918 -12.2824 -13.7411 -14.3666 -13.6213 -9.547 -10.6735 -12.3464 -15.1956 -14.8489 -14.4203 -13.6416 -13.767 -9.4475 
-2.3615 -4.4385 -4.2995 -1.7695 -4.4385 -3.6205 -1.7565 -3.383 -4.6785 -1.7695 -3.9615 -4.1145 -5.2495 -4.763 -1.7565 -3.737 -2.4265 0 
-6.924 -8.556001 -5.9175 -5.804501 -8.579 -5.2835 -5.5535 -6.1305 -6.179 -6.158 -10.0285 -10.2645 -10.523 -5.1985 -5.1295 -4.8895 -2.4265 
-11.4277 -10.4598 -9.5825 -10.0995 -10.674 -10.204 -8.541 -7.334001 -11.1283 -12.834 -16.1785 -15.538 -10.9585 -8.2775 -6.4985 -4.8895 
-13.3315 -14.1248 -14.0095 -12.3025 -15.5945 -13.1915 -10.6143 -12.4723 -17.8043 -18.984 -21.452 -15.9735 -14.0375 -10.1945 -6.4985 
-16.9965 -18.5518 -16.2125 -17.223 -18.582 -15.2648 -15.7526 -19.1483 -23.9543 -24.2575 -21.8875 -19.0525 -15.9545 -10.1945 
-2.3615 -4.0135 -1.7565 -4.8915 -2.674 -3.135 -1.7565 -4.1 0 -3.4635 0 0 -3.664 -3.402 -10.6255 -3.135 -1.7565 -1.4985 -4.3845 -2.4945 -3.7435 -4.3845 -1.934 -2.3615 -4.1585 -3.115 -2.3335 
-5.1525 -4.201 -6.4635 -7.609 -4.7595 -3.9195 -5.9145 -4.1 -3.4635 -3.4635 0 -3.664 -6.913 -15.3519 -13.7605 -3.9195 -2.4195 -4.936501 -7.229 -7.551001 -8.849001 -6.1635 -3.539 -7.873 -8.052 -4.7415 
-5.2165 -8.851501 -9.535501 -10.051 -6.198 -9.757501 -5.9145 -7.669001 -3.4635 -3.4635 -3.664 -6.913 -20.6263 -18.4869 -14.545 -4.168 -6.376501 -8.752501 -12.5323 -13.0253 -10.5918 -7.7385 -10.0925 -12.1759 -9.5325 
-10.476 -11.9877 -12.0269 -11.4895 -12.5914 -9.757501 -9.657001 -7.669001 -3.4635 -8.1335 -6.913 -20.6263 -23.7613 -19.2714 -14.7935 -9.378 -9.205501 -14.1242 -18.0066 -14.7681 -12.1668 -14.6454 -14.3954 -13.6564 
-13.6122 -14.4791 -13.4654 -17.8829 -12.5914 -13.9612 -9.657001 -7.669001 -8.1335 -11.5805 -20.6263 -23.7613 -24.5458 -19.5199 -20.0035 -12.0428 -14.5894 -19.5985 -19.7494 -16.3431 -19.0737 -18.9483 -15.8759 
-2.3615 -3.519 -1.7565 -4.666 -1.756 -3.952 -2.186 -1.4985 -3.17 -3.699 -3.4265 -1.7565 -8.229 -3.644 -2.3335 0 -2.356 -3.2945 -4.2105 -2.4285 -2.356 -2.985 -4.455 -2.7295 -2.7765 -4.5055 -1.4985 -3.435 -3.264 -2.4285 -4.101 -3.886 
-4.7965 -4.4175 -6.8195 -5.456 -5.3685 -6.116 -3.339 -3.7115 -4.663 -7.134501 -4.967 -8.9575 -10.072 -4.989501 -2.3335 -2.356 -5.981 -5.9155 -6.298 -5.1055 -4.4615 -6.488501 -6.897501 -4.065 -6.377 -5.649 -5.1695 -5.566 -5.39 -6.3715 -7.637001 
-6.0335 -9.0375 -7.579 -8.434001 -8.682 -7.411 -4.888 -4.8395 -7.8995 -9.6675 -12.5725 -13.3865 -11.8735 -4.989501 -5.1915 -5.981 -8.114 -7.982 -8.9125 -7.2425 -8.2775 -8.661501 -8.3225 -7.3555 -7.6085 -9.639501 -6.820001 -6.548 -9.368 -10.0375 
-10.185 -9.7375 -10.5914 -12.2657 -9.9945 -9.0275 -5.799 -8.003 -10.5425 -17.3128 -17.7121 -15.0206 -11.8735 -7.488501 -9.3915 -8.114 -10.287 -11.0325 -11.1831 -11.4319 -10.4765 -10.292 -11.9314 -8.410501 -11.7414 -11.4786 -8.456 -11.841 -13.273 
-10.9802 -12.6539 -14.4231 -13.5782 -11.611 -9.938001 -9.216001 -10.6215 -18.1878 -22.4524 -18.7076 -15.0206 -14.6617 -11.8105 -11.5377 -10.287 -13.3375 -13.3031 -15.3725 -13.6309 -12.107 -13.9009 -12.9864 -12.6648 -13.5805 -13.1146 -13.664 -15.746 
