-4.759 
n/a 
n/a 
n/a 
n/a 
-4.759 
n/a 
n/a 
n/a 
n/a 
-4.759 
n/a 
n/a 
n/a 
n/a 
-4.759 
n/a 
n/a 
n/a 
n/a 
-3.2495 -4.2915 -3.515 
-6.6065 -8.4275 
-10.7495 
n/a 
n/a 
-3.2495 -4.3955 -4.108 0 
-8.3135 -10.041 -4.108 
-14.0552 -10.041 
-14.0552 
n/a 
-12.16972 
n/a 
n/a 
n/a 
n/a 
-2.4265 -2.186 -1.8085 -5.1845 -7.824 -3.8235 -2.356 -2.341 -2.4285 -2.645 -5.279 0 
-3.292 -3.164 -7.2815 -12.2175 -11.0115 -6.135 -5.146501 -5.0275 -4.1105 -8.134001 -5.279 
-4.4005 -8.269 -14.0509 -14.6954 -12.863 -9.296 -6.954 -5.6595 -8.8295 -8.134001 
-9.7685 -15.4184 -16.4084 -17.0054 -16.4524 -11.3475 -7.2475 -10.674 -8.8295 
-16.9695 -17.7759 -18.7184 -20.5948 -18.5039 -11.641 -12.58 -10.674 
