-4.759 
n/a 
n/a 
n/a 
n/a 
-4.759 
n/a 
n/a 
n/a 
n/a 
-4.759 
n/a 
n/a 
n/a 
n/a 
-4.759 
n/a 
n/a 
n/a 
n/a 
-4.1855 -6.002 -8.965 -8.877001 0 -3.7825 -4.1665 0 -5.1845 
-10.051 -10.8215 -9.7995 -8.877001 -3.7825 -7.7305 -4.1665 -5.1845 
-14.9903 -11.656 -9.7995 -13.2033 -7.7305 -7.7305 -10.371 
-15.8248 -11.656 -14.2368 -17.1513 -7.7305 -14.3308 
-15.8248 -16.0933 -18.1848 -17.1513 -14.3308 
-11.243 -8.029 -6.0755 -6.2405 0 -3.7825 -4.619 0 0 -2.701 0 
-20.2304 -9.805 -9.785001 -6.2405 -3.7825 -7.8605 -4.619 0 -2.701 -2.701 
-22.0064 -9.926001 -9.785001 -10.5535 -7.8605 -7.8605 -4.619 -2.701 -2.701 
-22.1274 -9.926001 -14.1554 -15.2769 -7.8605 -7.8605 -7.934501 -2.701 
-22.1274 -14.3198 -18.8788 -15.2769 -7.8605 -11.3828 -7.934501 
-4.1855 0 -5.1205 -8.965 -6.0755 -6.2405 0 -3.7825 -3.685 0 0 -2.701 0 
-4.1855 -5.1205 -14.8499 -10.389 -9.785001 -6.2405 -3.7825 -8.0565 -3.685 0 -2.701 -2.701 
-8.9135 -14.8499 -16.2739 -10.576 -9.785001 -10.5535 -8.0565 -8.0565 -3.685 -2.701 -2.701 
-18.8077 -16.2739 -16.4609 -10.576 -14.1554 -15.4729 -8.0565 -8.0565 -7.4525 -2.701 
-20.2317 -16.4609 -16.4609 -14.9464 -19.0748 -15.4729 -8.0565 -12.2968 -7.4525 
-4.1855 -3.8235 -8.965 -8.877001 0 -3.7825 -4.619 0 0 -2.9385 0 
-7.7915 -9.7185 -9.7995 -8.877001 -3.7825 -7.8605 -4.619 0 -2.9385 -2.9385 
-13.8717 -9.8345 -9.7995 -13.2033 -7.8605 -7.8605 -4.619 -2.9385 -2.9385 
-13.9877 -9.8345 -14.2368 -17.2813 -7.8605 -7.8605 -8.429501 -2.9385 
-13.9877 -14.2836 -18.3148 -17.2813 -7.8605 -11.8778 -8.429501 
