-4.759 
n/a 
n/a 
n/a 
n/a 
-4.759 
n/a 
n/a 
n/a 
n/a 
-4.759 
n/a 
n/a 
n/a 
n/a 
-4.759 
n/a 
n/a 
n/a 
n/a 
-4.5065 0 -5.7865 -3.8195 -8.798 -6.133 -2.186 -3.6885 -9.490001 -3.222 -5.1845 
-4.5065 -5.7865 -7.251 -13.6749 -9.179501 -8.442 -6.938001 -14.3809 -10.19 -8.3545 
-10.3225 -7.251 -18.0682 -14.0564 -11.6687 -13.3726 -18.1758 -15.0809 -15.5319 
-11.787 -18.0682 -18.4497 -16.5456 -16.5993 -24.6104 -18.8758 -20.4228 
-22.6042 -18.4497 -20.9389 -21.4762 -27.8371 -25.3104 -24.2177 
-4.5065 0 -8.798 -6.133 -2.9705 -2.7415 -4.894 -3.222 -5.1845 -2.5195 -3.8235 -7.661 -3.4715 0 
-4.5065 -8.798 -9.179501 -9.426001 -4.512 -6.601 -5.669 -8.3545 -8.509001 -6.201 -11.117 -10.335 -3.4715 
-13.6891 -9.179501 -12.6527 -11.2175 -7.856 -7.0515 -9.169001 -10.66 -12.4517 -13.9877 -13.791 -10.335 
-14.0706 -12.6527 -14.4442 -14.5615 -8.152 -10.233 -11.7061 -14.6027 -20.2384 -16.6617 -13.791 
-17.5438 -14.4442 -17.7882 -14.8575 -11.4617 -12.8409 -15.6488 -22.3894 -22.9124 -16.6617 
-4.5065 0 -8.798 -1.8085 -4.894 -3.8195 -2.5195 -5.1845 
-4.5065 -8.798 -11.08 -6.5245 -9.5165 -6.264 -7.594501 
-13.6891 -11.08 -15.796 -10.717 -12.2538 -11.862 
-15.9711 -15.796 -19.9885 -13.4543 -17.8518 
-20.6871 -19.9885 -22.7258 -19.0523 
-4.5065 0 -8.798 -6.133 -5.1845 -4.894 -3.7955 -2.5195 -5.7865 0 
-4.5065 -8.798 -9.179501 -9.618501 -9.080501 -9.676001 -6.318 -8.452001 -5.7865 
-13.6891 -9.179501 -10.514 -13.9027 -14.9083 -12.4719 -12.8691 -8.452001 
-14.0706 -10.514 -14.7982 -19.7305 -17.7042 -19.023 -12.8691 
-15.4051 -14.7982 -20.626 -22.5264 -24.2553 -19.023 
