-4.759 
n/a 
n/a 
n/a 
n/a 
-4.759 
n/a 
n/a 
n/a 
n/a 
-4.759 
n/a 
n/a 
n/a 
n/a 
-4.759 
n/a 
n/a 
n/a 
n/a 
-2.9195 -6.694 0 -3.0105 -1.7565 -8.9195 -3.8275 
-9.752001 -6.694 -3.0105 -6.432 -11.796 -14.4465 
-9.752001 -10.2645 -6.432 -17.2543 -16.6713 
-13.3733 -13.9492 -17.2543 -21.7778 
-17.058 -24.7715 -21.7778 
-1.934 -3.0105 -2.9195 -2.7455 -6.737 -3.8275 0 
-4.827 -6.028501 -5.022 -10.019 -11.1931 -3.8275 
-8.3915 -8.809 -12.8825 -14.8329 -11.1931 
-10.5035 -16.7841 -17.6964 -14.8329 
-18.4786 -21.598 -17.6964 
-3.0105 -3.8275 -2.688 -3.682 
-7.593 -6.660501 -6.137 
-11.0394 -11.0441 
-15.423 
n/a 
-3.0105 -2.9195 -4.15 -1.7565 -6.844 -3.8275 
-6.028501 -7.6105 -5.594 -8.4385 -8.3745 
-11.4941 -9.805 -12.9286 -9.4255 
-13.6886 -17.4226 -13.9156 
-21.3062 -18.4096 
