-4.759 
n/a 
n/a 
n/a 
n/a 
-4.759 
n/a 
n/a 
n/a 
n/a 
-4.759 
n/a 
n/a 
n/a 
n/a 
-4.759 
n/a 
n/a 
n/a 
n/a 
-4.6055 -3.441 0 -3.4075 -3.3825 -4.3855 0 -2.688 -3.8325 -3.84 -4.803 -1.4985 -3.898 0 
-8.295 -3.441 -3.4075 -6.1575 -8.629 -4.3855 -2.688 -6.575 -7.731501 -9.2805 -6.193001 -5.0465 -3.898 
-8.295 -6.764501 -6.1575 -12.2846 -8.629 -7.524501 -6.575 -8.5585 -13.507 -10.2935 -8.0865 -5.0465 
-11.9579 -10.181 -12.2846 -12.2846 -12.2132 -11.9291 -8.5585 -14.8154 -14.52 -12.187 -8.0865 
-15.3744 -16.3793 -12.2846 -15.8688 -16.6178 -13.9126 -14.8154 -15.8284 -16.4135 -12.187 
-1.4985 -4.113 -1.7565 -1.4985 -3.59 -4.5485 -3.325 -1.4985 -4.4525 -1.7565 -3.849 -4.656 -4.246 -1.4985 -5.097 -3.4905 -1.7565 -4.2815 -1.756 -1.4985 -6.6135 -1.7565 -3.3715 -3.8195 -2.5195 -1.4985 -4.1115 -3.777 -1.934 -1.4985 -5.523 -1.7565 -1.4985 -5.888 -4.8415 -1.756 -6.8765 -4.113 
-5.425 -5.9875 -2.4195 -4.268 -8.360001 -6.795 -3.898 -5.199 -5.1195 -5.0295 -9.315001 -7.175 -5.8875 -5.904 -7.418 -4.601 -5.607 -5.558001 -3.0405 -7.257 -7.194 -4.845 -5.8465 -6.3025 -3.1695 -4.843 -9.2685 -4.5805 -2.6125 -6.486501 -6.239 -2.4195 -6.977 -8.02 -6.7695 -7.4515 -8.705501 
-6.6255 -6.659501 -5.009 -8.687 -10.7025 -7.094 -5.7135 -5.311501 -8.163501 -9.925 -9.401501 -8.736 -9.932501 -7.964001 -8.017 -8.526501 -6.7395 -6.305501 -8.3455 -7.3995 -8.727 -7.751 -8.125501 -7.028 -6.139 -10.1185 -9.793 -5.495 -8.1075 -6.583001 -6.703 -7.997001 -8.8585 -9.631001 -10.3885 -9.9805 
-7.1235 -8.404 -9.539001 -11.1143 -11.0015 -8.7615 -5.9645 -8.271501 -10.4505 -10.032 -10.266 -10.5035 -10.48 -8.055 -12.3381 -9.666 -7.436 -12.5933 -8.423 -8.8265 -9.901 -10.0065 -8.9175 -9.816 -10.4505 -10.3225 -10.2795 -9.434 -8.374001 -7.119501 -10.6095 -9.5375 -10.468 -10.421 -10.633 
-8.862 -12.9378 -12.2005 -11.4133 -12.669 -8.7695 -9.043 -10.4505 -10.473 -10.4355 -10.524 -10.5285 -10.5035 -12.4231 -13.4776 -10.3695 -13.6364 -12.6708 -9.536 -9.9805 -10.446 -10.346 -10.504 -10.516 -10.508 -10.511 -10.5265 -9.445001 -9.017 -10.609 -10.6415 -10.5995 -10.6365 -10.6495 
-4.246 -6.656 0 -2.688 -3.8325 -2.4945 -8.0815 
-12.6164 -6.656 -2.688 -6.575 -6.5705 -12.0042 
-12.6164 -9.908501 -6.575 -9.882501 -16.5 
-15.8689 -14.2101 -9.882501 -19.8718 
-20.1705 -17.5176 -19.8718 
-3.299 -3.6395 -1.7565 -4.092 -4.1265 -3.9875 -4.4215 -1.756 -2.688 -3.8325 -4.3115 -1.7695 -4.5305 0 
-6.023001 -4.6145 -6.017001 -8.936501 -8.3415 -7.297 -5.3505 -4.619 -6.575 -8.267 -5.8955 -5.015 -4.5305 
-6.250501 -9.5965 -11.4815 -13.4071 -12.2192 -8.217501 -8.0185 -8.795501 -11.7513 -10.181 -9.159 -5.015 
-11.4787 -15.1422 -15.9521 -17.2848 -13.1397 -11.1621 -12.623 -14.2912 -13.6653 -13.4445 -9.159 
-17.0244 -19.6128 -19.8298 -18.2053 -16.0843 -15.7666 -18.1187 -16.2052 -16.9288 -13.4445 
