-4.759 
n/a 
n/a 
n/a 
n/a 
-4.759 
n/a 
n/a 
n/a 
n/a 
-4.759 
n/a 
n/a 
n/a 
n/a 
-4.759 
n/a 
n/a 
n/a 
n/a 
-4.426 -1.7565 -1.4985 -3.6115 -4.7285 -4.1555 -3.147 -3.982 -3.766 -6.6255 0 -3.0465 -4.809 -8.5765 -3.8275 
-5.47 -2.4195 -4.081 -6.5495 -8.4455 -5.77 -8.137 -8.4995 -11.1415 -6.6255 -3.0465 -8.9525 -14.3183 -12.8066 
-5.9535 -5.180501 -6.670501 -9.978001 -9.541501 -10.3965 -13.0219 -16.3156 -11.1415 -10.9062 -8.9525 -18.599 -18.5484 
-8.462501 -7.797 -10.054 -11.0524 -14.168 -15.2814 -20.838 -16.3156 -15.4222 -16.8122 -18.599 -22.8291 
-10.2375 -11.2985 -11.1648 -15.6789 -19.0529 -23.0975 -20.838 -20.5963 -21.3282 -26.4587 -22.8291 
-12.16972 -3.982 -12.16972 -5.0405 -12.16972 -12.16972 
-16.15172 -16.93392 -17.21022 -18.29162 -24.33944 
-29.10364 -21.97442 -30.46134 -30.46134 
-34.14414 -35.22554 -42.63106 
-47.39526 -47.39526 
-3.402 -2.264 -1.4985 -4.2695 -4.3895 -2.3345 -3.982 -2.5045 -7.991001 0 -2.356 -4.132 -1.4985 -4.6395 -5.7475 -2.264 -1.4985 -3.8275 0 -4.1235 -1.7695 -4.47 -4.299 -1.4985 -4.8005 -4.348 -2.5195 -4.758 -4.3355 -5.572 -3.152 -3.301 -3.534 -1.7565 -3.982 0 
-3.793 -2.9195 -5.7515 -8.165501 -4.6785 -6.7745 -6.495501 -8.0425 -5.6175 -2.356 -7.3015 -5.071 -6.108001 -9.558001 -7.2925 -2.9195 -4.726 -3.8275 -4.1235 -4.2495 -5.7575 -6.71 -5.682 -5.281 -6.8725 -6.4615 -6.7995 -8.535001 -9.449501 -7.542 -6.03 -6.2395 -4.6265 -5.614 -3.982 
-4.34 -7.351501 -9.691501 -8.396501 -8.017 -8.7815 -12.0925 -7.8325 -7.967501 -7.3015 -8.749001 -10.275 -10.142 -10.704 -7.800001 -6.364501 -4.726 -9.258 -4.2495 -8.071501 -7.8025 -8.158501 -7.580501 -7.729501 -8.683001 -11.3181 -11.0525 -14.2846 -11.4715 -10.808 -10.316 -6.4275 -9.818001 -5.614 
-8.3155 -11.6375 -10.0945 -11.7118 -10.3828 -14.4159 -12.0925 -10.5645 -13.6622 -8.749001 -14.0778 -14.4758 -11.4848 -11.2115 -11.7426 -6.364501 -10.5975 -10.108 -8.071501 -9.510501 -8.7995 -9.842 -9.953001 -9.630501 -13.6282 -15.5711 -16.8021 -16.3066 -14.7375 -15.094 -10.596 -12.2266 -9.818001 
-12.8089 -12.0405 -13.504 -14.0776 -16.0172 -14.4159 -14.8245 -16.2592 -15.1097 -14.0778 -18.2786 -15.8186 -11.9923 -15.1541 -11.7426 -12.5928 -11.4475 -13.93 -9.510501 -10.5875 -10.4105 -12.2145 -11.854 -14.6735 -17.8812 -21.3207 -18.8241 -19.5726 -19.0235 -15.374 -16.3951 -12.2266 
-3.2615 -2.3335 -8.7015 -3.7875 -3.766 -3.8035 -3.222 -1.4985 -3.539 -3.7575 -1.7565 -1.4985 -5.292 
-5.0495 -12.2258 -12.5892 -7.6375 -8.611 -7.110001 -3.7835 -5.7965 -6.5305 -4.4575 -2.4195 -6.515 
-15.3646 -16.1135 -16.4392 -13.1089 -12.3879 -7.987 -8.1385 -6.842501 -7.331501 -4.7 -7.269501 
-19.2523 -19.9635 -21.9106 -16.8858 -13.2649 -12.6384 -10.074 -7.475501 -8.136001 -8.397 
-23.1023 -25.4349 -25.6875 -17.7628 -17.9163 -14.5739 -10.2805 -8.321 -11.9214 
