-4.759 
n/a 
n/a 
n/a 
n/a 
-4.759 
n/a 
n/a 
n/a 
n/a 
-4.759 
n/a 
n/a 
n/a 
n/a 
-4.759 
n/a 
n/a 
n/a 
n/a 
-4.5095 -4.1145 -3.64 
-7.5425 -5.99 
-8.278501 
n/a 
n/a 
-2.7295 -2.7765 -3.7765 -1.4985 -3.509 -1.934 -4.278 -3.64 
-4.065 -5.782001 -5.333 -4.917 -5.47 -6.2645 -7.232501 
-7.7945 -6.451 -7.976 -6.62 -8.17 -9.7635 
-8.355 -8.971001 -9.144501 -9.8072 -13.4788 
-11.0324 -10.3581 -13.0561 -15.116 
-4.1145 -3.64 -2.742 -2.489 -4.354 
-5.99 -6.262 -3.301 -5.8475 
-8.782001 -6.8425 -6.9545 
-8.9895 -10.111 
-12.987 
-4.5095 -1.4985 -4.1145 -3.64 
-5.8345 -5.3525 -5.99 
-8.198 -7.3005 
-9.89 
n/a 
