-4.759 
n/a 
n/a 
n/a 
n/a 
-4.759 
n/a 
n/a 
n/a 
n/a 
-4.759 
n/a 
n/a 
n/a 
n/a 
-4.759 
n/a 
n/a 
n/a 
n/a 
-4.0865 -4.481 -3.251 -3.135 -3.4865 -3.598 -2.5045 -4.4155 0 
-8.851501 -8.169001 -5.263 -6.0255 -5.199 -6.0315 -5.495501 -4.4155 
-12.9591 -10.5855 -8.0065 -7.6485 -8.341001 -8.634501 -5.495501 
-15.3756 -13.9878 -9.870001 -9.8715 -10.2035 -8.634501 
-18.7779 -15.8513 -12.1762 -11.8864 -10.2035 
-3.1495 -2.5685 -2.4945 -7.0185 -1.7695 -5.4525 0 0 
-6.428 -5.3665 -9.087 -9.032001 -7.874001 -5.4525 0 
-8.0235 -12.149 -11.5153 -15.1543 -7.874001 -5.4525 
-14.99 -14.5773 -17.6376 -15.1543 -7.874001 
-17.4183 -20.6996 -17.6376 -15.1543 
-2.925 -2.5685 -2.674 -3.4865 -4.116 -1.934 -5.4525 0 
-5.194 -5.2495 -5.966 -6.471001 -5.586 -6.905 -5.4525 
-6.1755 -8.212 -9.494 -7.844501 -11.2556 -6.905 
-9.0555 -12.0318 -10.735 -13.9441 -11.2556 
-12.9529 -13.2728 -16.8346 -13.9441 
-2.925 -3.43 -7.727 -3.9035 -1.7565 -5.4525 -1.756 -9.6995 -2.4265 
-5.456 -11.1415 -10.348 -4.616 -6.924 -6.544001 -12.4641 -12.3136 
-13.5785 -13.7625 -11.0605 -10.041 -7.829 -18.2837 -15.0782 
-16.1995 -14.475 -16.4855 -10.946 -19.7425 -20.8978 
-16.912 -19.9 -17.3905 -22.8595 -22.3566 
