-4.759 
n/a 
n/a 
n/a 
n/a 
-4.759 
n/a 
n/a 
n/a 
n/a 
-4.759 
n/a 
n/a 
n/a 
n/a 
-4.759 
n/a 
n/a 
n/a 
n/a 
-5.0945 -5.044 -4.5115 -1.756 -4.1375 -4.3365 -1.7565 -4.559 -1.756 -3.9465 -3.882 -1.4985 -4.744 -4.318 -3.931 -1.756 -5.458 0 
-10.089 -8.1295 -5.741 -6.0375 -7.318501 -5.768 -5.683 -5.633 -5.895 -8.152 -4.821 -5.761001 -9.268001 -7.5115 -5.418 -7.0775 -5.458 
-13.1745 -9.455501 -10.647 -8.690001 -9.3795 -10.733 -6.854 -6.8895 -9.908001 -9.447001 -9.3915 -10.3885 -12.6623 -8.604 -10.3815 -7.0775 
-14.5005 -14.4387 -13.2995 -10.543 -14.3411 -11.904 -8.13 -11.1805 -11.2618 -14.0333 -14.1576 -13.7828 -13.7548 -14.0613 -10.3815 
-19.4837 -17.0912 -15.1525 -15.5046 -15.5121 -13.18 -12.6234 -12.5343 -15.8481 -18.7994 -17.5519 -14.8753 -19.2121 -14.0613 
-3.9465 -3.251 -1.7695 -3.852 -2.356 -3.4155 -3.931 -3.851 -1.7695 -3.1435 -5.9495 -4.3365 0 
-7.045501 -4.3285 -4.341 -5.2795 -5.218 -6.6905 -6.4075 -4.0015 -4.49 -8.913 -9.881001 -4.3365 
-8.462001 -7.011001 -5.6395 -8.4785 -8.2255 -9.543501 -6.414 -5.668 -10.702 -13.0249 -9.881001 
-11.2215 -8.238501 -9.2965 -11.9558 -11.2919 -9.55 -8.8365 -12.4236 -14.8139 -13.0249 
-12.449 -12.1015 -12.8648 -15.0222 -11.2984 -12.2873 -15.8495 -16.5355 -14.8139 
-5.246 -3.9175 -4.5115 0 -3.4635 -1.4985 -4.385 -2.9705 -2.4945 -2.6165 -3.768 -2.0935 -3.8185 -3.251 -4.413 -2.6165 -3.098 -4.318 -3.931 -1.7695 -1.4985 -8.965501 -1.756 -3.9685 -4.348 -2.872 -3.074 -4.3465 -4.462 -1.7695 -3.845 -1.7565 -4.744 0 
-9.888 -9.165001 -4.5115 -3.4635 -4.6325 -5.214 -6.4805 -4.302 -3.8065 -5.2535 -5.1955 -6.3005 -8.682 -6.4945 -7.4335 -4.283 -7.62 -7.5115 -5.494 -2.7955 -9.964001 -10.8625 -5.691 -7.254 -6.806 -4.5415 -6.1745 -9.682001 -6.4005 -6.7805 -4.13 -6.1375 -4.744 
-15.2965 -9.165001 -8.288501 -4.6325 -7.534501 -7.229 -7.347 -5.338 -6.8295 -6.307 -9.693001 -12.488 -12.0695 -9.752001 -8.008 -8.744 -11.1673 -8.609 -6.077 -11.4962 -11.971 -14.7975 -8.193001 -9.68 -7.975 -7.703001 -11.553 -10.752 -12.0861 -8.008 -8.125 -6.1375 
-15.2965 -13.0586 -8.691501 -7.534501 -10.0155 -8.436001 -8.885 -8.290501 -8.196501 -11.1663 -16.1207 -15.8755 -15.327 -10.166 -13.1436 -12.3871 -12.2648 -9.0985 -15.6215 -13.5032 -15.906 -17.2995 -10.564 -10.8758 -11.3109 -13.2359 -12.623 -16.4376 -13.3136 -12.1772 -8.125 
-19.1901 -13.4616 -11.7557 -10.0155 -11.4889 -10.45 -11.9729 -9.661501 -12.9036 -17.594 -19.5082 -19.133 -15.741 -15.3016 -16.7867 -13.4846 -12.7543 -18.746 -17.6285 -17.4382 -18.408 -19.6705 -11.7598 -14.2117 -16.8438 -14.3059 -18.3086 -17.6651 -17.4828 -12.1772 
-5.307 -5.4605 -4.5115 -1.756 -3.4635 -4.707 -4.1475 -4.8555 -2.6165 -3.098 -4.081 -4.6395 -1.7695 -4.065 -1.756 -3.9685 -5.6785 -2.872 -2.4265 -3.074 -4.6205 -4.462 -1.934 -1.4985 -4.744 -4.0335 0 
-11.8057 -10.533 -5.741 -5.7385 -9.576501 -9.970001 -8.8825 -7.7235 -4.283 -6.79 -9.086 -6.1835 -6.2135 -5.851 -5.691 -7.87 -7.6955 -4.062 -4.605 -6.4425 -8.1075 -6.252501 -2.6125 -5.761001 -9.421 -4.0335 
-16.8782 -11.7625 -9.876 -12.3423 -14.6713 -14.772 -12.1285 -9.801001 -7.429 -9.943001 -9.6265 -9.880501 -7.736001 -7.046 -8.474001 -9.978001 -9.154501 -5.74 -6.985001 -9.881001 -8.9965 -6.8035 -8.0325 -10.2805 -9.421 
-18.1077 -15.8975 -16.4418 -17.4371 -19.4733 -18.018 -14.206 -13.0468 -10.7102 -10.9555 -13.5245 -11.4694 -9.080501 -8.84 -10.597 -11.5422 -10.4765 -7.901 -10.4755 -10.547 -9.3715 -10.586 -12.6538 -10.2805 
-22.2427 -22.4633 -21.5366 -22.2391 -22.7193 -20.0955 -17.4518 -16.328 -11.7227 -14.8535 -15.1134 -12.8139 -10.9391 -11.017 -12.1612 -12.8642 -12.6375 -11.4827 -11.1415 -10.7545 -13.3072 -15.2073 -12.6538 
