-4.759 
n/a 
n/a 
n/a 
n/a 
-4.759 
n/a 
n/a 
n/a 
n/a 
-4.759 
n/a 
n/a 
n/a 
n/a 
-4.759 
n/a 
n/a 
n/a 
n/a 
-3.135 -4.1145 0 0 -5.032 -3.7825 -3.254 -4.147 0 -1.756 -5.197 -2.4265 0 
-7.617001 -4.1145 0 -5.032 -9.5745 -5.414001 -6.9665 -4.147 -1.756 -6.21 -7.168 -2.4265 
-7.617001 -4.1145 -5.032 -9.5745 -11.7478 -9.6435 -6.9665 -5.7825 -6.21 -7.648 -7.168 
-7.617001 -9.418 -9.5745 -11.7478 -15.9773 -9.6435 -8.672501 -10.4765 -7.648 -7.648 
-13.7783 -14.5981 -11.7478 -15.9773 -15.9773 -11.4149 -13.6493 -12.5071 -7.648 
-3.135 -4.1145 -2.229 -3.4405 -3.4985 -4.5205 0 
-7.617001 -6.818501 -6.287 -7.593501 -8.1075 -4.5205 
-9.708 -10.66 -10.6474 -12.8125 -8.1075 
-13.6145 -15.0204 -15.8664 -12.8125 
-17.9749 -20.2394 -15.8664 
-3.135 -4.1145 -2.229 -4.5205 -1.7565 -4.5075 -3.937 
-7.617001 -6.818501 -7.069 -6.383 -6.1645 -8.9315 
-9.708 -12.3485 -9.339001 -11.3828 -10.733 
-15.303 -14.6185 -14.492 -15.9513 
-17.573 -19.7715 -19.0605 
-3.135 -5.4085 -3.013 -1.4985 -4.384 -1.7565 -5.463 -1.4985 -4.517 -3.8975 
-8.1565 -8.503 -4.488 -5.604 -5.642 -6.643001 -6.106 -6.301001 -9.4005 
-9.909 -10.674 -8.407001 -5.9715 -9.876 -7.191 -11.7835 -10.3345 
-12.456 -14.593 -8.7795 -10.0065 -10.3195 -13.1963 -15.817 
-16.375 -14.9655 -13.0709 -10.4235 -16.3248 -17.2298 
