-4.759 
n/a 
n/a 
n/a 
n/a 
-4.759 
n/a 
n/a 
n/a 
n/a 
-4.759 
n/a 
n/a 
n/a 
n/a 
-4.759 
n/a 
n/a 
n/a 
n/a 
-1.4985 -3.322 -2.925 -2.4945 -3.8055 -1.7695 -4.2215 -2.4945 -4.7695 -3.4765 -1.4985 -3.7825 -5.0615 -1.7565 -2.3335 -3.6815 -5.0185 -5.43 -3.0605 -7.2465 
-5.443 -6.8855 -3.7675 -5.9265 -5.554501 -5.215 -7.571501 -6.438001 -8.849001 -4.778 -4.8035 -6.0225 -5.8245 -4.314 -7.1295 -9.099501 -11.1415 -9.657001 -11.136 
-9.498001 -7.6755 -6.967 -6.974501 -10.304 -8.644 -11.7558 -10.4765 -10.151 -8.3255 -6.548 -6.7215 -8.712 -8.458 -13.1267 -15.4785 -15.3685 -17.8527 
-10.4435 -11.105 -8.05 -11.9752 -13.9178 -12.9853 -15.7943 -11.7785 -13.8679 -10.7025 -6.8305 -9.3725 -13.0534 -14.6392 -19.5057 -19.7055 -23.5642 
-13.873 -12.188 -13.0717 -15.589 -18.2591 -17.0238 -17.0963 -15.4954 -16.2449 -10.985 -9.452001 -13.8493 -19.2346 -21.0182 -23.7327 -27.9012 
-1.4985 -4.3665 -4.824 -1.7565 -3.7825 -5.0655 -1.7565 -1.4985 -3.6815 -4.0995 -4.7925 -1.4985 -3.486 -3.222 -3.0605 -4.565 -4.635 
-5.435 -7.948501 -6.1375 -5.0275 -6.646 -5.727 -2.4195 -4.9615 -7.901501 -7.048 -6.315 -3.5655 -7.394 -7.110001 -8.335001 -6.81 
-8.9595 -9.7635 -9.136001 -8.1785 -7.356501 -6.2545 -5.844 -9.848001 -11.302 -8.666 -9.065001 -7.462 -11.736 -12.8891 -10.647 
-10.1425 -12.9146 -12.611 -8.940001 -7.748001 -9.583 -10.335 -13.3573 -12.92 -11.5802 -10.733 -11.9236 -17.5151 -15.2011 
-13.448 -16.3896 -13.3725 -9.852 -11.8009 -14.457 -14.2225 -14.9753 -15.8342 -13.2482 -15.1946 -17.7027 -19.8271 
-1.4985 -4.0005 -4.078 -4.492 -5.066 -2.3335 -5.043 -3.345 -1.7565 -1.4985 -3.7825 -5.0655 -1.7565 -1.4985 -4.0005 -3.222 -3.0605 -5.747 -7.887001 -2.4285 -7.271 
-5.1695 -8.2015 -9.067 -9.734 -6.660001 -6.883 -7.472 -4.3855 -2.4195 -4.8035 -6.646 -5.727 -2.4195 -5.1695 -7.4865 -7.110001 -9.5755 -10.533 -9.918001 -9.118 
-9.306001 -10.75 -14.5418 -11.328 -10.7575 -9.432501 -8.3015 -4.688 -5.425 -7.308001 -7.356501 -6.2545 -6.224 -8.1785 -10.7175 -14.1296 -14.5813 -10.6905 -10.7065 
-12.0107 -16.2248 -16.1358 -15.4255 -13.307 -10.288 -8.5085 -6.1845 -7.9215 -7.640501 -7.748001 -9.8715 -8.979 -10.717 -17.7371 -19.1354 -14.7388 -10.7575 
-17.4855 -17.8188 -20.2333 -17.975 -14.1625 -10.315 -10.055 -8.3555 -8.4335 -7.848001 -10.5855 -12.8329 -11.6645 -17.7366 -22.7429 -19.2929 -14.8058 
-3.7445 -4.029 -4.552 -4.4075 -3.7825 -4.763 -2.0935 -3.0605 -4.635 0 
-8.654 -9.9645 -10.2985 -8.456 -6.7405 -6.756 -5.8625 -7.9475 -4.635 
-14.5039 -15.9066 -14.4492 -11.7316 -8.894501 -10.8554 -9.887501 -7.9475 
-20.446 -20.0573 -17.7248 -13.8856 -13.0809 -14.8804 -9.887501 
-24.5967 -23.3329 -19.8788 -18.072 -17.1059 -14.8804 
