-4.759 
n/a 
n/a 
n/a 
n/a 
-4.759 
n/a 
n/a 
n/a 
n/a 
-4.759 
n/a 
n/a 
n/a 
n/a 
-4.759 
n/a 
n/a 
n/a 
n/a 
-4.1925 -1.7565 -4.2485 -3.4625 -1.7565 -8.701 -1.934 -1.7695 -6.3855 -1.7565 -3.644 -1.934 -4.2485 
-6.502 -5.969 -6.702001 -4.9855 -10.907 -10.598 -4.0395 -8.534 -7.790501 -5.2155 -5.686501 -6.183 
-11.5787 -7.7285 -8.033001 -15.1346 -12.804 -12.7035 -11.7512 -10.155 -11.5975 -8.642 -9.365001 
-13.3382 -9.339001 -18.7157 -17.0316 -14.9095 -20.4152 -13.3722 -13.962 -15.024 -12.4295 
-14.9487 -20.1749 -20.6127 -19.1371 -22.6212 -22.0362 -17.1792 -17.3885 -18.8115 
-2.3345 -4.4985 -3.893 -1.4985 -4.142 -1.4985 -5.473 -4.1445 -2.742 -3.4625 -1.756 -2.7835 -1.4985 -4.142 -2.186 -4.157 -3.0365 -2.186 -1.8085 -4.7075 -1.934 -3.299 -4.2485 0 
-7.784 -5.606 -4.573 -5.4315 -6.31 -6.811501 -7.984 -6.626 -5.367001 -5.019 -4.348 -3.7575 -5.4315 -6.1185 -5.8055 -7.400001 -3.66 -3.164 -5.561 -5.1835 -4.976501 -5.627501 -4.2485 
-8.993 -5.874001 -8.414001 -7.5865 -12.0178 -8.8395 -10.476 -9.153001 -7.0195 -7.475 -5.439 -7.6305 -7.2565 -8.665501 -8.377501 -7.989501 -4.218 -7.085001 -5.749001 -8.505 -7.117001 -5.627501 
-9.572001 -9.1265 -10.281 -13.5593 -14.0458 -11.6615 -13.003 -10.4595 -8.9515 -8.439501 -9.271 -8.38 -9.4945 -11.3713 -8.67 -8.5275 -7.522 -7.3285 -8.984 -10.6335 -7.117001 
-12.8845 -11.2561 -16.2538 -15.5873 -16.8678 -14.1885 -14.3095 -12.3915 -10.142 -12.4725 -10.2235 -10.4755 -12.2415 -11.6638 -9.051001 -10.335 -7.594 -10.7389 -11.1781 -10.6335 
-1.4985 -4.4345 -1.934 -2.9705 -1.4985 -4.2485 -5.4015 -3.9345 -1.7695 -5.2515 -2.186 -3.4635 -2.356 -1.4985 -4.7075 -3.034 -1.4985 -5.2515 -1.7565 -3.999 -4.6985 -4.507 -2.356 -2.3335 -1.7565 -1.4985 -4.7885 -4.6985 0 
-5.1515 -6.433001 -4.051 -4.186 -5.307 -8.739 -7.59 -3.94 -7.4245 -7.102 -5.495 -6.3405 -3.1615 -5.869 -7.3135 -3.947 -6.508 -6.328 -5.718 -7.1585 -8.374001 -6.095 -4.7045 -4.618 -2.4195 -5.282001 -7.875 -4.6985 
-7.447001 -8.7535 -4.6815 -7.6545 -9.628 -10.6605 -7.594501 -8.780001 -9.277 -10.4425 -7.412001 -6.8735 -7.406501 -9.389501 -7.915501 -8.7685 -7.1535 -10.4345 -9.2685 -10.2865 -9.6745 -9.370501 -5.866 -5.106 -6.1885 -8.273001 -7.875 
-9.089001 -9.392 -7.916 -12.3257 -11.4675 -10.6965 -12.9761 -10.8227 -12.6853 -12.1387 -7.8085 -10.2645 -11.6102 -10.0895 -12.904 -9.493001 -11.607 -13.985 -12.5891 -11.587 -13.1344 -9.967501 -6.338 -8.388 -9.262001 -8.273001 
-9.6155 -12.7339 -12.6606 -14.1652 -11.5035 -16.0781 -15.0188 -14.231 -14.3815 -12.5352 -11.2593 -14.654 -12.3102 -15.345 -13.6285 -14.3347 -15.1575 -17.3056 -13.8896 -15.0469 -13.7314 -10.286 -9.7995 -11.6413 -9.262001 
-4.237 -7.626 -4.641 -3.893 -1.4985 -7.66 -1.756 -3.321 -7.66 -4.157 -7.626 -3.074 -4.157 
-11.136 -12.82 -5.812 -4.573 -8.595 -8.722 -4.0055 -11.8894 -12.3846 -13.0552 -10.66 -6.1595 
-16.33 -13.991 -6.193 -12.2431 -9.737 -11.3629 -13.0135 -16.614 -21.2828 -16.0892 -13.7455 
-17.501 -14.372 -14.4003 -13.3851 -12.3977 -20.3709 -17.7381 -25.5122 -24.3168 -19.1747 
-17.882 -22.5793 -15.5423 -16.0458 -21.4057 -25.0955 -26.6363 -28.5462 -27.4023 
