-4.759 
n/a 
n/a 
n/a 
n/a 
-4.759 
n/a 
n/a 
n/a 
n/a 
-4.759 
n/a 
n/a 
n/a 
n/a 
-4.759 
n/a 
n/a 
n/a 
n/a 
-2.925 -3.7555 -4.4445 -2.5195 -5.2545 -1.756 -3.952 -1.7695 -7.241 -3.2875 
-5.431 -9.590501 -6.1625 -7.330501 -6.484 -5.3685 -4.9895 -9.5155 -10.8215 
-11.5698 -10.6235 -11.8423 -8.599501 -10.9955 -6.42 -13.1109 -13.1922 
-12.6028 -16.3033 -13.1113 -13.2024 -12.047 -14.9306 -16.7876 
-18.2826 -17.5723 -17.7142 -14.2539 -20.5576 -18.6073 
-3.2615 -2.9805 -3.7555 -3.091 -4.3755 -1.7565 -3.5895 -2.5195 -5.2545 -7.753 -5.3595 0 -2.9805 -5.7565 -1.4985 -4.5735 -3.2875 -1.7565 -3.982 0 -5.1135 -3.2875 0 
-5.2875 -5.3095 -5.822001 -7.3555 -4.5345 -4.8595 -5.3295 -7.330501 -14.9475 -15.276 -5.3595 -2.9805 -7.778501 -7.4805 -5.271 -6.4925 -4.3315 -5.614 -3.982 -5.1135 -7.4425 -3.2875 
-7.0675 -6.5035 -10.1305 -7.7515 -8.3275 -6.569 -9.731001 -17.8955 -20.969 -15.3074 -7.956 -7.778501 -10.155 -11.6606 -6.8275 -6.883 -8.5155 -5.614 -6.955501 -7.4425 -7.4425 
-8.1615 -10.985 -10.4575 -11.7075 -9.465 -11.1423 -20.5566 -23.7574 -20.969 -18.2913 -12.8594 -10.155 -14.3351 -13.2171 -7.0725 -11.7738 -8.5155 -9.349 -9.6675 -7.4425 
-12.7178 -11.312 -14.4135 -12.845 -14.1465 -21.9679 -26.4185 -23.7574 -23.9529 -23.1947 -15.2359 -14.3351 -15.8916 -13.4621 -11.9407 -11.7738 -12.5173 -12.1354 -9.6675 
-5.2545 -5.3905 -1.7695 -3.982 -2.229 -4.1955 -3.2875 -5.1135 -3.034 -2.9805 -4.4065 -3.091 -3.228 -3.4465 -1.7565 -3.091 -4.235 -2.229 -5.246 0 
-10.085 -6.104 -5.9045 -5.746 -6.298 -7.885 -7.804 -8.394501 -4.4605 -6.4685 -6.625501 -5.546 -7.5695 -4.919 -4.0655 -5.1065 -5.0915 -7.157001 -5.246 
-11.1059 -9.717 -7.385 -9.016001 -9.5375 -12.7241 -11.7104 -9.321 -8.238001 -7.0535 -10.2485 -10.159 -9.651001 -7.64 -6.108 -5.8285 -8.5965 -7.157001 
-14.7189 -11.3931 -10.374 -12.3643 -14.858 -16.6305 -12.6369 -13.2753 -9.0085 -10.6465 -14.8615 -12.2405 -12.4904 -8.969001 -6.7035 -8.9945 -8.5965 
-16.395 -14.3821 -13.7223 -17.6848 -18.7644 -17.557 -16.5912 -14.0458 -12.6685 -15.2595 -16.943 -15.0799 -13.8194 -8.9855 -9.522 -8.9945 
-2.9805 -5.3905 -1.7695 -5.1135 -3.034 -2.9805 -3.7555 -3.091 -3.4465 -1.7565 -3.091 -4.235 -2.229 -3.635 0 
-7.3265 -6.104 -6.771 -8.394501 -4.4605 -5.3095 -5.822001 -6.5195 -4.919 -4.0655 -5.1065 -5.0915 -5.822001 -3.635 
-8.227501 -11.4981 -9.490001 -9.321 -6.3345 -6.5035 -8.665001 -6.6925 -7.64 -6.108 -5.8285 -8.0655 -5.822001 
-13.6584 -14.2171 -10.4045 -11.3718 -7.6295 -9.357 -8.8225 -8.7965 -8.969001 -6.7035 -8.484 -8.0655 
-16.3774 -15.1316 -12.4553 -12.6668 -10.6756 -9.505 -10.9189 -9.251 -8.9855 -9.0905 -8.484 
