-4.759 
n/a 
n/a 
n/a 
n/a 
-4.759 
n/a 
n/a 
n/a 
n/a 
-4.759 
n/a 
n/a 
n/a 
n/a 
-4.759 
n/a 
n/a 
n/a 
n/a 
-4.237 -4.194 -3.4425 
-6.689 -8.132 
-11.223 
n/a 
n/a 
-3.974 -1.7565 -5.463 -1.7565 -4.237 -3.638 
-4.613 -7.253001 -9.089001 -5.66 -6.6705 
-10.2085 -11.6424 -13.2677 -7.485 
-14.7353 -15.8211 -15.0927 
-18.914 -17.6461 
-4.426 -1.7565 -1.4985 -3.0835 -4.7285 -4.1555 -7.384 -2.186 -4.9485 -3.6505 
-5.47 -2.4195 -3.535 -6.042 -8.4455 -10.958 -10.231 -5.813 -9.386 
-5.9535 -4.6785 -6.335501 -9.523001 -13.736 -11.259 -12.346 -11.2837 
-8.021 -7.476501 -10.0095 -14.898 -15.0305 -14.0361 -17.8685 
-9.983001 -11.3061 -15.4945 -16.1925 -17.8076 -19.498 
-4.237 -5.291 -3.9995 
-9.5085 -9.933001 
-14.1791 
n/a 
n/a 
