-4.759 
n/a 
n/a 
n/a 
n/a 
-4.759 
n/a 
n/a 
n/a 
n/a 
-4.759 
n/a 
n/a 
n/a 
n/a 
-4.759 
n/a 
n/a 
n/a 
n/a 
-12.16972 -2.186 -5.6605 -3.2615 -6.6585 -4.0725 -3.4075 -3.737 -1.7565 -10.488 0 
-14.35572 -8.834001 -8.743 -10.4505 -11.4896 -6.1775 -8.824501 -5.3145 -13.1937 -10.488 
-21.00372 -12.1999 -16.0806 -15.2816 -13.5946 -10.757 -10.564 -17.5021 -13.1937 
-24.36962 -19.5375 -20.9117 -17.3866 -18.1741 -12.4965 -23.105 -17.5021 
-31.70722 -24.3686 -23.0167 -21.9661 -19.9136 -25.0375 -23.105 
-3.2615 -3.8275 -12.16972 -3.0465 -2.645 -4.2785 0 
-7.115 -17.10322 -15.21622 -4.8855 -7.465501 -4.2785 
-20.74392 -20.14972 -17.05522 -9.475 -7.465501 
-23.79042 -21.98872 -21.64472 -9.475 
-25.62942 -26.57822 -21.64472 
-1.4985 -4.017 -1.7565 -12.16972 -3.251 -4.8635 -1.934 -1.4985 -4.129 -1.7565 -2.688 -4.0165 -4.348 0 
-4.9995 -5.242 -14.87542 -15.42072 -6.8455 -4.9455 -2.6125 -5.424 -6.9015 -4.2285 -6.606 -8.1145 -4.348 
-5.45 -19.47492 -18.12642 -19.01522 -6.924 -5.6805 -6.6615 -7.337501 -8.731501 -8.014501 -10.66 -8.1145 
-20.20812 -22.72592 -21.72092 -19.09372 -7.646 -10.1345 -8.636001 -9.0415 -12.7975 -12.2737 -10.66 
-23.45912 -26.32042 -21.79942 -19.81572 -12.1406 -10.3165 -10.107 -13.1393 -17.0567 -12.2737 
-2.688 -4.883 -2.186 -4.878 -1.7695 -5.29 -1.4985 -2.791 -1.7695 -4.0135 -4.3115 -2.264 -4.828 -4.9975 -1.7695 -3.8735 0 -2.0935 -3.469 -1.8085 -3.8175 -4.666 -2.264 -4.8585 -4.528 -4.883 -3.458 -1.4985 -3.2495 -3.959 
-5.259 -7.158 -6.1225 -5.349 -5.5 -6.0965 -4.3645 -4.3355 -4.613 -8.5415 -5.9875 -6.928 -8.3415 -6.041 -5.578001 -3.8735 -2.0935 -5.214 -6.036 -4.55 -8.168501 -6.3985 -7.5305 -7.03 -8.0845 -6.4065 -4.063 -4.1915 -5.837 
-7.638 -10.213 -6.4105 -7.931 -6.254 -8.515501 -6.2235 -7.12 -9.196501 -9.395 -10.181 -9.6145 -9.511001 -7.8085 -5.578001 -6.2575 -5.214 -7.958 -8.835501 -8.2685 -8.396001 -12.3178 -8.870501 -11.0879 -8.857 -6.927001 -5.0585 -6.016 
-10.31 -10.442 -8.703 -8.7135 -8.6475 -9.354001 -9.0745 -12.3061 -9.627501 -13.7199 -13.0117 -10.3055 -11.3721 -7.8085 -7.116001 -9.0825 -7.958 -10.3475 -12.6708 -8.446501 -14.6547 -13.6578 -13.1834 -11.8604 -9.084001 -7.457001 -6.345 
-10.5045 -12.7345 -9.432 -11.1566 -9.550501 -12.2502 -14.476 -12.7371 -13.9804 -16.5506 -13.7027 -12.333 -11.3721 -9.765 -9.8275 -11.9087 -10.3475 -14.1828 -12.8488 -14.7198 -15.9947 -17.9707 -13.9559 -12.0874 -9.3555 -7.737 
