-4.759 
n/a 
n/a 
n/a 
n/a 
-4.759 
n/a 
n/a 
n/a 
n/a 
-4.759 
n/a 
n/a 
n/a 
n/a 
-4.759 
n/a 
n/a 
n/a 
n/a 
-2.4265 -2.186 -3.9535 -2.0935 -12.16972 -2.5045 -12.16972 
-3.292 -5.962501 -6.204 -15.25422 -14.67422 -15.36922 
-7.2185 -7.697001 -19.98132 -17.75872 -27.53894 
-9.171 -22.18372 -22.48582 -30.62344 
-23.95512 -24.68822 -35.35054 
-6.3215 0 -3.5015 0 -6.0635 -2.3345 -15.91072 
-6.3215 -3.5015 -3.5015 -6.0635 -7.092 -17.99372 
-10.8215 -3.5015 -10.259 -7.092 -21.46632 
-10.8215 -10.259 -10.742 -21.56892 
-17.579 -10.742 -25.21892 
-3.9535 -2.857 -9.351001 -2.5045 -6.3215 
-6.2275 -13.4548 -12.4675 -8.210501 
-17.4055 -16.5713 -18.1735 
-20.522 -22.2773 
-26.228 
-12.16972 -3.557 -1.934 -6.3215 
-15.72672 -4.4175 -7.453 
-16.58722 -10.757 
-22.92672 
n/a 
