-4.759 
n/a 
n/a 
n/a 
n/a 
-4.759 
n/a 
n/a 
n/a 
n/a 
-4.759 
n/a 
n/a 
n/a 
n/a 
-4.759 
n/a 
n/a 
n/a 
n/a 
-4.246 -6.0335 -4.442 0 -3.1495 -4.0455 -2.742 -4.209 -1.756 -4.098 -5.4935 0 
-9.251 -9.116 -4.442 -3.1495 -7.757 -6.7555 -5.923 -5.9825 -5.72 -8.5805 -5.4935 
-12.5279 -9.116 -7.353001 -7.757 -10.9142 -8.863001 -7.2205 -9.755 -10.001 -8.5805 
-12.5279 -12.13 -9.9505 -10.9142 -13.0217 -10.064 -11.4198 -14.2364 -10.001 
-15.5419 -14.7275 -13.1077 -13.0217 -14.2227 -14.2633 -15.9012 -14.2364 
-3.2295 -3.979 -6.0335 -4.442 0 -6.9285 -1.756 -4.2135 -2.186 -4.62 0 
-7.618 -11.1897 -9.116 -4.442 -6.9285 -7.9415 -5.324 -6.474 -5.6655 -4.62 
-15.3869 -14.2722 -9.116 -9.8785 -7.9415 -11.9283 -7.8525 -9.235001 -5.6655 
-18.4694 -14.2722 -14.6555 -11.0973 -11.9283 -14.4568 -10.7631 -9.235001 
-18.4694 -19.8117 -15.8743 -15.0841 -14.4568 -17.3674 -10.7631 
-3.383 -3.5905 -4.25 -4.0455 0 -6.9285 -1.756 -5.4975 -3.8225 
-5.951 -8.011001 -7.414 -4.0455 -6.9285 -7.9415 -6.3645 -8.7115 
-10.733 -11.9612 -7.414 -9.098001 -7.9415 -12.9688 -8.808001 
-14.6832 -11.9612 -13.0773 -9.7945 -12.9688 -15.4123 
-14.6832 -17.6245 -13.7738 -14.984 -15.4123 
-4.524 -4.684 0 -6.9285 -1.756 -3.074 -4.2135 -2.186 -4.0535 
-9.923 -4.684 -6.9285 -7.9415 -4.566 -7.574 -6.474 -5.8495 
-9.923 -12.6561 -7.9415 -11.1703 -8.929501 -10.2467 -10.3345 
-18.0817 -13.6691 -11.1703 -15.5338 -11.7308 -14.1072 
-19.0947 -16.8979 -15.5338 -18.3351 -15.5913 
