-4.759 
n/a 
n/a 
n/a 
n/a 
-4.759 
n/a 
n/a 
n/a 
n/a 
-4.759 
n/a 
n/a 
n/a 
n/a 
-4.759 
n/a 
n/a 
n/a 
n/a 
-8.840501 0 -2.229 0 -3.5905 0 
-8.840501 -2.229 -2.229 -3.5905 -3.5905 
-10.674 -2.229 -6.1755 -3.5905 
-10.674 -6.1755 -6.1755 
-14.6205 -6.1755 
-10.4975 0 -4.294 0 -3.5905 0 
-10.4975 -4.294 -4.294 -3.5905 -3.5905 
-14.7915 -4.294 -7.2375 -3.5905 
-14.7915 -7.2375 -7.2375 
-17.735 -7.2375 
-12.16972 -2.229 0 -3.5905 0 
-14.39872 -2.229 -3.5905 -3.5905 
-14.39872 -6.1755 -3.5905 
-18.34522 -6.1755 
-18.34522 
-14.39872 
n/a 
n/a 
n/a 
n/a 
