-4.759 
n/a 
n/a 
n/a 
n/a 
-4.759 
n/a 
n/a 
n/a 
n/a 
-4.759 
n/a 
n/a 
n/a 
n/a 
-4.759 
n/a 
n/a 
n/a 
n/a 
-5.4945 -2.8645 -3.2015 -2.5195 -1.4985 -3.1385 -3.4765 -3.5455 -3.634 -3.5215 -5.865 -1.756 -4.128 0 
-7.9095 -6.688 -5.1835 -3.1695 -4.2575 -6.239 -6.145 -6.639 -6.0365 -9.75 -7.005 -5.633 -4.128 
-11.8934 -7.779 -5.708 -5.958 -7.579 -8.897 -9.415001 -8.523001 -12.8358 -10.9994 -11.5096 -5.633 
-12.9844 -8.389 -7.9505 -9.37 -10.134 -12.3982 -10.397 -15.4231 -14.0852 -15.504 -11.5096 
-13.5944 -10.7343 -11.8271 -12.145 -13.7504 -13.3802 -17.2971 -16.6725 -18.5898 -15.504 
-4.426 -1.7565 -1.4985 -3.6115 -4.7285 -4.1555 -6.2485 -1.8085 -3.4795 -1.4985 -4.7115 -1.756 -4.3565 -2.9705 -3.9765 -1.4985 -3.1385 -3.383 -4.668 0 
-5.47 -2.4195 -4.081 -6.5495 -8.4455 -8.332001 -7.658 -6.392 -5.2895 -5.719 -5.9375 -6.672 -6.618 -7.549001 -5.1365 -4.2575 -6.726501 -6.352 -4.668 
-5.9535 -5.180501 -6.670501 -9.978001 -12.6115 -10.9905 -9.4725 -8.043 -10.204 -7.538 -11.8013 -8.977501 -11.7843 -9.267501 -7.6455 -8.076 -9.6125 -6.352 
-8.462501 -7.797 -10.054 -14.1224 -15.1788 -13.2463 -11.135 -13.0659 -11.6844 -13.8126 -14.1068 -14.2054 -13.5028 -11.8349 -11.8682 -11.0996 -9.6125 
-10.2375 -11.2985 -14.2348 -16.6897 -17.0178 -14.6952 -16.1881 -14.5463 -17.959 -16.1181 -19.3347 -15.9239 -16.0702 -16.0576 -14.8918 -11.0996 
-3.634 -2.95 -4.6845 -1.756 -3.1385 -4.177 -2.186 -3.383 -4.668 0 
-7.1115 -7.436 -5.9855 -5.0125 -7.877 -5.8015 -4.438 -6.352 -4.668 
-12.0865 -7.602 -9.3575 -9.9585 -9.68 -7.8985 -7.714001 -6.352 
-12.2525 -12.96 -14.4133 -11.6927 -12.0734 -11.5179 -7.714001 
-17.6105 -18.0158 -16.1475 -14.0861 -15.6928 -11.5179 

n/a 
n/a 
n/a 
n/a 
