-4.759 
n/a 
n/a 
n/a 
n/a 
-4.759 
n/a 
n/a 
n/a 
n/a 
-4.759 
n/a 
n/a 
n/a 
n/a 
-4.759 
n/a 
n/a 
n/a 
n/a 
-8.958 0 -5.1645 0 
-9.548 -5.1645 -5.1645 
-15.6628 -5.1645 
-15.6628 
n/a 
-4.393 0 -9.777 0 -5.1645 0 
-4.393 -9.777 -9.777 -5.1645 -5.1645 
-14.538 -9.777 -14.9975 -5.1645 
-14.538 -14.9975 -14.9975 
-19.7585 -14.9975 
-4.393 0 -12.16972 0 -5.1645 0 
-4.393 -12.16972 -12.16972 -5.1645 -5.1645 
-16.93072 -12.16972 -17.33422 -5.1645 
-16.93072 -17.33422 -17.33422 
-22.09522 -17.33422 
-4.393 0 -7.9265 0 -5.1645 0 
-4.393 -7.9265 -7.9265 -5.1645 -5.1645 
-11.046 -7.9265 -10.862 -5.1645 
-11.046 -10.862 -10.862 
-13.9815 -10.862 
