-4.759 
n/a 
n/a 
n/a 
n/a 
-4.759 
n/a 
n/a 
n/a 
n/a 
-4.759 
n/a 
n/a 
n/a 
n/a 
-4.759 
n/a 
n/a 
n/a 
n/a 
-2.4265 -3.7905 -1.7695 -7.245 -3.4625 -2.664 -8.445001 0 
-6.357 -6.848001 -9.989 -11.5995 -6.285 -12.3274 -8.445001 
-8.8535 -15.3643 -14.3435 -14.422 -16.4914 -12.3274 
-17.3838 -19.7188 -17.166 -24.6284 -16.4914 
-21.7383 -22.5413 -27.3724 -24.6284 
-2.5045 -1.4985 -3.4795 -4.349 -2.3345 -1.4985 -3.098 0 -8.6685 0 -4.164 -3.222 0 -7.5605 0 
-3.583 -5.2115 -7.2275 -5.567 -3.233 -4.3095 -3.098 -8.6685 -8.6685 -4.164 -6.4655 -3.222 -7.5605 -7.5605 
-6.843 -7.7985 -8.4985 -5.9785 -5.8835 -4.3095 -12.1599 -8.6685 -13.2081 -6.4655 -6.4655 -10.985 -7.5605 
-8.052501 -8.9785 -9.528 -9.6515 -5.8835 -13.9316 -12.1599 -13.2081 -15.5096 -6.4655 -14.4779 -10.985 
-9.224501 -10.159 -13.2922 -9.6515 -15.7372 -13.9316 -16.6995 -15.5096 -15.5096 -14.4779 -14.4779 
-2.264 -3.6515 -3.4795 -8.445001 -2.5045 -1.8085 -4.8865 -1.7565 -8.6685 
-5.3995 -8.502001 -12.9713 -11.6813 -3.3625 -7.758 -7.4575 -10.2435 
-10.19 -18.4738 -16.2076 -12.5393 -10.2435 -10.092 -16.2199 
-20.1618 -21.7101 -17.0656 -19.4203 -12.5775 -18.8544 
-23.3981 -22.5681 -23.9466 -21.7543 -21.3399 
-3.193 -2.3345 -3.193 -4.287 -3.098 -8.6685 -1.7695 -7.5605 0 
-5.4175 -5.5015 -8.0045 -6.9835 -12.1599 -10.8136 -10.022 -7.5605 
-5.8765 -9.998 -11.014 -17.2916 -14.305 -19.0661 -10.022 
-10.0745 -13.0075 -21.3221 -19.4367 -22.5575 -19.0661 
-13.084 -23.3156 -23.4672 -27.6892 -22.5575 
