-4.759 
n/a 
n/a 
n/a 
n/a 
-4.759 
n/a 
n/a 
n/a 
n/a 
-4.759 
n/a 
n/a 
n/a 
n/a 
-4.759 
n/a 
n/a 
n/a 
n/a 
-1.8085 -3.493 -3.458 -7.261 -1.756 -4.95 -1.934 -4.3105 -9.525001 -3.7455 -6.339 -3.3755 -1.7695 -4.2635 -1.4985 -5.28 -7.4775 -1.756 -3.8805 -3.2295 -3.45 -4.7505 -1.7695 -1.4985 -3.1385 -3.0695 -2.4945 -4.4435 -3.277 -2.0935 -1.8085 -4.103 -3.8405 -1.7565 -2.95 0 
-4.836 -7.2285 -10.4595 -8.4975 -6.887 -7.073 -6.008 -15.2495 -10.1035 -8.5635 -7.08 -3.992 -4.6145 -4.9175 -6.8335 -7.798 -8.868 -5.695 -5.9075 -6.2345 -6.95 -6.416 -2.7955 -4.2575 -4.286 -4.2085 -6.134501 -6.6625 -4.957 -3.385 -5.48 -6.1325 -4.563 -4.3865 -2.95 
-8.3225 -14.4284 -10.6885 -14.1303 -8.5415 -10.1945 -17.6822 -15.828 -14.9215 -9.3465 -8.1905 -6.772 -5.314 -11.1161 -9.266001 -9.0135 -12.9742 -7.308 -8.5105 -9.028501 -8.2685 -7.081 -5.4345 -5.1225 -5.128 -7.577001 -8.086 -7.9975 -6.0555 -6.221001 -6.273 -6.4715 -5.099 -4.3865 
-15.7682 -14.6574 -16.3213 -15.7848 -11.855 -21.8687 -18.2607 -20.646 -15.7045 -11.0372 -11.4695 -7.461501 -11.5294 -13.5486 -10.8491 -13.1673 -14.5872 -9.788 -11.5301 -10.3105 -8.820001 -9.4505 -6.28 -6.092 -8.634001 -9.3625 -9.576 -8.9355 -8.46 -6.589001 -6.543 -6.547 -5.099 
-15.9972 -20.2902 -17.9758 -19.0983 -23.5292 -22.4472 -23.0787 -21.429 -17.3952 -14.3162 -12.159 -13.9217 -13.9619 -15.1317 -15.0029 -14.7803 -17.0672 -12.9134 -12.8121 -10.608 -11.5893 -10.3695 -7.272 -9.144501 -10.1145 -10.8101 -10.5875 -10.5755 -8.7685 -6.8725 -6.6105 -6.547 
-1.934 -1.4985 -3.493 -1.7565 -7.6365 -4.809 -4.95 -2.9705 -4.215 -1.934 -4.285 -3.7455 -1.7565 -3.8655 0 -3.45 -3.873 -7.043 -2.3345 -5.59 0 -4.3755 -2.3615 -2.8645 -3.1125 -4.504 -2.5045 -5.28 -7.4775 -4.164 -1.756 -5 -3.2295 -1.7695 -4.2085 -4.303 -3.5855 -1.756 -6.38 
-2.6125 -4.207 -4.416 -9.3655 -13.0719 -10.335 -7.962501 -7.774501 -5.8025 -5.9955 -8.2995 -4.7725 -5.196 -3.8655 -3.45 -7.8935 -9.241501 -8.418 -7.129001 -5.59 -4.3755 -6.852 -4.878 -3.5345 -6.053 -5.1795 -7.9665 -7.798 -12.2593 -5.7745 -6.353 -6.0585 -4.92 -6.448 -8.0445 -6.358 -5.226 -7.832 
-4.6565 -4.6365 -12.2092 -14.8767 -18.5979 -13.3475 -12.9709 -10.1425 -10.159 -10.096 -9.776001 -6.853 -5.196 -8.156501 -7.8935 -13.7754 -10.002 -13.4043 -7.129001 -10.1855 -6.852 -8.693001 -5.359 -6.695 -7.0135 -10.553 -9.191001 -12.8176 -13.8698 -10.3615 -7.1935 -6.351 -10.27 -10.757 -10.19 -7.707 -12.5308 
-4.7345 -12.4885 -17.7204 -20.4027 -21.6104 -18.3559 -15.3389 -14.6738 -14.6253 -11.5725 -12.0857 -6.853 -8.981 -12.758 -13.7754 -14.5359 -14.9951 -13.4043 -12.1177 -12.662 -8.693001 -9.0705 -8.986501 -7.617 -12.591 -10.7745 -14.3032 -14.4281 -18.4568 -11.202 -7.4495 -12.1872 -14.579 -12.9025 -11.9472 -15.71 
-12.6511 -17.9997 -23.2464 -23.4152 -26.6188 -20.7239 -19.8702 -19.1401 -16.1018 -13.8822 -12.0857 -10.586 -13.8983 -18.6399 -14.5359 -19.529 -14.9951 -18.393 -14.5942 -14.503 -9.0705 -12.8094 -9.316 -13.5383 -12.8125 -15.8867 -15.9137 -19.0151 -19.2973 -11.458 -13.4103 -16.4962 -16.7245 -14.6597 -19.9502 
-1.4985 -3.873 -2.9705 -2.7415 -3.325 -1.4985 -5.0515 -1.7565 -3.875 -2.7415 -3.998 -2.5045 -5.28 -7.4775 -2.7415 -4.164 -1.756 -3.7855 -1.7695 -3.45 -3.0695 -2.7415 -3.7875 -3.45 -2.5045 -5.79 -3.635 -3.2615 -1.4985 -4.3105 -3.299 -3.7455 -4.0875 -1.4985 -3.5825 -4.0505 -1.7565 -8.0495 -4.809 -4.95 -3.634 
-4.7405 -6.259501 -4.512 -5.7585 -3.898 -5.901 -5.5125 -5.1745 -6.528 -6.126 -6.3415 -7.9665 -7.798 -9.216001 -5.8395 -5.7745 -5.6055 -4.793 -4.5965 -4.273 -4.6395 -5.738 -6.955 -6.5215 -8.3485 -8.452001 -6.823 -4.032 -4.977 -7.336 -5.544001 -7.217 -5.0195 -4.6155 -5.2545 -4.832 -10.1945 -13.3619 -10.335 -9.321501 
-6.815001 -7.4585 -7.397501 -6.248 -9.29 -6.2035 -7.814001 -7.4505 -10.001 -8.531 -12.3423 -9.191001 -9.2395 -12.434 -7.2825 -9.17 -6.716001 -6.626 -5.2565 -8.135 -7.373001 -8.981501 -9.554001 -12.7523 -10.4595 -11.8326 -7.4325 -7.941 -7.732 -8.276501 -8.8955 -7.8585 -8.552501 -5.7005 -6.087 -14.0662 -15.5069 -18.8879 -14.7065 
-8.049001 -9.5795 -7.936 -12.3334 -9.428 -8.317 -9.391001 -11.0423 -12.7698 -14.932 -13.5668 -10.7251 -12.4579 -13.877 -10.426 -10.355 -8.723001 -7.1185 -9.85 -10.9883 -11.0445 -10.007 -16.0872 -14.8633 -13.8401 -12.4421 -11.7321 -10.634 -8.4375 -11.8796 -9.529 -11.9799 -9.8105 -6.1605 -16.384 -19.3786 -21.0329 -23.2594 
-10.1425 -10.136 -14.3372 -12.4714 -11.9223 -9.670501 -13.1118 -13.8111 -19.1708 -16.1565 -15.1009 -13.9435 -13.9009 -17.0205 -11.611 -12.362 -9.040501 -11.9534 -12.7033 -14.6598 -12.07 -17.1926 -18.1982 -18.2439 -14.4496 -16.7417 -14.4251 -11.3395 -12.1964 -12.5131 -13.9126 -13.2379 -10.4885 -16.6229 -21.6964 -24.9046 -25.4044 
-1.4985 -3.873 -2.5045 -5.28 -7.6875 -2.7415 -4.559 -4.503 -3.7095 
-4.7405 -6.193 -7.9665 -9.652 -10.862 -5.8975 -8.535 -7.507501 
-6.8135 -10.368 -12.6907 -12.8587 -14.018 -9.47 -12.3279 
-10.66 -15.485 -15.8974 -16.0147 -17.5905 -13.4683 
-15.9734 -18.6917 -19.0534 -19.5872 -21.5888 
