-4.759 
n/a 
n/a 
n/a 
n/a 
-4.759 
n/a 
n/a 
n/a 
n/a 
-4.759 
n/a 
n/a 
n/a 
n/a 
-4.759 
n/a 
n/a 
n/a 
n/a 
-1.934 -3.8195 -3.3155 -1.4985 -5.378 -2.186 -4.8665 0 -4.2335 -2.674 -1.7695 -4.866 -2.356 -3.345 -2.8965 -2.0935 -5.34 0 
-5.2935 -5.403 -4.1745 -6.292001 -7.169001 -6.731 -4.8665 -4.2335 -6.3895 -3.787 -5.2455 -5.517 -4.841001 -4.4605 -5.7875 -7.743001 -5.34 
-6.0185 -6.225 -8.6555 -7.586501 -10.0375 -6.731 -9.418501 -6.3895 -8.0295 -6.803 -5.873 -7.024 -5.2625 -6.101 -9.9455 -7.743001 
-6.841001 -9.7355 -9.194501 -10.3815 -10.0375 -12.0786 -11.6329 -8.0295 -10.111 -7.134 -7.665 -7.0305 -6.894001 -9.948001 -9.9455 
-10.1105 -10.2405 -12.1513 -10.3815 -15.3765 -14.293 -13.2729 -10.111 -10.41 -8.678 -7.6725 -7.755 -9.995001 -9.948001 
-4.442 -3.383 -4.181 -1.756 -8.991501 -2.0935 -4.2335 0 
-7.9855 -6.3275 -5.672 -11.9605 -13.2515 -6.3625 -4.2335 
-10.674 -7.264501 -16.485 -15.6895 -18.0405 -6.3625 
-11.611 -18.7011 -19.8452 -20.4785 -18.0405 
-23.0476 -21.6881 -24.6342 -20.4785 
-2.645 -4.442 -4.088 -4.221 -2.356 -2.8965 -6.605 0 -2.0935 -4.591 
-6.881001 -8.661001 -9.1365 -5.926 -4.4085 -10.0285 -6.605 -2.0935 -6.829 
-11.6056 -14.2359 -10.9563 -7.1835 -11.9477 -10.0285 -10.0345 -6.829 
-17.1805 -16.0557 -12.2138 -14.9739 -11.9477 -13.458 -14.812 
-19.0003 -17.3132 -20.0042 -14.9739 -15.3772 -18.2355 
-4.2335 -3.9615 -5.285 -4.442 -2.8645 -1.7695 -4.866 -2.0935 -5.34 0 
-7.707 -8.994501 -8.1715 -7.451 -4.4755 -6.125501 -5.726 -7.743001 -5.34 
-12.9736 -12.1038 -11.4185 -9.375501 -7.83 -7.222001 -10.451 -7.743001 
-16.0829 -15.3508 -13.343 -13.0474 -8.434 -12.2988 -10.451 
-19.3299 -17.2753 -17.0149 -13.6514 -14.3344 -12.2988 
