-4.759 
n/a 
n/a 
n/a 
n/a 
-4.759 
n/a 
n/a 
n/a 
n/a 
-4.759 
n/a 
n/a 
n/a 
n/a 
-4.759 
n/a 
n/a 
n/a 
n/a 
-3.5195 -5.4145 -1.4985 -2.5645 -4.524 -4.625 -5.3305 -3.152 -3.9595 -3.251 -2.5195 -5.3785 -12.16972 -3.034 -2.9805 -4.3285 -2.3335 -2.9805 -10.3565 
-8.943501 -7.4245 -5.093 -6.924001 -6.9145 -7.0625 -7.407001 -5.4355 -6.4995 -5.146 -7.625501 -18.40802 -15.20372 -4.4605 -6.4465 -6.1405 -4.1515 -14.7394 
-10.474 -11.614 -10.1279 -9.889501 -10.051 -9.293 -9.491 -7.824501 -8.285 -10.8672 -21.03542 -21.44202 -16.63022 -7.566501 -7.7705 -7.891 -16.6844 
-14.9055 -17.1237 -13.0934 -12.96 -12.2815 -11.4446 -10.704 -9.6575 -14.2866 -24.27712 -24.06942 -22.86852 -19.73622 -9.521501 -8.801001 -20.7617 
-20.1472 -20.0892 -16.1639 -15.1905 -14.4331 -12.6576 -12.537 -15.6905 -27.69652 -27.31112 -25.49592 -25.97452 -21.69122 -10.5245 -21.9291 
-3.5195 -2.846 0 -4.39 -4.286 -1.756 -4.0395 -1.4985 -8.863001 -7.441 -2.5645 -4.524 -3.9795 -1.7695 -3.5865 0 
-5.498 -2.846 -4.39 -9.050501 -5.3085 -5.1495 -6.023 -11.4553 -16.5738 -10.3345 -6.924001 -9.129 -5.853001 -4.73 -3.5865 
-5.498 -7.91 -9.050501 -10.486 -10.2035 -7.3135 -16.28 -19.1661 -19.4673 -15.2226 -12.5728 -11.2479 -9.85 -4.73 
-11.6156 -13.2367 -10.486 -15.381 -12.2083 -18.2093 -23.9908 -22.0596 -24.3554 -20.8714 -14.6917 -15.2449 -9.85 
-16.9423 -14.6722 -15.381 -17.3858 -23.1041 -25.9201 -26.8843 -26.9477 -30.0042 -22.9903 -18.6887 -15.2449 
-3.5195 -6.1075 -4.9735 -4.0035 -4.286 -3.4975 -4.1285 -5.0175 -5.3785 -10.651 0 -3.8445 -4.524 -4.625 -3.9035 -3.152 -3.9595 -3.251 
-9.377501 -10.5305 -9.533501 -6.8685 -8.05 -7.0315 -6.862 -10.5135 -16.8893 -10.651 -3.8445 -8.610001 -6.9145 -9.063 -6.3195 -5.4355 -6.4995 
-12.847 -15.5873 -12.6027 -11.2591 -12.3154 -9.546 -13.101 -22.0243 -16.8893 -14.6637 -8.610001 -11.5561 -12.5859 -11.7156 -9.72 -7.824501 
-18.1502 -18.7065 -16.9933 -15.5245 -14.8299 -16.0246 -24.6118 -22.0243 -20.902 -19.4292 -11.5561 -17.2275 -15.2385 -15.1161 -12.3492 
-21.2194 -23.0971 -21.2587 -18.039 -21.3085 -27.5354 -24.6118 -26.037 -25.6675 -22.3753 -17.2275 -19.8801 -18.639 -17.7453 
-3.5195 -2.846 -2.791 -7.723001 -5.3785 -4.15 -2.229 -4.625 -5.3305 -5.217 -2.5195 -3.332 -3.433 -1.7565 -8.008 -4.3395 0 
-5.498 -6.833 -11.4718 -13.7337 -8.489 -6.164001 -5.997 -7.0625 -11.6339 -5.933001 -5.126 -6.264501 -4.1845 -10.1 -13.0507 -4.3395 
-9.8675 -16.1262 -17.4825 -16.8442 -10.6954 -10.5325 -9.120501 -13.8909 -12.3499 -8.719001 -8.096001 -7.166501 -13.4174 -15.1427 -13.0507 
-19.2333 -22.1369 -20.593 -19.0506 -15.0639 -13.656 -16.1105 -14.6069 -15.1359 -11.8116 -8.9245 -16.9312 -18.4601 -15.1427 
-25.244 -25.2474 -22.7994 -23.4191 -18.1874 -20.646 -16.8265 -17.3929 -18.2285 -12.6401 -18.666 -21.9739 -18.4601 
