-4.759 
n/a 
n/a 
n/a 
n/a 
-4.759 
n/a 
n/a 
n/a 
n/a 
-4.759 
n/a 
n/a 
n/a 
n/a 
-4.759 
n/a 
n/a 
n/a 
n/a 
-4.71 0 -4.4895 -2.264 -5.1845 -3.655 -2.5045 -1.8085 -3.736 -4.0915 0 
-4.71 -4.4895 -6.4115 -7.422001 -9.061001 -5.7685 -3.3625 -4.6915 -8.031 -4.0915 
-9.256001 -6.4115 -12.3347 -11.9999 -11.2797 -6.259 -5.691 -8.745001 -8.031 
-11.4778 -12.3347 -16.9126 -14.2186 -11.7702 -9.277 -8.989 -8.745001 
-17.401 -16.9126 -19.1313 -14.7091 -14.7882 -10.5755 -8.989 
-1.934 -4.71 -6.3835 -3.9825 -1.7695 -3.685 -3.535 -3.736 -1.934 -5.1845 -3.8195 
-5.951 -11.7253 -11.1415 -5.7625 -4.9795 -7.504001 -6.497 -5.539 -6.564 -6.896501 
-13.4287 -16.4833 -12.9215 -8.7065 -8.7375 -11.2526 -7.844501 -10.375 -8.638 
-18.1867 -18.2633 -15.8655 -12.9989 -13.0983 -12.6001 -13.0131 -12.7344 
-19.9667 -21.2073 -20.1579 -17.3597 -14.4458 -17.7687 -15.3725 
-9.1995 -2.5045 -5.1845 -3.8195 -3.655 -3.736 -4.0915 
-10.922 -8.208 -6.896501 -5.969501 -8.3095 -8.031 
-17.5167 -10.586 -8.322001 -10.4265 -13.3631 
-19.8947 -12.0115 -13.1064 -15.7471 
-21.3202 -16.7959 -18.427 
-4.71 0 -2.9805 -4.4895 -2.5045 -1.8085 -3.736 -4.681 -1.934 -5.1845 -3.8195 -3.655 
-4.71 -2.9805 -6.522 -6.1555 -3.3625 -4.6915 -7.154 -6.131001 -6.564 -6.896501 -5.969501 
-7.101 -6.522 -8.703 -6.7905 -5.691 -7.658501 -8.497001 -9.6 -8.638 -8.322001 
-9.83 -8.703 -9.5535 -9.721001 -8.132501 -8.661 -11.859 -10.5875 -8.838 
-12.3524 -9.5535 -12.5206 -12.4279 -8.830001 -12.0704 -12.8465 -10.7535 
