-4.759 
n/a 
n/a 
n/a 
n/a 
-4.759 
n/a 
n/a 
n/a 
n/a 
-4.759 
n/a 
n/a 
n/a 
n/a 
-4.759 
n/a 
n/a 
n/a 
n/a 
-3.188 -4.0005 -3.16 -3.882 -4.656 -1.7565 -4.5125 -4.0045 -3.815 -3.5025 -1.756 -3.882 -2.4265 -4.4005 -1.7695 -4.4755 -2.4265 -1.934 -1.8085 -4.5555 -4.017 -1.756 -4.5555 -4.412 0 
-4.969501 -5.2365 -7.4595 -9.816501 -4.96 -5.856501 -8.654501 -6.8385 -6.269001 -5.073 -5.047 -4.72 -5.217 -4.888 -5.448 -6.444 -4.3385 -3.2685 -5.5345 -7.7475 -5.202 -5.693 -7.331 -4.412 
-5.246 -8.847 -13.8602 -10.625 -7.9465 -9.854501 -12.0821 -8.760501 -7.652501 -8.763 -6.22 -5.903501 -5.587 -8.192 -7.245 -8.3645 -5.353 -6.867001 -9.953501 -9.3695 -9.884501 -8.064 -7.331 
-8.849501 -15.4535 -14.6687 -13.6115 -11.9963 -13.5397 -14.0041 -9.848001 -11.5539 -9.488 -7.2365 -6.1675 -8.660501 -9.991501 -9.102501 -9.1215 -9.2165 -11.952 -12.1169 -14.27 -12.2555 -8.064 
-15.4566 -16.262 -17.6552 -17.6613 -15.6815 -15.4617 -15.0916 -13.8588 -12.2789 -10.69 -7.443501 -9.1075 -10.5745 -11.849 -10.0505 -13.1184 -14.5563 -14.1154 -17.0174 -16.641 -12.2555 
-3.188 -3.5025 -2.186 -6.753 -2.4945 -4.894 -1.756 -5.103 -3.1575 -3.769 
-6.8925 -5.481 -10.335 -8.2475 -6.3295 -6.5535 -6.1485 -8.789001 -5.38 
-9.114 -14.4516 -11.8295 -12.4423 -8.028001 -11.9476 -10.025 -10.3685 
-18.3688 -15.9461 -16.0243 -14.1408 -13.6391 -15.8241 -11.6045 
-19.8633 -20.1409 -17.7228 -19.7519 -17.5156 -17.4036 
-3.188 -4.0005 -3.16 0 -5.593 -3.6955 -2.5195 -3.5025 -3.3755 0 -4.3435 -2.186 -9.825001 -3.1435 -4.0395 -2.9705 -3.43 -2.4265 -3.768 -2.0935 -4.0215 0 
-4.969501 -5.2365 -3.16 -5.593 -9.413501 -4.843 -6.0285 -8.086 -3.3755 -4.3435 -5.999 -10.7665 -13.1759 -6.358 -6.192 -5.781 -4.849 -5.097 -5.1955 -4.962501 -4.0215 
-5.246 -5.2365 -9.1645 -9.413501 -9.693001 -8.7305 -11.2054 -8.086 -8.627001 -5.999 -15.1957 -14.1174 -16.3904 -8.546 -8.946501 -6.5385 -6.163 -5.781 -7.392 -4.962501 
-5.246 -11.7668 -13.4176 -9.693001 -13.9907 -14.0938 -11.2054 -13.6037 -10.2335 -15.1957 -18.5466 -17.3319 -18.5784 -11.4241 -9.672001 -7.5725 -6.5185 -7.9095 -7.392 
-11.8913 -16.0199 -13.6971 -13.9907 -19.354 -14.0938 -16.7231 -15.2102 -19.4302 -18.5466 -21.7611 -19.5199 -21.4565 -12.1496 -10.5775 -7.988501 -8.8675 -7.9095 
-4.1865 -3.432 -2.186 -2.915 -1.7565 -3.3755 -1.934 -3.5025 0 -1.4985 -4.771 -1.7695 -4.4755 -2.186 -3.768 0 
-7.476501 -5.681 -6.071 -5.2705 -5.4165 -5.0985 -5.476501 -3.5025 -1.4985 -5.626 -5.7035 -5.448 -6.674 -4.7835 -3.768 
-10.111 -10.041 -8.224001 -9.645901 -7.1315 -8.987 -5.476501 -5.693501 -5.626 -6.062 -9.114 -8.462001 -9.401001 -4.7835 
-14.8752 -12.4198 -12.9912 -11.3609 -11.236 -8.987 -8.352 -9.7405 -6.062 -9.2445 -12.624 -11.485 -9.401001 
-17.254 -17.187 -14.7062 -15.4654 -11.236 -11.8639 -12.5346 -10.6133 -9.2445 -12.9153 -15.647 -11.485 
