-4.759 
n/a 
n/a 
n/a 
n/a 
-4.759 
n/a 
n/a 
n/a 
n/a 
-4.759 
n/a 
n/a 
n/a 
n/a 
-4.759 
n/a 
n/a 
n/a 
n/a 
-2.3615 -6.434 -4.35 -2.186 -3.458 -4.6985 0 -3.4715 -4.1455 -1.756 -3.8245 -3.681 0 
-9.3715 -10.932 -5.8735 -5.6835 -8.258 -4.6985 -3.4715 -6.408 -5.5035 -5.5 -6.1385 -3.681 
-14.1117 -12.4555 -8.334001 -10.9305 -8.258 -7.752 -6.408 -7.658 -8.9285 -7.7435 -6.1385 
-15.6352 -14.916 -14.3184 -10.9305 -10.6095 -10.485 -7.658 -11.2068 -12.3864 -7.7435 
-18.0957 -20.9004 -14.3184 -13.282 -13.3425 -12.0728 -11.2068 -14.6647 -12.3864 
-1.4985 -10.014 -2.186 -3.458 -1.4985 -3.599 0 -3.4715 -5.057 0 -1.756 -5.9385 0 
-11.0145 -12.6412 -5.6835 -4.063 -4.6155 -3.599 -3.4715 -8.335 -5.057 -1.756 -7.2435 -5.9385 
-13.6417 -16.1387 -6.4975 -7.432 -4.6155 -6.038 -8.335 -8.335 -6.5765 -7.2435 -7.2435 
-17.1392 -16.9527 -10.1035 -7.432 -7.1495 -11.8745 -8.335 -9.899 -10.3285 -7.2435 
-17.9532 -20.5587 -10.1035 -9.6815 -13.6534 -11.8745 -9.899 -13.6658 -10.3285 
-2.3615 -6.533 -6.434 -4.35 0 -12.16972 0 -3.4715 0 -3.3435 
-9.084001 -13.5288 -10.932 -4.35 -12.16972 -12.16972 -3.4715 -3.4715 -3.3435 
-16.2874 -18.0268 -10.932 -17.61852 -12.16972 -15.64122 -3.4715 -7.3365 
-20.7854 -18.0268 -24.20052 -17.61852 -15.64122 -15.64122 -7.3365 
-20.7854 -31.29532 -24.20052 -21.09002 -15.64122 -19.50622 
-3.1495 -6.434 -3.8725 -1.756 -4.712 -3.458 -6.736001 -7.6445 
-10.181 -10.1155 -5.7905 -6.402 -9.191 -10.375 -14.8509 
-13.8625 -12.0335 -10.4505 -11.2996 -16.353 -18.7717 
-15.7805 -16.6935 -16.1921 -18.4616 -24.7497 
-20.4405 -22.4351 -23.3541 -26.8583 
