-4.759 
n/a 
n/a 
n/a 
n/a 
-4.759 
n/a 
n/a 
n/a 
n/a 
-4.759 
n/a 
n/a 
n/a 
n/a 
-4.759 
n/a 
n/a 
n/a 
n/a 
-10.7225 0 -4.3615 -4.0265 -1.934 -6.557 0 -8.6415 
-10.7225 -4.3615 -8.2325 -6.0725 -7.536 -6.557 -7.8425 
-15.386 -8.2325 -9.6975 -12.2547 -7.536 -14.8245 
-19.257 -9.6975 -15.9271 -12.2547 -16.0513 
-20.722 -15.9271 -15.9271 -20.77 
-10.7225 0 -5.1845 -4.3615 -4.0915 
-10.7225 -5.1845 -10.8404 -8.207001 
-16.209 -10.8404 -14.6859 
-21.8649 -14.6859 
-25.7104 
-8.765 0 -6.557 -5.202 0 -4.2215 0 
-8.765 -6.557 -12.4484 -5.202 -4.2215 -4.2215 
-15.9332 -12.4484 -12.4484 -7.7275 -4.2215 
-21.8246 -12.4484 -14.9739 -7.7275 
-21.8246 -14.9739 -14.9739 
-7.404 -8.537001 -2.186 -1.8085 -4.3615 -4.0265 -1.7565 -6.557 
-16.3108 -10.4345 -3.164 -6.007 -8.2325 -4.985 -7.653501 
-18.2083 -11.4125 -7.2535 -9.067 -9.737501 -12.1112 
-19.1863 -15.502 -10.8749 -10.8 -16.9689 
-23.2758 -19.1234 -12.6079 -18.0314 
