-4.759 
n/a 
n/a 
n/a 
n/a 
-4.759 
n/a 
n/a 
n/a 
n/a 
-4.759 
n/a 
n/a 
n/a 
n/a 
-4.759 
n/a 
n/a 
n/a 
n/a 
-6.6585 -2.742 -2.489 -2.871 -1.7565 -1.4985 -3.9535 -2.0935 -4.4575 -4.4315 -3.2895 
-9.565001 -3.301 -4.988 -3.5385 -2.4195 -5.0085 -4.9245 -6.554 -9.9405 -10.0345 
-10.1245 -5.921 -5.192 -3.7675 -6.0525 -5.8125 -9.096001 -12.9142 -15.5435 
-12.7445 -6.155 -5.3525 -8.231501 -6.558001 -10.5268 -16.0824 -18.5172 
-12.9785 -6.32 -10.1895 -9.788 -11.4715 -17.5132 -21.6854 
-4.628 -4.743 -2.186 -2.871 -1.7565 -1.4985 -3.2825 -4.587 -3.8245 -3.5015 
-4.7515 -7.074 -4.247 -3.5385 -2.4195 -3.712 -8.151501 -7.9925 -7.5075 
-7.087 -8.655001 -4.411 -3.7675 -4.687 -8.394501 -11.983 -12.5657 
-8.659 -8.7215 -4.5655 -4.982 -9.164001 -12.4742 -16.5562 
-8.726 -8.805 -5.5725 -9.664001 -13.5889 -17.0474 
-4.628 -6.739501 -2.186 -3.307 -2.0935 -4.4575 -1.934 -4.833 -4.622 -3.188 0 
-10.6215 -8.970501 -7.210501 -4.374 -6.554 -6.282 -6.788 -10.0645 -6.9595 -3.188 
-12.8525 -14.2002 -8.48 -9.592501 -9.022501 -11.9128 -12.4881 -12.7586 -6.9595 
-18.0822 -15.4697 -13.9185 -12.0816 -14.7935 -17.6129 -15.1822 -12.7586 
-19.3517 -20.9082 -16.4076 -17.8526 -20.4936 -20.307 -15.1822 
-4.628 -4.743 -2.186 -4.1205 -2.5045 -1.4985 -4.4575 -2.229 -9.356001 -3.5015 0 
-4.7515 -7.074 -5.007 -5.3175 -3.583 -5.637501 -5.7265 -12.18 -13.2271 -3.5015 
-7.087 -9.5745 -6.317 -6.431 -7.474 -6.7025 -16.8443 -16.0511 -13.2271 
-9.577001 -10.577 -7.1455 -10.7954 -8.202001 -17.9105 -20.7154 -16.0511 
-10.5985 -11.4055 -11.6917 -11.5234 -20.0666 -21.7816 -20.7154 
