-4.759 
n/a 
n/a 
n/a 
n/a 
-4.759 
n/a 
n/a 
n/a 
n/a 
-4.759 
n/a 
n/a 
n/a 
n/a 
-4.759 
n/a 
n/a 
n/a 
n/a 
-2.5045 -3.091 -3.7515 -1.7565 -3.1255 -2.9805 -4.866 -2.356 -3.3435 -2.3345 -4.0885 -1.8085 -3.383 -4.23 -3.3435 -3.8255 -1.4985 -3.535 -3.893 -1.7565 -3.5895 -2.5195 -3.091 -3.3975 -4.424 -2.5045 -1.8085 -5.202 0 
-5.0075 -6.099 -4.6045 -5.438 -6.867001 -8.561501 -5.816 -5.901 -5.503 -6.0295 -6.041 -4.1695 -5.819 -7.696 -6.946 -4.982 -4.8385 -5.6385 -4.1785 -4.8595 -5.3295 -4.8225 -5.146 -8.0705 -6.910501 -3.3625 -6.304 -5.202 
-7.2095 -8.146501 -6.533 -8.027 -12.6804 -9.337001 -8.269501 -8.1005 -9.085001 -7.778 -8.3645 -6.574 -8.902 -11.8807 -8.5825 -8.502501 -6.866 -5.7335 -5.6345 -6.569 -7.249001 -6.8835 -10.6766 -10.177 -7.689 -6.993 -6.304 
-8.9405 -10.248 -8.0565 -14.172 -13.4559 -11.9159 -10.9526 -11.9943 -10.01 -10.3155 -11.0348 -9.5205 -13.4951 -13.5172 -12.381 -10.4505 -6.9245 -7.0955 -7.493001 -8.353001 -8.951 -12.7169 -12.7831 -10.6815 -11.7219 -6.993 
-10.7025 -11.9563 -14.2293 -14.9475 -16.0348 -14.599 -14.8464 -12.9193 -12.5475 -12.9858 -13.9813 -14.244 -15.1316 -17.3157 -14.329 -10.49 -8.279 -8.607 -9.232 -10.3215 -14.9262 -14.8234 -13.2876 -15.7882 -11.7219 
-5.2545 -5.527 -2.356 -3.091 -3.3435 -2.5045 -1.8085 -5.278 -2.356 -1.4985 -4.6555 -2.9805 -3.7555 -5.805 -1.934 -3.091 -3.7515 -1.7565 -3.1255 0 
-10.733 -6.1615 -4.513 -5.029 -5.3205 -3.3625 -6.37 -7.6425 -3.1615 -5.724501 -7.284 -5.3095 -10.5865 -7.844501 -4.2105 -6.099 -4.6045 -5.438 -3.1255 
-11.3675 -7.561501 -6.7705 -6.606 -5.8015 -6.9925 -8.355 -8.0825 -7.469501 -8.179001 -10.243 -12.5959 -12.626 -9.077001 -7.598501 -8.146501 -6.533 -5.438 
-12.7675 -10.476 -8.349001 -6.9595 -9.554501 -9.115001 -8.632 -12.8781 -9.5675 -10.7325 -17.5294 -14.6354 -13.8585 -13.2856 -9.248001 -10.248 -6.533 
-15.682 -12.0545 -8.813001 -10.4185 -11.7446 -9.457001 -13.4922 -14.9761 -12.2272 -18.0189 -19.5689 -15.8679 -18.0671 -14.9351 -11.5239 -10.248 
-5.2545 -5.527 -2.5045 -1.8085 -6.7775 -2.356 -1.8085 -3.535 -3.893 -4.6365 -2.5195 -3.091 -4.1955 -3.635 -2.264 -3.091 -3.1255 -1.934 -4.955 0 
-10.733 -7.6715 -3.3625 -7.6525 -8.519 -3.4075 -4.294 -5.6385 -8.101501 -4.8875 -4.8225 -7.166 -7.8865 -5.9505 -4.534 -7.244 -5.776 -5.8925 -4.955 
-12.8775 -8.2725 -7.915 -9.031501 -9.6055 -5.701 -5.771 -10.7186 -8.323501 -7.457001 -8.626 -11.2222 -10.523 -8.536 -8.919001 -9.463 -9.373501 -5.8925 
-13.4785 -13.1954 -9.186001 -10.316 -11.9452 -6.9245 -11.0201 -10.9406 -11.2222 -11.5081 -12.791 -13.8587 -13.1085 -13.3164 -11.2268 -13.8253 -9.373501 
-18.4014 -14.4664 -10.486 -12.6557 -13.1687 -12.7458 -11.2421 -13.8393 -15.2733 -15.6731 -15.4275 -16.4442 -17.8889 -15.6242 -15.5891 -13.8253 
-9.962501 -3.2345 -1.4985 -4.23 -3.3435 -2.0935 -3.9595 -1.4985 -6.3045 -4.045 
-13.197 -4.328 -5.015 -7.696 -5.3105 -7.74 -5.404 -7.7875 -10.9579 
-14.2905 -7.899 -8.5465 -9.859 -11.761 -9.0105 -12.1878 -12.8169 
-17.8615 -11.8361 -10.7575 -16.3443 -13.0315 -16.2841 -17.2172 
-21.7986 -14.0471 -17.2428 -17.6148 -20.3051 -21.3135 
