-4.759 
n/a 
n/a 
n/a 
n/a 
-4.759 
n/a 
n/a 
n/a 
n/a 
-4.759 
n/a 
n/a 
n/a 
n/a 
-4.759 
n/a 
n/a 
n/a 
n/a 
-4.2535 -4.082 -2.9635 -3.3365 -2.9635 -1.7565 -6.923 -5.8895 -7.757 0 -7.877 
-5.946 -6.7495 -4.747 -5.81 -4.6005 -8.924001 -8.774 -8.936001 -7.757 -7.877 
-6.8485 -9.092001 -6.632 -6.7955 -10.5745 -10.2925 -12.7323 -8.936001 -15.9874 
-10.4675 -11.7114 -9.8625 -13.2769 -12.8226 -14.3916 -12.7323 -17.3096 
-13.0869 -14.9419 -16.2697 -15.525 -16.9217 -14.3916 -21.1059 
-9.237 -7.1815 -3.3365 -8.381001 -1.934 -4.2535 -4.4705 -10.318 
-16.6115 -10.504 -13.1435 -10.3105 -7.1775 -6.4195 -15.9413 
-19.934 -21.0044 -15.073 -15.554 -7.958 -18.3565 
-30.4344 -22.9339 -20.3165 -16.3345 -20.1732 
-32.3639 -28.1774 -21.097 -28.5497 
-2.5045 -1.4985 -4.6545 -1.7565 -4.2535 -4.082 -1.934 -6.923 -4.677 -3.0365 -2.186 -1.8085 -4.196 -8.815001 -7.033 
-3.1915 -5.788501 -5.643 -6.5915 -5.946 -5.011 -9.396501 -7.95 -7.4745 -3.66 -3.164 -5.245501 -14.5624 -16.3412 
-7.6195 -6.2535 -8.7895 -7.815 -8.9805 -13.7255 -9.970501 -10.718 -8.1155 -4.218 -6.0845 -16.5403 -22.0886 
-8.0235 -10.4105 -9.5745 -10.374 -18.1056 -14.2995 -12.8469 -11.359 -8.4595 -7.5315 -17.8601 -24.0665 
-12.3811 -11.1955 -12.2157 -19.4991 -18.6796 -17.1759 -13.4879 -11.703 -11.8732 -19.9107 -25.3863 
-6.923 -4.677 -4.2535 -4.082 -3.3365 -4.158 -2.9635 
-7.95 -9.2135 -5.946 -7.6715 -6.6125 -6.614 
-12.9657 -10.761 -8.7745 -11.7155 -9.235001 
-14.5132 -13.5895 -13.4231 -14.338 
-17.3417 -18.2381 -16.0456 
