-4.759 
n/a 
n/a 
n/a 
n/a 
-4.759 
n/a 
n/a 
n/a 
n/a 
-4.759 
n/a 
n/a 
n/a 
n/a 
-4.759 
n/a 
n/a 
n/a 
n/a 
-5.3885 -3.2875 -6.216 -4.9225 -5.355 -8.400001 -4.0905 0 -1.756 -1.934 -6.6585 -5.1845 -4.9225 -5.5715 -4.0905 -2.4945 -7.561501 -5.5825 -3.1495 -3.9755 
-7.8685 -9.17 -11.117 -10.218 -14.6796 -12.7655 -4.0905 -1.756 -4.0205 -7.809 -9.288 -9.13 -10.3285 -8.845501 -6.643001 -9.134001 -13.9632 -8.790501 -5.5475 
-14.1442 -14.9862 -16.4125 -19.673 -19.0451 -12.7655 -5.614 -4.0205 -10.4035 -10.8957 -13.6067 -14.6706 -13.6025 -11.6522 -14.0669 -16.1135 -17.1712 -11.3489 
-19.9604 -20.2817 -25.8675 -24.0385 -19.0451 -14.289 -7.950001 -10.4035 -13.4902 -15.2144 -19.1473 -17.9446 -16.4092 -19.0761 -21.0464 -19.3215 -19.7296 
-25.2559 -29.7367 -30.233 -24.0385 -20.5686 -16.625 -14.5846 -13.4902 -17.8089 -20.755 -22.4213 -20.7513 -23.8331 -26.0556 -24.2544 -21.8799 
-2.7295 -2.7765 -4.433 -1.4985 0 -6.187 0 -4.1455 -1.934 -5.3885 0 -1.756 0 -9.463 0 -4.1455 -5.392 -2.3345 -6.262 -3.1385 -3.034 -2.925 -3.966 -2.985 -4.799 -2.4285 -4.481 -1.934 -6.262 -3.8275 -2.0935 -2.3615 -4.0135 
-4.065 -6.408 -5.2235 -1.4985 -6.187 -6.187 -4.1455 -5.8585 -6.4035 -5.3885 -1.756 -1.756 -9.463 -9.463 -4.1455 -7.231501 -6.196 -8.537001 -10.2385 -6.036 -4.4 -6.0515 -5.648 -6.4545 -7.236 -6.384 -6.0515 -8.4075 -10.0965 -5.976 -3.854 -5.1525 
-8.357 -7.2415 -5.2235 -7.899 -6.187 -10.9575 -5.8585 -10.757 -6.4035 -7.176001 -1.756 -12.2276 -9.463 -13.8055 -7.231501 -7.512001 -12.9893 -12.9167 -13.136 -6.6355 -7.235 -6.891 -8.429 -8.019501 -9.398001 -7.7495 -13.316 -12.6322 -12.245 -8.259001 -6.343 
-9.186501 -7.2415 -12.464 -7.899 -10.9575 -12.6705 -10.757 -10.757 -7.7845 -7.176001 -12.2276 -12.2276 -13.8055 -16.8915 -7.512001 -14.5673 -17.369 -15.8142 -13.7355 -9.9835 -8.088 -10.111 -9.882501 -10.275 -10.9349 -15.3692 -17.5407 -14.7807 -14.528 -11.0972 
-9.186501 -14.9094 -12.464 -12.9831 -12.6705 -17.569 -10.757 -12.138 -7.7845 -18.2338 -12.2276 -16.5701 -16.8915 -17.172 -14.5673 -18.947 -20.2665 -16.4137 -17.0835 -10.3935 -11.4022 -11.5871 -12.1672 -11.8119 -18.5546 -19.5939 -19.6892 -17.0637 -17.3662 
-2.7295 -2.7765 -3.602 -2.9905 -1.4985 -6.641 -4.1455 -2.9705 -3.8755 -2.5195 -5.3885 -3.2875 -3.7575 -4.4015 -3.8195 -1.756 -1.4985 -6.4635 -4.1455 -1.7565 -1.8085 -4.121 -3.0695 -4.452 -3.332 -4.9385 -8.705501 -2.5045 -3.115 -2.3615 0 
-4.065 -6.227 -5.261 -4.143 -8.525001 -9.535 -6.7075 -6.554 -5.837501 -7.26 -7.8685 -7.4575 -8.9575 -5.4195 -5.127 -3.0405 -7.379001 -10.389 -5.53 -3.2595 -5.467 -6.016 -6.691501 -6.63 -8.817501 -11.767 -8.952001 -6.717501 -4.312 -2.3615 
-7.266 -7.127 -6.152 -11.5511 -11.8254 -12.7094 -10.3035 -9.859 -11.1522 -9.487501 -12.4317 -12.9697 -10.382 -6.462 -6.357 -8.455 -11.8941 -11.7735 -7.476501 -6.61 -6.7515 -10.3208 -10.4425 -12.7613 -14.671 -13.0815 -12.893 -8.6055 -4.312 
-8.086 -7.8715 -13.9921 -14.8515 -14.9998 -16.3054 -13.6947 -15.1519 -13.3797 -14.1301 -17.9439 -14.3942 -11.4245 -7.555 -12.1159 -13.1129 -13.2786 -13.72 -10.3955 -7.765 -11.2441 -14.0718 -16.5738 -18.6148 -17.1415 -17.0928 -14.9178 -8.6055 
-8.712001 -15.8794 -17.2925 -18.0259 -18.5958 -19.6966 -18.9876 -17.3794 -18.0223 -19.6423 -19.3684 -15.4367 -12.5175 -13.5459 -16.7738 -14.4974 -15.2251 -16.639 -11.7341 -12.4158 -14.9951 -20.2031 -22.4273 -21.0853 -21.1528 -18.9808 -14.9178 
-5.3885 -3.2875 -3.7575 -5.9695 -5.029 -1.756 -1.4985 -4.121 -3.0695 -3.966 -3.332 -4.2245 -2.4285 -4.481 -2.186 -4.8485 -1.934 -4.8955 -2.186 -3.074 -4.066 -3.325 -2.3615 
-7.8685 -7.4575 -10.1855 -11.7685 -6.648 -3.0405 -5.189 -6.016 -5.905001 -6.1225 -5.614 -6.3015 -6.384 -6.005501 -6.713 -6.179 -8.043501 -7.154 -4.156 -6.132 -6.5505 -4.645 
-12.4317 -14.1977 -15.9845 -13.3875 -7.701 -6.5535 -7.147501 -8.06 -7.099501 -7.78 -8.086 -6.4505 -7.669001 -9.592501 -8.017 -13.0933 -10.7175 -9.4135 -9.042001 -8.4755 -8.4715 
-19.1719 -19.9967 -17.6035 -14.4405 -11.4714 -8.487 -9.154501 -8.2355 -8.236501 -9.74 -8.578501 -7.682 -11.538 -10.7595 -15.0473 -15.7673 -12.977 -14.2991 -10.6225 -9.505501 
-24.9709 -21.6157 -18.6565 -18.2109 -13.4049 -10.609 -9.352501 -8.693001 -10.688 -10.752 -9.871 -11.5668 -12.705 -17.7898 -17.7213 -18.0268 -17.8626 -15.8796 -11.6525 
