-4.759 
n/a 
n/a 
n/a 
n/a 
-4.759 
n/a 
n/a 
n/a 
n/a 
-4.759 
n/a 
n/a 
n/a 
n/a 
-4.759 
n/a 
n/a 
n/a 
n/a 
-2.645 -3.5935 -4.343 -3.402 -3.948 -5.0305 -2.4945 -5.1805 
-5.8615 -7.4095 -7.7355 -8.800501 -8.3865 -7.175 -6.9945 
-10.7495 -10.7025 -13.7232 -13.3762 -10.1385 -9.975 
-14.0425 -16.6902 -18.2989 -15.1282 -13.0205 
-20.0302 -21.2659 -20.0509 -18.0102 
-1.756 0 -2.7295 -5.12 -3.3715 -3.681 -3.4635 -6.3125 -3.8755 -3.3435 0 
-1.756 -2.7295 -9.661 -8.653501 -5.4275 -6.652 -11.2894 -9.498001 -6.8485 -3.3435 
-4.083 -9.661 -13.4179 -10.31 -8.5865 -15.5439 -14.4749 -12.5784 -6.8485 
-11.4981 -13.4179 -15.0744 -13.469 -17.9034 -18.7294 -17.5553 -12.5784 
-15.255 -15.0744 -18.2334 -22.7859 -21.0889 -21.8098 -17.5553 
-1.756 0 -4.7425 -3.3715 -3.681 -2.9705 -3.4635 -1.7695 -6.3125 -3.8755 -3.3435 0 
-1.756 -4.7425 -8.083 -5.4275 -5.784 -7.097501 -4.2045 -7.717501 -9.498001 -6.8485 -3.3435 
-6.0415 -8.083 -9.752001 -7.264501 -9.8785 -7.271501 -10.76 -10.5325 -12.5784 -6.8485 
-9.2425 -9.752001 -11.6574 -11.576 -9.9545 -14.0418 -13.575 -13.6129 -12.5784 
-11.0175 -11.6574 -15.9689 -11.652 -16.7126 -16.8568 -16.6554 -13.6129 
-3.0365 -2.4945 -3.3715 -2.8965 -4.179 -3.3435 -3.5855 -3.4635 -8.857 0 
-3.688 -4.846 -4.827001 -6.152 -7.920001 -5.588 -6.6665 -13.8339 -8.857 
-4.8765 -6.1645 -7.8725 -10.223 -10.6409 -8.443001 -17.6611 -13.8339 
-6.18 -9.305 -12.2009 -12.9439 -13.4959 -19.7262 -17.6611 
-9.323501 -13.908 -14.9218 -15.7989 -24.7791 -19.7262 
