-4.759 
n/a 
n/a 
n/a 
n/a 
-4.759 
n/a 
n/a 
n/a 
n/a 
-4.759 
n/a 
n/a 
n/a 
n/a 
-4.759 
n/a 
n/a 
n/a 
n/a 
-4.757 -5.132 -4.005 -3.147 -1.934 -3.9985 
-6.98 -8.739 -6.7945 -4.778 -5.277 
-9.802501 -12.0997 -7.570001 -8.4075 
-13.5402 -12.8752 -10.4945 
-14.3157 -15.7997 
-1.934 -3.9985 0 -1.4985 -4.7285 -5.132 -4.5185 -3.152 -4.005 -3.147 0 
-5.277 -3.9985 -1.4985 -6.210501 -8.005501 -8.5655 -6.5835 -5.6565 -6.7945 -3.147 
-5.277 -5.5695 -6.210501 -9.1505 -11.8012 -10.575 -8.555 -8.094501 -6.7945 
-6.3215 -10.5535 -9.1505 -13.2378 -13.8107 -12.5465 -10.575 -8.094501 
-11.5355 -13.4935 -13.2378 -15.2473 -15.7822 -14.5665 -10.575 
-1.934 -3.9985 -4.7285 -4.168 -5.132 -4.0875 -3.5015 -1.934 -2.3615 -4.1365 -3.098 
-5.277 -8.733001 -8.4995 -7.072001 -9.173 -5.143 -4.704 -3.539 -6.6235 -7.1485 
-10.494 -12.6276 -11.7207 -11.8588 -9.475 -5.692 -6.5205 -7.955 -9.297501 
-14.3886 -15.8488 -16.5075 -12.1608 -10.2665 -7.8035 -11.1115 -11.1338 
-17.6098 -20.6356 -16.8095 -12.9523 -12.378 -12.6457 -14.2903 
-4.7285 -4.168 -4.5435 -3.251 -4.005 -3.147 -2.264 -3.9985 
-8.4995 -7.093 -7.731001 -6.4705 -6.7945 -5.243 -7.3795 
-11.7417 -10.238 -11.2705 -10.674 -7.879001 -10.8033 
-14.8867 -13.9525 -15.474 -11.7585 -14.0557 
-18.6012 -18.156 -16.5585 -17.9352 
