-4.759 
n/a 
n/a 
n/a 
n/a 
-4.759 
n/a 
n/a 
n/a 
n/a 
-4.759 
n/a 
n/a 
n/a 
n/a 
-4.759 
n/a 
n/a 
n/a 
n/a 
-5.637 -12.16972 0 -9.572001 0 -5.1845 -5.74 0 
-18.50292 -12.16972 -9.572001 -9.572001 -5.1845 -5.7465 -5.74 
-18.50292 -21.74172 -9.572001 -11.0805 -5.7465 -5.7465 
-28.07492 -21.74172 -11.0805 -11.6425 -5.7465 
-28.07492 -23.25022 -11.6425 -11.6425 
-24.33944 0 -6.557 0 
-24.33944 -6.557 -6.557 
-30.89644 -6.557 
-30.89644 
n/a 
-5.637 -10.235 0 -6.557 0 
-16.5682 -10.235 -6.557 -6.557 
-16.5682 -17.4682 -6.557 
-23.8014 -17.4682 
-23.8014 
-5.637 -12.16972 0 -7.627 0 -5.1845 -5.74 0 
-18.50292 -12.16972 -7.627 -7.627 -5.1845 -5.7465 -5.74 
-18.50292 -19.79672 -7.627 -9.887501 -5.7465 -5.7465 
-26.12992 -19.79672 -9.887501 -9.947001 -5.7465 
-26.12992 -22.05722 -9.947001 -9.947001 
