-4.759 
n/a 
n/a 
n/a 
n/a 
-4.759 
n/a 
n/a 
n/a 
n/a 
-4.759 
n/a 
n/a 
n/a 
n/a 
-4.759 
n/a 
n/a 
n/a 
n/a 
-3.9005 -3.6645 -1.756 -7.1315 -4.116 
-7.552501 -5.064 -8.451 -11.08 
-9.1435 -12.9106 -12.5203 
-17.1639 -16.9799 
-21.2332 
-4.3435 -9.003 -3.074 -4.9045 -3.0465 -3.9555 
-10.598 -12.276 -7.75 -6.1795 -6.93 
-13.871 -16.952 -8.9855 -8.7405 
-18.547 -18.1875 -11.7533 
-19.7825 -20.9553 
-4.0105 -3.4005 0 -4.61 -1.756 -4.667 
-6.0365 -3.4005 -4.61 -6.3305 -6.18 
-6.0365 -8.8255 -6.3305 -11.3719 
-12.1385 -10.6475 -11.3719 
-13.9605 -15.6889 
-4.0105 -3.4005 -1.756 -3.7895 -1.934 -4.563 
-6.0365 -4.503 -5.4045 -4.5695 -6.182 
-7.3095 -8.4635 -6.261 -8.205501 
-11.56 -8.6415 -10.185 
-11.738 -12.9841 
