-4.759 
n/a 
n/a 
n/a 
n/a 
-4.759 
n/a 
n/a 
n/a 
n/a 
-4.759 
n/a 
n/a 
n/a 
n/a 
-4.759 
n/a 
n/a 
n/a 
n/a 
-3.2615 -4.6105 -4.255 -4.153 -3.433 -1.7565 -5.808 -3.458 -6.864 -3.277 -3.766 -3.0415 -1.4985 -4.985 -3.7905 -4.911 0 
-6.931 -8.696501 -6.9075 -7.328001 -4.1845 -7.427001 -6.7175 -10.6345 -10.9288 -6.995501 -7.184 -4.5735 -8.338 -10.4595 -9.691501 -4.911 
-11.87 -10.1245 -10.543 -7.77 -9.0035 -7.917 -14.588 -14.6993 -14.6473 -9.249001 -8.7405 -11.7034 -14.0029 -16.6565 -9.691501 
-15.0862 -15.0102 -10.985 -12.7812 -9.598001 -15.9383 -18.6528 -18.4178 -16.9008 -10.3755 -15.9746 -17.3683 -20.1999 -16.6565 
-19.2229 -15.4522 -15.9962 -13.3757 -17.7415 -20.0031 -22.3713 -20.6713 -18.0273 -18.1842 -21.6395 -23.5653 -20.1999 
-1.934 -3.6115 -4.153 0 -7.4885 -2.8645 -2.645 -4.6195 
-5.603 -6.6045 -4.153 -7.4885 -10.932 -5.2085 -7.283501 
-8.7865 -6.6045 -10.784 -10.932 -13.276 -9.073501 
-8.7865 -13.9389 -14.2275 -13.276 -17.141 
-16.3823 -17.3824 -16.5715 -17.141 
-1.4985 -6.864 -3.7905 -2.645 -4.377 -3.5455 -1.4985 -3.6115 -4.153 -1.7565 -4.6105 -3.0415 -2.925 -3.7905 -4.761 0 
-7.8675 -11.1415 -5.186 -5.5605 -8.3795 -3.91 -4.081 -6.6045 -5.909501 -5.7735 -7.9355 -4.8045 -5.532001 -7.361 -4.761 
-12.7426 -12.537 -7.3395 -9.0065 -8.677 -5.798 -6.84 -7.6515 -11.46 -10.3135 -10.0895 -7.45 -8.9165 -7.361 
-14.1381 -14.6905 -10.4105 -9.332001 -10.7595 -8.4715 -8.0205 -14.0038 -15.0868 -12.003 -12.8297 -10.5745 -8.9165 
-16.2916 -17.7615 -10.7455 -11.5987 -13.433 -9.688001 -14.2628 -17.3508 -17.238 -14.8629 -15.9542 -10.5745 
-3.882 -6.864 -4.6805 -4.5085 -1.7695 -9.000501 -6.864 -2.5045 -1.8085 -3.4155 -5.638 0 -1.756 -5.217 -3.595 -2.356 -1.4985 -3.729 -1.7565 -6.511 -3.9485 -1.4985 -4.3215 -1.7565 -1.4985 -7.235 
-9.551001 -8.916 -9.7295 -4.58 -10.7025 -9.5325 -9.948 -3.3625 -4.0495 -8.316 -5.638 -1.756 -7.11 -9.420501 -5.3435 -3.1615 -4.763 -5.6535 -7.732501 -8.698 -4.537 -5.394 -5.7605 -2.4195 -8.3795 
-10.4055 -14.1636 -9.743 -14.6388 -11.2345 -12.8047 -10.59 -6.1 -9.606501 -8.316 -7.204 -7.11 -11.3605 -10.1445 -6.2045 -6.606 -5.894 -9.56 -9.632001 -8.85 -6.6645 -5.962501 -5.9805 -8.9425 
-15.6531 -14.1771 -19.6626 -15.1708 -14.5067 -13.4467 -13.3275 -10.7025 -9.606501 -9.7235 -13.1824 -11.3605 -12.0845 -10.758 -9.972 -7.412001 -9.698 -11.5083 -9.752001 -10.523 -6.805 -6.074501 -9.602 
-15.6666 -24.0967 -20.1946 -18.443 -15.1487 -16.1842 -17.93 -10.7025 -11.0438 -15.7163 -17.4329 -12.0845 -12.698 -14.5255 -10.285 -11.4008 -11.6521 -11.6283 -11.4278 -10.7745 -6.903 -9.609501 
