-4.759 
n/a 
n/a 
n/a 
n/a 
-4.759 
n/a 
n/a 
n/a 
n/a 
-4.759 
n/a 
n/a 
n/a 
n/a 
-4.759 
n/a 
n/a 
n/a 
n/a 
-1.4985 -3.5125 -1.7565 -3.1725 -4.4665 -2.356 -5.1415 -7.8715 
-4.7015 -4.312 -5.756001 -8.546 -5.207 -7.518001 -13.2688 
-4.846 -8.6495 -10.403 -9.234 -10.5975 -16.0393 
-9.293 -13.5891 -10.772 -14.4351 -19.1188 
-14.3846 -13.9581 -15.9731 -22.9564 
-3.4155 -3.5125 -5.1415 -5.8745 -2.356 -4.129 0 
-7.8605 -9.5305 -11.2718 -8.5155 -6.8065 -4.129 
-14.2091 -15.7892 -13.9128 -13.214 -6.8065 
-20.4678 -18.4302 -18.6113 -13.214 
-23.1088 -23.1287 -18.6113 
-3.4155 -2.5195 -3.5125 -5.1415 -5.8745 -2.356 -3.584 0 
-5.650001 -6.3345 -9.5305 -11.2718 -8.5155 -6.6105 -3.584 
-9.711 -12.9063 -15.7892 -13.9128 -13.018 -6.6105 
-16.9126 -19.165 -18.4302 -18.4153 -13.018 
-23.1713 -21.806 -22.9327 -18.4153 
-3.4155 -3.5125 -4.4665 -2.356 -5.1415 -6.0335 0 
-7.8605 -7.951 -5.207 -7.518001 -11.4308 -6.0335 
-12.6296 -8.736501 -10.5975 -14.2013 -11.4308 
-13.4151 -14.3816 -17.2808 -14.2013 
-19.0602 -21.0649 -17.2808 
