-4.759 
n/a 
n/a 
n/a 
n/a 
-4.759 
n/a 
n/a 
n/a 
n/a 
-4.759 
n/a 
n/a 
n/a 
n/a 
-4.759 
n/a 
n/a 
n/a 
n/a 
-3.0365 -2.4945 -4.6835 -1.7565 -3.948 -4.1865 -4.0805 -1.934 -5.3885 0 
-3.688 -7.55 -5.6875 -5.05 -7.535 -7.563 -5.53 -6.4035 -5.3885 
-8.194501 -7.962 -8.562501 -8.357 -10.061 -8.9785 -10.1 -6.4035 
-8.656501 -11.0294 -12.5445 -10.7595 -11.4765 -13.6367 -10.1 
-11.7667 -15.0114 -14.947 -12.175 -16.1347 -13.6367 
-3.3715 -4.1865 -4.3035 -3.9035 -2.4945 -3.0365 -1.934 -5.3885 
-7.212501 -7.8155 -8.415501 -5.8065 -4.952001 -5.238 -6.4035 
-10.155 -12.3423 -10.4675 -7.7095 -6.545001 -10.0155 
-14.8168 -14.3943 -12.3705 -9.373501 -11.6181 
-16.8688 -16.2973 -14.0345 -14.5608 
-3.3715 -4.1865 -3.3035 -4.6835 -4.31 -2.264 -5.3885 
-7.212501 -7.119 -8.132 -10.1035 -6.4505 -7.9355 
-10.6708 -12.4407 -13.96 -12.244 -12.9094 
-15.9925 -18.2687 -16.1005 -18.7029 
-21.8205 -20.4092 -22.5594 
-3.0365 -2.4945 -3.849 -4.1865 -3.4425 -4.6835 -1.934 -5.3885 0 
-3.688 -5.189 -7.587 -7.9285 -7.669 -6.1435 -6.4035 -5.3885 
-5.231 -9.2915 -11.8312 -12.4368 -8.867001 -9.592001 -6.4035 
-9.3555 -13.6491 -16.3395 -13.6348 -12.5347 -9.592001 
-13.7221 -18.1574 -17.5375 -17.3025 -12.5347 
