-4.759 
n/a 
n/a 
n/a 
n/a 
-4.759 
n/a 
n/a 
n/a 
n/a 
-4.759 
n/a 
n/a 
n/a 
n/a 
-4.759 
n/a 
n/a 
n/a 
n/a 
-3.428 0 -7.813 -7.849 0 -2.7275 0 
-3.428 -7.813 -8.8525 -7.849 -2.7275 -2.7275 
-10.329 -8.8525 -8.8525 -11.136 -2.7275 
-10.47 -8.8525 -12.2869 -11.136 
-10.47 -12.2869 -12.2869 
-3.2495 -4.6945 -1.756 -3.54 0 -7.813 -7.849 0 -1.8085 0 
-5.97 -6.285001 -5.1005 -3.54 -7.813 -8.8525 -7.849 -1.8085 -1.8085 
-6.8595 -7.941501 -5.1005 -12.4774 -8.8525 -8.8525 -9.657001 -1.8085 
-8.2585 -7.941501 -14.1855 -13.5169 -8.8525 -10.7495 -9.657001 
-8.2585 -17.7471 -15.225 -13.5169 -10.7495 -10.7495 
-12.0275 -7.849 0 -1.8085 0 
-14.0418 -7.849 -1.8085 -1.8085 
-14.0418 -9.657001 -1.8085 
-15.8498 -9.657001 
-15.8498 
-3.428 0 -10.437 -7.849 0 -1.8085 0 
-3.428 -10.437 -18.286 -7.849 -1.8085 -1.8085 
-14.4378 -18.286 -18.286 -9.657001 -1.8085 
-22.2868 -18.286 -20.094 -9.657001 
-22.2868 -20.094 -20.094 
