-4.759 
n/a 
n/a 
n/a 
n/a 
-4.759 
n/a 
n/a 
n/a 
n/a 
-4.759 
n/a 
n/a 
n/a 
n/a 
-4.759 
n/a 
n/a 
n/a 
n/a 
-1.934 -3.4075 -3.518 -3.8655 -2.186 -5.164 -4.4695 -1.934 -4.498 -4.211 0 -10.3 0 -5.08 -1.756 -4.524 0 
-5.572001 -5.618501 -8.345501 -5.968 -8.785001 -9.8225 -6.4835 -6.6685 -6.839 -4.211 -10.3 -10.3 -5.08 -6.296 -6.2275 -4.524 
-8.0445 -9.135 -9.5845 -13.1452 -13.8485 -12.3603 -10.7335 -9.538001 -6.839 -16.0338 -10.3 -15.38 -6.296 -7.9855 -6.2275 
-11.6928 -10.5985 -16.7685 -18.2087 -16.3863 -16.6103 -13.603 -9.538001 -19.908 -16.0338 -15.38 -16.596 -7.9855 -7.9855 
-13.1563 -17.7825 -21.832 -20.7465 -20.6363 -19.4798 -13.603 -22.8094 -19.908 -21.1138 -16.596 -18.2855 -7.9855 
-3.8655 -2.8645 -4.0205 -3.38 -4.1965 -1.934 -4.753 0 -3.6445 -4.498 0 -5.9105 0 -4.794 -4.091 -1.756 -4.794 -4.0375 0 -3.7875 -3.1125 -4.625 -2.4285 -3.188 -4.757 0 
-6.2115 -6.3605 -6.931 -6.8825 -5.6335 -6.88 -4.753 -3.6445 -5.6255 -4.498 -5.9105 -5.9105 -4.794 -5.7195 -5.869 -6.8805 -5.729 -4.0375 -3.7875 -5.2785 -9.141001 -8.0085 -6.6245 -6.4005 -4.757 
-9.231001 -8.807 -9.978001 -8.4995 -9.5865 -6.88 -7.171 -5.6255 -5.6255 -7.623 -5.9105 -7.485 -5.7195 -7.835001 -8.554001 -8.1645 -5.729 -7.533 -5.2785 -10.634 -10.6885 -8.856 -9.5275 -6.4005 
-10.4195 -10.2485 -10.233 -10.543 -9.5865 -9.8585 -7.392001 -5.6255 -9.627001 -7.623 -7.485 -8.044001 -7.835001 -8.6285 -8.6405 -8.1645 -9.859 -9.124001 -10.634 -12.1815 -10.742 -10.204 -9.5275 
-10.5885 -10.257 -10.577 -10.543 -10.5055 -10.371 -7.392001 -9.627001 -9.627001 -8.259001 -8.044001 -9.9455 -8.6285 -8.650001 -8.6405 -10.749 -10.6015 -14.5167 -12.1815 -12.235 -12.09 -10.204 
-4.4325 0 -7.7445 0 -4.5005 -4.243 0 -4.852 -5.085 -1.756 -7.288001 -2.5045 -1.4985 -3.5065 -2.186 -1.4985 -3.4155 -1.934 -3.8655 -5.367 0 
-4.4325 -7.7445 -7.7445 -4.5005 -6.863501 -4.243 -4.852 -11.236 -6.7405 -8.831501 -9.587001 -3.1915 -4.3135 -5.196 -3.339 -4.4155 -5.824 -4.9135 -8.934 -5.367 
-13.2262 -7.7445 -12.792 -6.863501 -6.863501 -9.4935 -11.236 -12.8915 -14.4214 -10.703 -10.003 -6.3915 -5.603 -6.628 -6.328 -7.2705 -9.5865 -10.476 -8.934 
-13.2262 -12.792 -15.155 -6.863501 -12.6508 -15.8941 -12.8915 -20.5724 -16.2929 -11.119 -13.3468 -8.595 -7.1215 -9.737 -9.832001 -11.3368 -15.178 -10.476 
-18.2737 -15.155 -15.155 -12.6508 -19.0514 -17.5496 -20.5724 -22.4439 -16.7089 -14.4628 -15.5503 -9.696 -10.176 -13.241 -13.9743 -16.9283 -15.178 
-4.753 0 -4.498 0 -10.754 -4.524 -2.925 -3.152 -3.383 -4.4695 -1.934 -3.188 
-4.753 -4.498 -4.498 -9.558001 -11.845 -7.937 -4.203 -5.31 -6.6995 -6.4835 -5.387 
-7.728001 -4.498 -12.8392 -12.3586 -16.3854 -9.370001 -6.164001 -8.908001 -7.913 -9.3065 
-7.728001 -12.8392 -15.6398 -16.3854 -17.8184 -11.3512 -9.694501 -9.524 -10.757 
-14.4601 -15.6398 -19.6666 -17.8184 -19.7996 -14.8817 -10.6495 -12.7 
