-4.759 
n/a 
n/a 
n/a 
n/a 
-4.759 
n/a 
n/a 
n/a 
n/a 
-4.759 
n/a 
n/a 
n/a 
n/a 
-4.759 
n/a 
n/a 
n/a 
n/a 
-6.144 
n/a 
n/a 
n/a 
n/a 
-5.3745 -4.891 -1.7565 -5.1845 -6.844 
-7.061501 -6.8725 -6.580501 -6.9655 
-7.1715 -7.181 -7.1625 
-7.185 -7.202001 
-7.2055 
-5.3745 -4.891 -1.7565 -5.1845 -6.844 
-7.061501 -6.8725 -6.580501 -6.9655 
-7.1715 -7.181 -7.1625 
-7.185 -7.202001 
-7.2055 
-5.3745 -2.264 -4.891 -1.7565 -5.1845 -6.844 
-7.953501 -7.7325 -6.8725 -6.580501 -6.9655 
-13.8876 -10.1765 -7.181 -7.1625 
-16.3316 -10.844 -7.202001 
-16.9991 -10.865 
