-4.759 
n/a 
n/a 
n/a 
n/a 
-4.759 
n/a 
n/a 
n/a 
n/a 
-4.759 
n/a 
n/a 
n/a 
n/a 
-4.759 
n/a 
n/a 
n/a 
n/a 
-1.4985 -3.486 -3.585 -6.721 -1.934 -2.3615 -2.95 -6.557 -6.6585 -9.446 -3.35 0 
-3.5655 -6.332 -9.816501 -9.157001 -3.539 -4.4645 -10.564 -10.932 -16.8631 -12.9156 -3.35 
-6.3835 -13.1967 -12.5013 -11.0072 -6.3285 -12.3577 -14.939 -21.1366 -20.3327 -12.9156 
-13.2696 -15.8815 -14.3515 -13.7967 -14.7961 -16.7327 -25.1436 -24.6062 -20.3327 
-15.9544 -17.7317 -17.141 -22.2643 -19.1711 -26.9373 -28.6132 -24.6062 
-3.1015 -2.3615 -3.6705 -5.4465 -3.3255 -5.1845 -4.641 -1.7565 -4.628 -4.743 -1.756 -3.135 -8.458 -4.5675 0 
-5.3825 -6.263 -10.5755 -9.088 -9.004001 -10.411 -6.253 -6.107501 -4.7515 -6.5275 -4.5755 -8.2895 -7.444 -4.5675 
-9.969501 -13.5816 -14.217 -14.8685 -14.4327 -12.023 -9.828001 -6.281001 -6.535501 -8.9265 -9.426001 -9.407001 -6.7665 
-17.3577 -17.2231 -19.9975 -20.2972 -16.0447 -15.598 -9.857501 -7.494501 -8.927 -13.7834 -11.1555 -10.361 
-20.9992 -23.0036 -25.4262 -21.9092 -19.6197 -15.6275 -11.071 -10.2275 -13.7849 -16.2631 -11.5167 
-3.1015 -1.8085 -3.4795 -2.356 -1.4985 -8.814 -1.7565 -5.1845 0 -6.899 -4.8935 -3.35 -1.756 -5.1845 -4.586 0 -2.3615 -3.213 -2.186 -4.372 -2.264 
-5.0505 -6.392 -5.6195 -3.1615 -10.3285 -10.389 -6.580501 -5.1845 -6.899 -12.8029 -9.015501 -5.1005 -7.0085 -10.4265 -4.586 -2.3615 -4.8855 -4.8695 -7.8675 -5.2275 
-6.6635 -8.410001 -6.58 -12.1621 -10.608 -15.213 -6.580501 -9.83 -12.8029 -16.9249 -9.640501 -10.2435 -12.6769 -10.4265 -7.133501 -4.8855 -5.505 -11.2162 -8.463 
-8.627501 -9.143001 -15.8862 -12.4416 -15.432 -15.213 -12.069 -16.0157 -16.9249 -17.5499 -14.9767 -16.4331 -12.6769 -12.974 -9.576501 -5.505 -12.6683 -11.8117 
-9.201 -18.5602 -16.1657 -17.2656 -15.432 -20.7015 -18.2547 -20.1377 -17.5499 -22.8861 -21.1663 -16.4331 -15.2244 -15.417 -10.3 -12.6683 -13.2638 
-2.3615 -3.1335 -2.186 -4.448 -3.4765 -5.42 -3.815 -5.1845 -1.756 -4.628 -5.939 -4.641 -2.3345 -5.1845 -4.833 -4.1645 0 
-4.7915 -4.6915 -5.962 -8.1625 -8.001 -9.2995 -9.9405 -7.2435 -6.51 -5.9615 -9.0795 -7.019 -7.449 -11.3119 -7.693501 -4.1645 
-5.072 -8.712 -8.9645 -13.427 -12.0097 -15.5436 -12.0571 -9.940001 -7.6985 -9.087001 -11.4845 -12.6639 -14.0834 -14.1724 -7.693501 
-10.6215 -12.0181 -14.4362 -17.4357 -18.2538 -17.6602 -14.7536 -10.0075 -11.0794 -11.4942 -17.1294 -19.2983 -16.9439 -14.1724 
-13.9276 -17.4898 -18.4449 -23.6798 -20.3704 -20.3567 -14.8211 -13.4704 -13.4866 -17.1391 -23.7638 -22.1588 -16.9439 
