-4.759 
n/a 
n/a 
n/a 
n/a 
-4.759 
n/a 
n/a 
n/a 
n/a 
-4.759 
n/a 
n/a 
n/a 
n/a 
-4.759 
n/a 
n/a 
n/a 
n/a 
-2.9805 -4.1585 -2.7455 -3.1405 
-5.319 -6.271 -4.753 
-7.9075 -8.737 
-10.1335 
n/a 
-2.9805 -4.6525 -2.7455 -4.33 
-5.91 -6.5805 -6.5 
-8.01 -9.295 
-9.721001 
n/a 
-3.115 -2.9805 -3.644 -2.7455 -4.33 
-5.448501 -4.889 -6.078501 -6.5 
-7.742001 -7.257 -8.4595 
-9.983001 -8.910501 
-12.0715 
-4.426 -1.7565 -1.4985 -3.0835 -4.7285 -4.1555 -3.147 -2.925 -2.742 -3.8905 -2.7455 -3.1405 0 
-5.47 -2.4195 -3.535 -6.042 -8.4455 -5.77 -5.7825 -4.3725 -5.3485 -6.3355 -4.753 -3.1405 
-5.9535 -4.6785 -6.335501 -9.523001 -9.541501 -9.436501 -7.2845 -6.698 -7.902 -8.460501 -4.753 
-8.021 -7.476501 -10.0095 -10.7035 -13.208 -10.8211 -9.479501 -9.3835 -9.969501 -8.460501 
-9.983001 -11.3061 -11.3 -14.37 -14.5926 -13.0161 -12.261 -11.6702 -9.969501 
