-4.759 
n/a 
n/a 
n/a 
n/a 
-4.759 
n/a 
n/a 
n/a 
n/a 
-4.759 
n/a 
n/a 
n/a 
n/a 
-4.759 
n/a 
n/a 
n/a 
n/a 
-3.034 -4.872 -4.237 -5.662 -3.892 -1.756 -4.8525 -1.4985 -3.7805 -3.892 -3.7805 -4.969 -3.7905 -4.5845 -1.756 -3.5285 -1.934 -4.1095 -1.7565 -3.7075 
-7.066 -10.2085 -10.127 -10.8215 -5.337 -6.413 -5.628 -4.8195 -8.1285 -8.4595 -7.7755 -7.989501 -6.826 -6.0115 -5.2155 -5.6055 -6.455 -5.856501 -5.7275 
-13.0901 -16.0985 -15.5113 -12.2665 -9.7185 -7.3065 -8.781 -9.2925 -13.027 -12.7123 -11.006 -10.041 -8.076 -10.6465 -6.9635 -9.822001 -8.383501 -9.489501 
-18.9801 -21.4828 -16.9563 -16.648 -10.221 -10.228 -13.544 -14.2952 -17.2798 -15.9428 -13.0575 -11.4344 -12.8956 -12.3945 -11.7336 -11.9821 -12.3231 
-24.3644 -22.9278 -21.3378 -17.1505 -13.1425 -14.991 -18.5467 -18.548 -20.5103 -17.9943 -14.4509 -16.254 -14.6436 -17.1646 -13.8937 -15.9217 
-4.237 -3.355 -3.979 -1.7695 -3.1935 -4.202 -1.756 -4.2615 -3.7075 -4.202 -3.074 -4.533 
-8.156 -7.9235 -6.34 -5.553 -7.5375 -5.342 -5.8625 -8.751501 -8.679001 -7.5625 -8.582001 
-13.0245 -11.0959 -10.5929 -10.1765 -9.583 -9.075001 -10.757 -14.216 -12.4123 -13.3713 
-16.1969 -15.3488 -15.2164 -12.4688 -13.4578 -14.1341 -16.2215 -17.9493 -18.2211 
-20.4498 -19.9723 -17.5087 -16.3436 -18.5169 -19.5986 -19.9548 -23.7581 
-1.4985 -3.7805 -4.969 -2.9705 -4.6515 -5.749 -3.4425 -1.756 -4.993 -4.9845 -4.2705 -2.791 
-4.8195 -7.7755 -6.861001 -6.559501 -11.4551 -9.3855 -4.9015 -6.6275 -11.1811 -9.762501 -5.721 
-8.786 -9.594501 -11.0146 -14.5689 -15.0916 -10.9351 -9.345501 -13.0558 -15.9591 -11.3448 
-10.368 -13.7063 -19.024 -18.2054 -16.6412 -15.3791 -15.8296 -17.8338 -17.5414 
-14.4798 -21.7157 -22.6605 -19.755 -21.0852 -21.8632 -20.6076 -19.4161 
-1.7695 -10.914 -1.7565 -3.7685 -3.5015 -1.7695 -5.5595 -1.7695 -7.9815 -5.346 -3.3975 
-13.6657 -12.6705 -5.614 -7.5155 -4.5585 -7.707001 -7.821 -10.7025 -14.1575 -9.3545 
-15.4222 -16.528 -9.8598 -8.413501 -11.859 -10.403 -17.1988 -16.8785 -18.166 
-19.2797 -20.7738 -10.7578 -16.2172 -14.555 -19.7808 -23.3748 -20.887 
-23.5255 -21.6718 -18.5615 -18.9132 -23.9328 -25.9568 -27.3833 
