-4.759 
n/a 
n/a 
n/a 
n/a 
-4.759 
n/a 
n/a 
n/a 
n/a 
-4.759 
n/a 
n/a 
n/a 
n/a 
-4.759 
n/a 
n/a 
n/a 
n/a 
-4.628 -5.939 -4.9225 0 -4.3235 -5.1845 -4.9225 -2.871 -3.355 -2.186 -5.003 0 
-5.9615 -10.01 -4.9225 -4.3235 -9.5915 -9.13 -8.139501 -5.7015 -5.3935 -8.145 -5.003 
-10.0095 -10.01 -8.328 -9.5915 -13.7158 -12.4816 -11.3096 -7.4955 -11.7483 -8.145 
-10.0095 -13.6107 -14.0986 -13.7158 -17.0674 -15.6517 -13.1036 -14.0863 -11.7483 
-13.6102 -19.3813 -18.2229 -17.0674 -20.2375 -17.4457 -19.6944 -14.0863 
-8.643001 -1.756 -9.758 -2.674 -4.015 -3.264 -1.7565 -4.9225 -2.4945 -5.003 0 
-10.038 -12.5226 -12.9132 -6.739 -7.2355 -3.6125 -6.4125 -6.9525 -6.7795 -5.003 
-20.8046 -15.6778 -16.9782 -10.8183 -7.528501 -8.512001 -8.7425 -11.5555 -6.7795 
-23.9598 -19.7428 -21.0575 -11.1113 -12.7752 -10.4265 -13.4331 -11.5555 
-28.0248 -23.8221 -21.3505 -16.358 -14.6897 -15.1171 -13.4331 
-2.871 -4.015 -3.32 -1.7565 -8.5635 -1.756 -8.27 -2.4945 -5.003 
-5.942 -6.856501 -4.658 -9.915501 -10.051 -9.58 -9.5465 -6.7795 
-8.4355 -7.3465 -13.5764 -11.9246 -17.875 -11.1069 -13.8649 
-8.703 -16.6447 -15.5855 -19.7486 -19.4019 -15.4253 
-18.2164 -18.6538 -23.4095 -21.2755 -23.7203 
-3.5155 -8.519 -2.229 -1.756 -6.4735 -2.871 -3.355 -2.4945 -1.7565 -5.003 
-10.841 -11.1506 -4.366 -8.2355 -9.6595 -5.7015 -6.529 -5.101 -6.225 
-13.4726 -13.2876 -11.1359 -11.5581 -12.5028 -8.986 -8.8985 -9.9405 
-15.6096 -20.0575 -14.4585 -14.4014 -15.7873 -11.6385 -13.904 
-22.3795 -23.3801 -17.3018 -17.6859 -18.4398 -16.644 
