-4.759 
n/a 
n/a 
n/a 
n/a 
-4.759 
n/a 
n/a 
n/a 
n/a 
-4.759 
n/a 
n/a 
n/a 
n/a 
-4.759 
n/a 
n/a 
n/a 
n/a 
-3.135 -3.9235 -3.4265 -4.2115 -2.9705 -2.8645 -3.77 -3.7045 -4.0415 -2.9705 -2.7765 -2.489 -3.2955 -2.3345 -1.8085 -3.8225 -3.2945 
-7.4395 -7.110001 -7.0235 -6.532001 -4.6335 -6.958 -7.946501 -8.3465 -6.411 -4.677 -3.495 -3.979 -4.534 -3.8605 -4.8095 -6.945001 
-11.082 -11.285 -9.5115 -8.9655 -8.754001 -11.8581 -12.9821 -11.0194 -7.9815 -4.966 -4.532001 -5.2935 -5.9685 -6.6625 -7.554 
-15.257 -13.773 -12.0906 -13.117 -13.8111 -16.8937 -15.655 -12.5899 -8.349501 -5.801 -5.955501 -6.5435 -9.4215 -9.217501 
-17.745 -16.3521 -16.2421 -18.1741 -18.8467 -19.5666 -17.2255 -12.9579 -9.007501 -7.037 -7.166 -10.238 -12.1065 
-3.432 -3.586 -2.186 -4.8685 -2.0935 -2.9995 -2.95 -1.7695 -4.0655 
-7.307 -6.196 -6.075 -7.127501 -4.1725 -4.5905 -4.11 -6.680501 
-10.7175 -10.185 -7.908 -9.964001 -6.96 -6.1145 -8.5135 
-14.7065 -12.1544 -10.8631 -12.7515 -9.146501 -11.1368 
-16.6759 -15.1095 -13.6506 -14.938 -14.6028 
-3.135 -3.7495 -3.6845 -7.495501 -3.7205 0 
-6.013 -7.294001 -10.528 -10.885 -3.7205 
-8.5915 -13.6446 -13.4465 -9.460501 
-15.1797 -17.439 -13.6149 
-18.9741 -17.439 
-4.236 -5.7485 -1.756 -8.7995 -3.7205 -2.0935 -3.498 -3.664 0 
-9.125 -8.018001 -7.8235 -10.7485 -6.0975 -5.8265 -5.327 -3.664 
-10.2545 -14.1091 -11.133 -10.991 -10.66 -6.3145 -5.327 
-16.1486 -18.3316 -12.1745 -16.2004 -10.74 -6.3145 
-20.9043 -19.7357 -18.2418 -16.9586 -10.74 
