-4.759 
n/a 
n/a 
n/a 
n/a 
-4.759 
n/a 
n/a 
n/a 
n/a 
-4.759 
n/a 
n/a 
n/a 
n/a 
-4.759 
n/a 
n/a 
n/a 
n/a 
-3.3855 -3.639 -1.7695 -3.711 
-8.385 -4.539 -5.8935 
-9.4235 -9.061001 
-13.9803 
n/a 
-6.041 -3.074 -4.752 
-9.377001 -6.5135 
-12.9383 
n/a 
n/a 
-3.3855 -2.186 -4.2965 -1.7695 -4.236 -2.664 -4.207 -1.756 -3.301 0 
-4.4785 -5.830501 -5.1835 -6.723001 -7.6175 -8.3795 -5.7235 -5.1165 -3.301 
-7.2405 -6.678 -8.5425 -9.913 -13.6864 -9.9355 -8.1035 -5.1165 
-8.033501 -10.1784 -11.9243 -15.9819 -15.2424 -12.3843 -8.1035 
-11.6409 -13.5602 -17.9932 -17.5379 -17.6912 -12.3843 
-2.925 -5.227 -2.356 -5.3955 -3.946 0 
-6.9045 -6.785 -7.623501 -6.8215 -3.946 
-8.371501 -12.7621 -8.932501 -6.8215 
-14.4056 -14.0711 -8.932501 
-15.7146 -14.0711 
