-4.759 
n/a 
n/a 
n/a 
n/a 
-4.759 
n/a 
n/a 
n/a 
n/a 
-4.759 
n/a 
n/a 
n/a 
n/a 
-4.759 
n/a 
n/a 
n/a 
n/a 
-12.1355 0 -5.943501 0 
-12.4945 -5.943501 -5.943501 
-18.8344 -5.943501 
-18.8344 
n/a 
-4.377 0 -9.914001 0 -5.943501 0 
-4.377 -9.914001 -9.914001 -5.943501 -5.943501 
-14.65 -9.914001 -16.1927 -5.943501 
-14.65 -16.1927 -16.1927 
-20.9287 -16.1927 
-4.377 0 -12.16972 0 -5.943501 0 
-4.377 -12.16972 -12.16972 -5.943501 -5.943501 
-16.90572 -12.16972 -18.11322 -5.943501 
-16.90572 -18.11322 -18.11322 
-22.84922 -18.11322 
-4.377 0 -5.194 0 -5.943501 0 
-4.377 -5.194 -5.194 -5.943501 -5.943501 
-9.737501 -5.194 -11.9823 -5.943501 
-9.737501 -11.9823 -11.9823 
-16.5258 -11.9823 
