-4.759 
n/a 
n/a 
n/a 
n/a 
-4.759 
n/a 
n/a 
n/a 
n/a 
-4.759 
n/a 
n/a 
n/a 
n/a 
-4.759 
n/a 
n/a 
n/a 
n/a 
-3.188 -3.959 -1.756 -3.509 
-6.2425 -5.173 -5.585 
-7.527 -9.438001 
-11.9732 
n/a 
-3.959 -1.7565 -3.188 -1.756 -3.1435 -3.509 
-5.473 -5.13 -4.863 -4.1365 -6.847 
-8.021501 -7.553 -6.736001 -8.0675 
-10.281 -9.955501 -10.7175 
-12.6835 -13.937 
-3.959 -1.7565 -3.188 -1.756 -3.1435 -3.509 
-5.473 -5.13 -4.863 -4.1365 -6.847 
-8.021501 -7.553 -6.736001 -8.0675 
-10.281 -9.955501 -10.7175 
-12.6835 -13.937 
-1.4985 -3.509 -1.7565 -3.188 -3.959 
-4.917 -4.762 -5.13 -6.2425 
-5.3835 -8.867001 -8.632501 
-9.635501 -12.5799 
-13.6438 
