-4.759 
n/a 
n/a 
n/a 
n/a 
-4.759 
n/a 
n/a 
n/a 
n/a 
-4.759 
n/a 
n/a 
n/a 
n/a 
-4.759 
n/a 
n/a 
n/a 
n/a 
-3.5455 -3.091 -4.25 -4.126 0 -2.9805 -3.9535 -4.0905 -4.5735 -4.5675 -2.356 -1.4985 -3.0785 -1.7565 -1.4985 -3.4425 -3.5585 0 
-5.242001 -6.9345 -8.0255 -4.126 -2.9805 -5.607 -8.896501 -7.620001 -7.646 -6.5465 -3.1615 -4.779 -5.1815 -2.4195 -4.4545 -6.877501 -3.5585 
-9.171 -10.757 -8.0255 -6.735001 -5.607 -10.3475 -12.557 -10.1035 -9.654 -7.5035 -5.297501 -5.2205 -6.0005 -5.4015 -8.374001 -6.877501 
-13.9113 -10.757 -10.575 -9.177501 -10.3475 -14.008 -15.0405 -12.1115 -10.535 -9.46 -5.3145 -6.031 -9.7405 -9.0915 -8.374001 
-13.9113 -13.3065 -13.0175 -14.0972 -14.008 -16.4915 -17.0485 -12.9925 -12.4915 -9.490001 -6.127 -9.753 -13.5187 -9.0915 
-2.9805 -4.09 -1.8085 -4.0905 -5.0335 -3.288 -1.934 -3.091 -5.1665 -3.7515 -4.179 
-6.238 -5.1625 -5.857 -9.436501 -8.495001 -5.248 -4.2105 -7.875 -8.035501 -8.1415 
-6.8335 -8.768001 -11.8006 -13.2562 -10.375 -7.8155 -9.026501 -10.7495 -12.9165 
-10.434 -14.8312 -15.6203 -15.1362 -12.9425 -12.9417 -12.1786 -15.6305 
-16.4972 -18.6509 -17.5003 -17.7037 -18.0687 -16.0938 -17.0596 
-3.034 -2.9805 -2.7415 -3.809 0 -2.9805 -3.43 -4.0905 -4.7145 -3.459 -2.356 -1.4985 -3.0785 -1.7565 -3.135 -4.0905 0 
-4.4605 -4.004 -6.1335 -3.809 -2.9805 -5.2875 -8.5105 -7.7145 -8.618501 -6.279 -3.1615 -4.779 -5.1815 -4.6765 -7.381001 -4.0905 
-5.2415 -6.956 -6.1335 -6.872001 -5.2875 -10.757 -12.3661 -12.3287 -11.6853 -7.239 -5.297501 -5.2205 -7.036 -8.9455 -7.381001 
-7.142 -6.956 -7.628 -9.1485 -10.757 -14.6126 -16.9803 -15.3955 -12.6453 -9.369 -5.3145 -7.0625 -11.5596 -8.9455 
-7.142 -7.824 -9.755501 -14.886 -14.6126 -19.2268 -20.0471 -16.3555 -14.7753 -9.3905 -7.167 -11.5863 -11.5596 
-3.5455 -3.091 -4.0905 0 -2.9805 -3.354 -2.925 -1.4985 -4.0905 -5.0335 -4.6315 -2.356 -1.4985 -3.0785 -1.7565 -1.8085 -3.7375 -3.5585 -2.5195 -3.091 -3.4425 0 
-5.242001 -6.3355 -4.0905 -2.9805 -6.074 -4.3775 -4.202 -5.3885 -9.436501 -10.411 -7.3225 -3.1615 -4.779 -5.1815 -3.2595 -3.8995 -6.7845 -5.3545 -4.8225 -6.822001 -3.4425 
-7.7475 -6.3355 -6.898001 -6.074 -6.754 -5.566 -8.282001 -11.3441 -15.1722 -13.5328 -8.081 -5.297501 -5.2205 -6.0835 -5.625 -7.082 -8.396501 -8.2205 -8.532001 -6.822001 
-7.7475 -7.3435 -10.004 -6.754 -7.543 -9.488501 -14.3596 -17.0798 -18.294 -14.2913 -9.922501 -5.3145 -6.108 -7.677 -8.613001 -8.5745 -10.5035 -10.733 -8.532001 
-8.474501 -10.5225 -10.7075 -7.543 -11.6393 -15.5661 -20.0953 -20.2016 -19.0525 -16.1328 -9.957001 -6.228001 -7.688 -10.107 -10.168 -10.66 -13.016 -10.733 
