-4.759 
n/a 
n/a 
n/a 
n/a 
-4.759 
n/a 
n/a 
n/a 
n/a 
-4.759 
n/a 
n/a 
n/a 
n/a 
-4.759 
n/a 
n/a 
n/a 
n/a 
-12.16972 -4.905 -1.4985 -3.17 -4.2785 -1.756 -3.818 -3.213 -2.0935 -5.183 -4.3165 -3.7075 0 
-17.07472 -5.6145 -3.7115 -8.052 -6.093 -5.408 -5.229 -4.5705 -6.59 -10.335 -6.996 -3.7075 
-17.78422 -7.976 -8.258 -9.627001 -10.4425 -6.3205 -6.8915 -10.2695 -12.1694 -13.0145 -6.996 
-20.14572 -13.0405 -9.932501 -14.0875 -11.355 -8.245501 -13.1373 -15.8489 -14.8489 -13.0145 
-25.21022 -14.715 -14.393 -15 -13.28 -14.3369 -18.7167 -18.5284 -14.8489 
-1.934 -1.4985 -4.3005 -1.756 -3.818 -3.213 -1.7565 -12.16972 -1.4985 -4.3165 -4.1395 -2.4945 -4.905 
-2.6125 -5.910501 -5.321001 -5.408 -5.229 -4.766 -14.87542 -13.66822 -5.818501 -8.302 -5.9615 -6.6395 
-7.064001 -6.999001 -8.489501 -6.3205 -6.4695 -18.36932 -16.37392 -17.98822 -10.6095 -10.553 -10.8961 
-8.153501 -9.5415 -8.530001 -7.345 -20.49982 -19.86782 -20.69392 -22.77922 -12.8605 -15.4876 
-11.0758 -9.5535 -9.592501 -21.74452 -21.99832 -24.18782 -25.48492 -25.03022 -17.7951 
-12.3885 -6.5785 -3.433 -1.7565 -5.545 -4.299 -1.756 -4.3005 -3.098 -2.4265 -4.0555 -1.934 -4.467 0 
-19.2934 -11.136 -4.1845 -6.4905 -10.6345 -5.635 -5.355 -8.1595 -5.79 -5.285501 -5.263 -6.3785 -4.467 
-23.8509 -11.8875 -9.2955 -11.6884 -11.9705 -8.955501 -9.2075 -11.1151 -8.7325 -6.694 -10.254 -6.3785 
-24.6024 -16.9985 -14.5744 -13.0244 -15.291 -13.0242 -12.2549 -14.0576 -9.3885 -11.9288 -10.254 
-29.7134 -22.2774 -15.9104 -16.3449 -19.3597 -16.0716 -15.1974 -14.7136 -14.7559 -11.9288 
-12.16972 0 -2.4945 -1.4985 -4.269 -4.257 -4.5345 -4.415 0 -1.756 -5.451 -3.213 -2.674 -3.6955 -1.934 -1.4985 -3.452 -3.519 
-12.16972 -2.4945 -3.9315 -5.71 -6.551 -8.592 -8.5165 -4.415 -1.756 -6.799 -9.4665 -6.4115 -5.082 -4.938 -2.6125 -4.4485 -6.6785 
-14.66422 -3.9315 -7.739 -7.634501 -11.7134 -12.8854 -8.5165 -5.645501 -6.799 -10.4675 -12.8722 -8.7435 -6.218 -6.0715 -5.475 -8.277 
-16.10122 -7.739 -9.633 -13.3721 -16.0068 -12.8854 -10.426 -11.7193 -10.4675 -13.8732 -15.2042 -10.233 -7.5315 -9.286 -9.0065 
-19.90872 -9.633 -15.3064 -17.6655 -16.0068 -14.7949 -16.4998 -15.3878 -13.8732 -16.2052 -16.6937 -11.5465 -10.9164 -12.9035 
