-4.759 
n/a 
n/a 
n/a 
n/a 
-4.759 
n/a 
n/a 
n/a 
n/a 
-4.759 
n/a 
n/a 
n/a 
n/a 
-4.759 
n/a 
n/a 
n/a 
n/a 
-4.1855 -1.934 -3.158 -5.855 -2.229 -3.193 -12.16972 -4.261 -1.4985 -5.328 -1.7565 -1.4985 -4.935 -2.4945 -4.775 -4.912 0 -5.448 -3.17 -3.1385 -2.847 -4.103 -3.9375 -1.4985 -4.4265 -4.176 -5.317 -2.0935 -1.4985 -3.193 
-6.3255 -5.7375 -10.2485 -8.323001 -4.5325 -16.38072 -16.43072 -6.5365 -6.528501 -6.709 -2.4195 -5.7615 -8.26 -5.735001 -8.597 -4.912 -5.448 -8.685501 -4.946 -6.3015 -4.3465 -7.51 -5.104 -4.9985 -8.190001 -7.3675 -6.889 -2.9725 -4.136 
-10.1905 -13.8346 -12.7165 -10.8741 -18.46322 -20.64172 -18.70622 -11.9581 -6.9385 -7.445 -6.041 -8.585501 -10.181 -9.482 -8.597 -8.936501 -8.685501 -9.772501 -8.2025 -7.1505 -7.565001 -8.373 -8.559501 -8.8915 -8.975 -9.5495 -7.810501 -5.519001 
-18.4246 -16.3026 -15.2676 -24.80482 -22.72422 -22.91722 -24.12782 -12.3681 -7.6385 -9.1255 -8.945001 -10.1945 -10.2255 -9.482 -10.355 -10.382 -9.772501 -10.2955 -8.641001 -9.604 -8.41 -10.195 -10.199 -10.001 -10.0045 -9.936501 -10.1105 
-20.8926 -18.8537 -29.19832 -29.06582 -24.99972 -28.33882 -24.53782 -13.0681 -9.1745 -10.082 -10.1945 -10.2305 -10.2255 -10.3555 -10.4155 -10.401 -10.2955 -10.305 -10.1225 -10.046 -10.1945 -10.236 -10.207 -10.1435 -10.1165 -10.182 
-6.277 -4.156 -3.43 -2.5685 -1.4985 -3.5535 -3.989 -2.0935 -2.664 -3.864 -3.16 -1.934 -4.1855 0 -3.436 -4.1235 -3.0365 -3.152 -1.4985 -3.0835 -2.911 -3.974 -3.074 -2.356 -3.16 -4.0305 -2.9905 0 -3.16 -3.1335 -1.756 -2.356 -1.4985 -3.64 -4.0935 -5.2785 -2.7455 -1.4985 -3.213 -3.6205 0 
-6.327001 -7.635 -6.031 -3.7015 -5.061501 -6.4465 -5.0175 -4.189 -5.088 -7.1075 -5.5715 -5.408 -4.1855 -3.436 -5.869 -7.2675 -4.453 -4.764 -3.535 -6.374001 -4.4735 -7.1665 -5.756001 -5.620501 -7.651501 -5.976001 -2.9905 -3.16 -5.268 -4.562 -4.553 -3.1615 -5.3715 -7.681001 -8.2145 -7.1205 -3.637 -4.3955 -5.9355 -3.6205 
-9.409501 -10.2185 -6.4635 -6.1525 -6.858 -7.238 -6.931 -6.8145 -8.101 -9.1495 -9.163501 -5.408 -7.762 -5.869 -8.329 -8.649501 -6.5705 -6.007501 -7.107501 -7.5375 -7.9775 -9.611501 -9.4095 -11.1406 -10.8264 -5.976001 -6.968 -5.268 -7.0335 -7.5605 -5.2515 -7.656501 -9.273001 -12.0606 -9.3855 -7.5905 -6.3685 -6.8105 -5.9355 
-12.222 -10.651 -10.111 -7.6405 -7.7465 -9.205501 -9.3245 -9.693001 -11.0306 -14.3727 -9.163501 -8.1745 -10.4838 -8.329 -9.3435 -10.703 -8.6365 -8.699501 -8.021001 -11.8339 -10.7177 -13.3508 -15.0402 -14.3155 -10.8264 -10.1385 -9.633 -7.0335 -10.147 -8.186501 -10.028 -11.6538 -13.8972 -13.2316 -9.464001 -10.1945 -8.849001 -6.8105 
-12.6545 -14.2985 -11.599 -8.469501 -9.776501 -11.9008 -12.452 -13.0632 -16.2538 -14.3727 -12.0886 -11.0335 -12.9438 -9.3435 -11.4412 -12.769 -11.3271 -10.2975 -12.7334 -14.5741 -14.457 -18.9815 -18.2151 -14.3155 -14.9889 -12.8035 -11.4855 -10.147 -10.773 -13.0968 -14.1137 -16.278 -15.0682 -13.3101 -12.7852 -12.675 -8.849001 
-2.264 -1.8085 -9.544001 -3.193 -1.7565 -4.1855 -10.638 -4.156 -3.8755 -2.5685 -1.4985 -8.7775 -3.2955 -2.4265 -2.5045 -5.512 -4.357 -1.756 -4.5125 -3.8875 -6.6495 -3.432 -8.8315 -3.3255 -2.9905 -1.4985 -3.5965 
-3.5925 -11.046 -12.8622 -4.5615 -6.055501 -15.2611 -15.249 -8.235001 -6.7225 -3.7015 -10.586 -12.4508 -5.4355 -4.6185 -8.0255 -10.985 -6.0445 -5.887 -7.542001 -10.1305 -10.598 -12.2487 -12.3776 -6.1295 -4.143 -4.746 
-13.7284 -14.3642 -14.2307 -9.473001 -17.6747 -19.8721 -19.328 -11.331 -7.4975 -13.3728 -14.2593 -14.5908 -6.692 -10.0885 -13.7049 -12.6725 -7.47 -9.998 -14.4768 -14.5248 -19.4147 -15.7948 -15.1816 -6.358 -7.843 
-17.0466 -15.7327 -19.1422 -21.0812 -22.2857 -23.9511 -22.424 -12.106 -17.4886 -17.0461 -16.3993 -15.8473 -12.8764 -15.7679 -15.3924 -14.098 -10.382 -16.9328 -18.8711 -23.3415 -22.9608 -18.5988 -15.4101 -10.586 
-18.4151 -20.6442 -30.7504 -25.6922 -26.3647 -27.0471 -23.199 -22.0971 -21.1619 -19.1861 -17.6558 -22.0317 -18.5558 -17.4554 -16.8179 -17.01 -17.3168 -21.3271 -27.6878 -26.8876 -25.7648 -18.8273 -19.6381 
-1.934 -4.1855 -1.7695 -4.1235 -3.193 -6.277 -4.156 -1.8085 -4.7555 -1.7695 -3.432 -3.213 -3.1335 -1.7695 -2.5685 -1.7565 -3.5535 -3.737 0 
-5.408 -5.918 -6.3025 -5.842 -10.564 -6.327001 -6.3475 -7.979 -7.5465 -5.956501 -6.553 -6.9715 -4.809 -4.2305 -3.887 -5.607 -7.4385 -3.737 
-6.534 -11.5008 -7.8895 -13.7742 -10.6395 -8.658501 -12.895 -10.1635 -12.2473 -8.64 -9.251 -8.4215 -6.5765 -5.234 -9.547501 -9.3795 -7.4385 
-12.4774 -13.0878 -16.2457 -13.8497 -12.971 -15.6304 -15.0795 -14.9987 -14.9308 -11.6444 -11.1212 -10.2645 -7.4515 -11.4759 -13.268 -9.3795 
-14.0644 -21.444 -16.3212 -16.1812 -19.9429 -17.8149 -19.9147 -17.6822 -17.9352 -13.5146 -12.9642 -11.1395 -13.9414 -15.1964 -13.268 
