-4.759 
n/a 
n/a 
n/a 
n/a 
-4.759 
n/a 
n/a 
n/a 
n/a 
-4.759 
n/a 
n/a 
n/a 
n/a 
-4.759 
n/a 
n/a 
n/a 
n/a 
-3.288 -2.7625 0 -4.2815 -2.229 -12.16972 -5.2595 -4.99 -4.6745 -2.461 -5.77 -4.622 -1.7695 -4.0355 -2.356 -1.4985 -4.1865 -3.7345 -4.0465 0 
-5.2635 -2.7625 -4.2815 -5.5905 -14.99372 -17.42922 -11.2883 -7.535501 -7.9755 -8.573501 -9.3655 -6.3915 -4.562 -4.5425 -3.1615 -5.649 -8.5935 -5.636 -4.0465 
-5.2635 -7.537001 -5.5905 -19.36642 -20.25322 -23.45802 -13.8338 -11.9895 -10.7495 -12.4476 -11.5352 -9.282001 -4.772 -6.0015 -7.451 -9.584001 -10.903 -5.636 
-10.078 -8.953 -19.36642 -24.62592 -26.28202 -26.00352 -18.2878 -14.7635 -14.6236 -14.6173 -14.4257 -10.6605 -6.3965 -9.748501 -11.6466 -12.1571 -10.903 
-11.7748 -22.89692 -24.62592 -30.65472 -28.82752 -30.45752 -21.0618 -18.6376 -16.7933 -17.5078 -15.8042 -12.285 -9.943001 -14.1503 -14.2197 -12.1571 
-3.288 -2.7625 -4.2815 -2.229 -6.6425 -5.2595 -5.1405 -4.7195 -2.356 -3.54 -3.6385 -2.4265 -2.186 -4.31 -1.4985 -4.0535 -2.0935 -3.613 -2.356 -2.5685 -3.188 -3.7345 -3.969 0 
-5.2635 -7.537001 -5.5905 -8.698 -12.6254 -11.4388 -7.5595 -6.729 -5.284 -6.9395 -6.0605 -3.292 -7.8715 -5.640501 -4.5605 -5.8065 -6.8595 -6.174 -4.4635 -6.2315 -7.0455 -6.008 -3.969 
-10.078 -8.953 -13.0707 -14.7449 -18.8047 -13.8578 -9.741501 -9.1705 -9.080501 -10.0065 -6.774 -9.234 -8.785 -9.6475 -6.2675 -11.4357 -9.459001 -8.1555 -8.637 -10.375 -9.933001 -6.008 
-11.7748 -16.6012 -19.1176 -20.9242 -21.2237 -16.0398 -12.3624 -13.2458 -12.5209 -10.8742 -13.0894 -10.3499 -13.0226 -11.3343 -12.5129 -14.0352 -11.8597 -12.8098 -13.0477 -13.2625 -9.933001 
-19.423 -22.6481 -25.2969 -23.3432 -23.4057 -18.6607 -16.4377 -16.6862 -13.3886 -17.1896 -14.2053 -14.5875 -14.7094 -17.5797 -15.1124 -16.4359 -16.514 -17.2205 -15.9352 -13.2625 
-3.288 -2.7625 0 -6.322001 -6.052001 -4.3645 -5.3895 -2.7415 -4.622 -2.356 -3.54 -4.4365 -3.499 -1.7695 -2.489 -4.4475 -1.7695 -1.4985 -3.7345 -3.4775 0 
-5.2635 -2.7625 -6.322001 -7.296501 -10.9927 -8.743 -7.2405 -5.66 -6.5705 -5.284 -7.561001 -6.0595 -5.1815 -3.1405 -5.7105 -4.769 -2.7955 -4.9965 -7.2365 -3.4775 
-5.2635 -9.133 -7.296501 -13.7502 -15.3712 -10.451 -8.205 -7.298 -8.991 -8.990001 -7.804 -7.6225 -6.5825 -6.416501 -5.9145 -5.561 -6.4545 -8.8865 -7.2365 
-12.825 -10.2705 -13.7502 -18.1287 -17.0792 -11.6883 -9.951 -9.637001 -12.8164 -9.452001 -9.573001 -8.963 -9.795 -6.7275 -6.535 -9.263 -10.494 -8.8865 
-13.9625 -16.7242 -18.1287 -19.8367 -18.3165 -13.4343 -12.6992 -13.4624 -13.2784 -11.3844 -10.9265 -12.2867 -10.267 -7.329 -10.395 -13.5183 -10.494 

n/a 
n/a 
n/a 
n/a 
