-4.759 
n/a 
n/a 
n/a 
n/a 
-4.759 
n/a 
n/a 
n/a 
n/a 
-4.759 
n/a 
n/a 
n/a 
n/a 
-4.759 
n/a 
n/a 
n/a 
n/a 
-3.423 -2.4285 -3.1725 -1.756 -3.321 -3.0105 -4.1965 -2.3345 -4.003 
-5.3035 -4.9195 -5.1365 -4.0055 -6.2105 -7.3135 -6.541 -6.834001 
-7.5195 -7.12 -7.278 -7.234 -11.1939 -9.9425 -11.2875 
-9.83 -9.2545 -10.442 -12.3326 -13.8229 -15.012 
-11.9645 -12.4945 -15.5406 -14.9616 -18.8924 
-4.267 0 -4.28 0 -1.4985 -4.003 -3.423 -1.7695 -3.4465 -3.1495 -3.7205 -4.302 
-4.267 -4.28 -4.28 -1.4985 -5.444 -8.463 -5.017 -4.299 -6.3355 -6.660501 -9.158001 
-8.735001 -4.28 -6.028501 -5.444 -9.709001 -10.2135 -8.587501 -6.8355 -10.4115 -13.0196 
-8.735001 -6.028501 -10.9998 -9.709001 -10.7355 -13.784 -11.6492 -10.7325 -17.0182 
-10.6605 -10.9998 -15.2648 -10.7355 -14.306 -16.8457 -15.5462 -17.3392 
-2.9195 -5.151 0 -4.2465 0 -3.9445 -1.7565 -4.003 -3.423 0 
-8.1495 -5.151 -4.2465 -4.2465 -3.9445 -5.2125 -5.934 -8.463 -3.423 
-8.1495 -9.5655 -4.2465 -9.082001 -5.2125 -8.415501 -11.3862 -8.463 
-13.4286 -9.5655 -9.082001 -10.5755 -8.415501 -14.7853 -11.3862 
-13.4286 -14.6554 -10.5755 -13.7785 -14.7853 -14.7853 
-2.9195 0 -4.2475 0 -2.9195 -4.23 -8.002501 -4.003 -3.423 
-2.9195 -4.2475 -4.2475 -2.9195 -7.585501 -10.6215 -12.6883 -8.463 
-9.080001 -4.2475 -7.367001 -7.585501 -14.53 -15.3073 -17.1483 
-9.080001 -7.367001 -12.8518 -14.53 -19.2158 -19.7673 
-12.4271 -12.8518 -19.7963 -19.2158 -23.6758 
