-4.759 
n/a 
n/a 
n/a 
n/a 
-4.759 
n/a 
n/a 
n/a 
n/a 
-4.759 
n/a 
n/a 
n/a 
n/a 
-4.759 
n/a 
n/a 
n/a 
n/a 
-3.264 -3.6845 -2.871 -2.3335 -3.264 -3.915 -3.9355 -3.7875 -3.6845 -1.4985 -3.568 
-6.4375 -6.669001 -4.725 -5.756001 -8.038 -7.6995 -7.3915 -8.639501 -4.7485 -4.649 
-9.4875 -9.021501 -9.481 -9.533501 -11.9799 -11.5925 -12.4831 -10.127 -7.3125 
-12.0282 -14.0487 -13.3645 -13.917 -15.8729 -16.6841 -13.9706 -12.691 
-17.0554 -17.9322 -17.748 -17.81 -20.9645 -18.1716 -16.5346 
-1.4985 -4.0145 -2.9705 -2.4945 -3.6845 -1.4985 -3.4775 -2.1715 -1.756 -2.985 -10.5785 -8.5865 -2.4945 -3.7855 -1.934 -1.4985 -5.759 -4.1935 -3.6845 
-5.0175 -6.499001 -4.302 -6.086 -4.7485 -4.400001 -5.403 -4.4635 -4.2025 -11.117 -19.4396 -11.6088 -5.125 -5.059 -2.6125 -7.1105 -9.067 -7.448 
-7.704 -7.221 -7.755 -6.693 -7.5035 -6.788 -7.6315 -7.567 -12.5989 -19.9781 -22.4619 -14.2393 -5.843 -5.6785 -7.8675 -10.085 -12.5451 
-8.517 -10.2225 -8.182501 -9.656501 -9.908 -8.352501 -11.1472 -16.065 -21.46 -23.0004 -25.0924 -14.9573 -6.478 -10.1295 -10.621 -13.5631 
-11.6321 -10.65 -11.2186 -12.0352 -11.6411 -12.1628 -19.6452 -24.9261 -24.4823 -25.6309 -25.8104 -15.5923 -10.688 -13.0688 -14.0991 
-1.4985 -4.5725 -3.8405 -3.034 -1.4985 -3.098 0 -5.1845 0 -4.0555 -1.7695 -2.489 -4.191 -1.7695 -1.4985 -3.6885 -2.186 -5.2995 0 -2.5045 -2.186 -1.4985 -4.9985 -5.999 -1.7565 -1.4985 -3.098 
-4.9565 -8.023001 -6.001 -3.947 -4.3095 -3.098 -5.1845 -5.1845 -4.0555 -4.7475 -3.1405 -4.997 -4.774 -2.7955 -4.962501 -5.4995 -5.8025 -5.2995 -2.5045 -4.8025 -3.339 -5.678 -9.742001 -7.0315 -2.4195 -4.3095 
-8.172001 -9.425501 -6.551 -7.1435 -4.3095 -8.247 -5.1845 -10.151 -4.7475 -6.037 -5.785501 -5.3415 -5.3045 -6.2875 -6.508501 -8.771 -5.8025 -6.855501 -4.8025 -5.7455 -7.517 -10.054 -10.251 -7.451 -5.791 
-9.4335 -9.81 -9.693001 -7.1435 -10.041 -8.247 -10.151 -10.55 -6.037 -8.31 -6.212501 -5.928 -9.064 -8.7445 -9.253501 -8.771 -7.375 -8.6435 -5.7455 -9.717 -12.0744 -10.259 -10.5245 -8.259501 
-9.817 -12.952 -9.693001 -13.0898 -10.041 -14.0879 -10.55 -11.8395 -8.31 -8.45 -6.62 -9.524 -11.7114 -11.6851 -9.253501 -9.8105 -8.865001 -8.852 -9.717 -14.3876 -12.2794 -10.5275 -11.333 
-1.4985 -3.6845 -3.568 -3.837 -1.4985 -6.118001 -1.7565 -2.871 -1.756 -3.6845 -2.871 
-5.693501 -6.5745 -6.0155 -4.797 -6.8135 -6.537001 -4.521 -4.864 -5.7145 -6.669001 
-7.6045 -8.726 -6.239 -9.742001 -6.914 -9.555 -6.528 -9.2095 -8.5845 
-8.8575 -8.942 -11.9242 -9.813001 -9.7 -11.8168 -11.2739 -12.2325 
-9.109501 -14.7 -11.9952 -12.7794 -12.015 -16.5627 -14.2969 
