-4.759 
n/a 
n/a 
n/a 
n/a 
-4.759 
n/a 
n/a 
n/a 
n/a 
-4.759 
n/a 
n/a 
n/a 
n/a 
-4.759 
n/a 
n/a 
n/a 
n/a 
-3.074 -1.4985 -3.7345 -2.742 -2.489 -4.9345 0 -1.756 -1.4985 -4.221 -1.7565 -3.8245 -3.681 -2.4945 -3.074 -3.7555 -4.4945 0 
-4.6505 -4.9965 -6.3085 -3.301 -5.9115 -4.9345 -1.756 -3.0405 -5.1645 -5.1015 -5.058 -6.1385 -5.112 -4.4205 -5.929501 -7.578 -4.4945 
-8.242001 -7.4635 -6.659 -6.622 -5.9115 -6.248 -3.0405 -6.5865 -5.224 -8.8995 -6.927 -7.522 -7.8065 -9.568001 -9.903001 -7.578 
-10.8986 -7.771 -10.553 -6.622 -7.073 -7.0905 -6.5865 -6.646 -9.02 -10.032 -8.449 -9.804001 -13.2764 -13.6615 -9.903001 
-11.2061 -11.7844 -10.553 -7.7515 -7.866 -10.159 -6.646 -11.0372 -10.0745 -11.554 -10.733 -15.4045 -17.3699 -13.6615 
-4.8315 -3.599 -4.1095 -2.742 -2.489 -4.9345 -4.3315 -1.756 -3.0365 -3.3435 -1.7565 -4.178 -2.742 -3.498 
-8.970501 -7.6545 -6.772501 -3.301 -5.9115 -8.1555 -6.088 -4.484 -6.8415 -4.7005 -5.6105 -6.623 -5.594501 
-13.1496 -10.5865 -7.2805 -6.622 -8.849501 -9.076 -8.427501 -9.132501 -9.7015 -9.0825 -8.1555 -9.885 
-16.0816 -11.0945 -10.248 -9.5765 -9.662001 -11.5437 -13.4066 -12.1339 -14.0103 -12.3393 -11.6557 
-16.5896 -14.062 -13.2025 -10.356 -12.3337 -16.5228 -16.408 -16.4427 -17.2671 -15.8395 
-4.8315 -1.4985 -4.6985 -2.742 -2.489 -4.9345 -4.3315 -1.756 -1.4985 -3.3435 -1.7565 -5.1755 -2.742 -3.6955 -1.7695 -2.664 -3.498 0 
-5.488 -5.1995 -7.167 -3.301 -5.9115 -8.1555 -6.088 -3.0405 -4.6745 -4.7005 -6.245501 -7.586 -5.043 -4.4705 -4.185 -5.1155 -3.498 
-9.531501 -7.503 -7.752 -6.622 -8.849501 -9.076 -7.567 -6.256 -5.03 -9.2565 -8.88 -10.238 -5.838 -6.006 -5.6315 -5.1155 
-12.2288 -7.996 -10.5225 -9.5765 -9.662001 -10.0075 -10.9469 -6.844 -9.364501 -12.1732 -11.6446 -11.033 -7.0985 -6.1895 -5.6315 
-12.7218 -10.9067 -13.477 -10.356 -10.4055 -13.3874 -11.5349 -11.5273 -12.3808 -14.9378 -12.4396 -12.2935 -7.168 -6.1895 
-2.645 -3.1575 -2.3615 -3.8245 -5.164 -2.742 -4.209 
-3.72 -5.4355 -7.014 -6.658 -7.459 -5.923 
-6.392 -9.642501 -10.7175 -9.033501 -9.388 
-10.6465 -13.5016 -13.093 -10.485 
-14.5056 -15.8771 -14.5445 
