-4.759 
n/a 
n/a 
n/a 
n/a 
-4.759 
n/a 
n/a 
n/a 
n/a 
-4.759 
n/a 
n/a 
n/a 
n/a 
-4.759 
n/a 
n/a 
n/a 
n/a 
-3.098 -3.819 0 -1.4985 -4.445 -3.3785 -3.251 -6.210001 -4.226 -1.4985 -3.321 -12.16972 -3.5435 -1.934 -4.621 
-5.6375 -3.819 -1.4985 -5.0495 -6.0245 -7.0295 -8.3345 -8.360001 -5.52 -5.696501 -16.39912 -15.71322 -5.3395 -5.789001 
-5.6375 -4.844 -5.0495 -6.434 -8.779 -12.3346 -10.468 -9.807001 -9.8085 -19.42422 -19.94262 -17.50922 -8.59 
-7.0845 -8.554501 -6.434 -8.8935 -14.1585 -14.4681 -11.915 -14.1577 -23.60522 -22.96772 -21.73862 -20.75972 
-11.0012 -10.2865 -8.8935 -14.295 -16.292 -15.9151 -16.2657 -27.95442 -27.14872 -24.76372 -24.98912 
-3.098 -3.819 -1.934 -4.621 0 -4.445 -3.3785 -5.246 -1.4985 -3.5435 -1.7565 -12.16972 -5.4305 0 
-5.6375 -5.237 -5.789001 -4.621 -4.445 -6.0245 -8.997001 -6.1105 -4.2755 -4.9885 -14.87542 -17.60022 -5.4305 
-6.6315 -9.4525 -5.789001 -9.061501 -6.0245 -9.882501 -9.4355 -8.3715 -5.2325 -19.46742 -20.30592 -17.60022 
-10.199 -9.4525 -9.6815 -10.0315 -9.882501 -10.13 -11.8121 -9.405001 -20.04082 -24.89792 -20.30592 
-10.199 -13.4006 -10.7669 -14.1829 -10.13 -12.7958 -12.8456 -24.45232 -25.47132 -24.89792 
-3.098 -3.819 0 -1.934 -4.621 0 -1.4985 -3.7745 -4.445 -5.227 -2.264 -3.091 -3.5205 -5.2035 -1.756 -5.246 -1.4985 -12.16972 -3.5435 0 
-5.6375 -3.819 -1.934 -5.789001 -4.621 -1.4985 -4.753 -8.405001 -8.650001 -6.268 -4.534 -4.613 -6.6115 -6.81 -6.7305 -6.1105 -14.76202 -15.71322 -3.5435 
-5.6375 -5.237 -5.789001 -5.789001 -6.1335 -4.753 -9.2985 -13.2096 -9.814501 -7.9485 -5.7345 -7.3755 -7.5815 -12.3759 -7.2235 -20.03262 -18.30552 -15.71322 
-6.6315 -9.4525 -5.789001 -6.8345 -9.236501 -9.2985 -14.3161 -14.3741 -11.686 -8.331 -8.0755 -8.304501 -13.5144 -12.8689 -21.42702 -23.57612 -18.30552 
-10.199 -9.4525 -6.8345 -9.920001 -13.9814 -14.3161 -15.4806 -16.2456 -12.0685 -9.972 -9.035501 -14.3356 -14.0074 -27.07242 -24.97052 -23.57612 
-2.872 -3.098 -3.819 -1.934 -1.4985 -3.158 -4.621 -4.445 -3.3785 -2.8645 -5.246 -1.4985 -3.321 -6.958 -3.5435 0 
-5.0315 -5.6375 -5.237 -2.6125 -4.178 -6.9725 -9.061501 -6.0245 -6.357 -6.9145 -6.1105 -5.696501 -10.4675 -8.026501 -3.5435 
-7.2605 -6.6315 -6.0185 -5.265 -8.036501 -11.808 -10.0315 -8.317 -10.1765 -7.609 -9.953501 -13.4926 -11.536 -8.026501 
-7.981501 -7.159 -8.139501 -8.547001 -13.2258 -12.778 -12.6174 -12.4131 -10.725 -11.687 -17.8252 -14.5611 -11.536 
-8.139501 -9.1715 -11.9213 -13.8709 -14.1958 -15.3639 -16.7135 -12.9616 -14.803 -19.5587 -18.8937 -14.5611 
