-4.759 
n/a 
n/a 
n/a 
n/a 
-4.759 
n/a 
n/a 
n/a 
n/a 
-4.759 
n/a 
n/a 
n/a 
n/a 
-4.759 
n/a 
n/a 
n/a 
n/a 
-4.811 0 -4.4895 -2.264 -5.943501 -3.655 -2.5045 -1.8085 -3.736 -4.0915 0 
-4.811 -4.4895 -6.4115 -8.823001 -9.435 -5.7685 -3.3625 -4.6915 -8.031 -4.0915 
-9.234501 -6.4115 -13.7357 -12.6179 -11.6871 -6.259 -5.691 -8.745001 -8.031 
-11.2977 -13.7357 -17.5306 -14.87 -12.1776 -9.277 -8.989 -8.745001 
-18.6219 -17.5306 -19.7827 -15.3605 -15.1956 -10.5755 -8.989 
-1.934 -4.811 -6.3835 -3.9825 -1.7695 -3.685 -3.535 -3.736 -1.934 -5.943501 -3.8195 
-6.0125 -11.7563 -11.1415 -5.7625 -4.9795 -7.504001 -6.497 -5.539 -7.5 -7.305 
-13.4002 -16.5143 -12.9215 -8.7065 -8.7375 -11.2526 -7.844501 -11.8852 -8.967001 
-18.1582 -18.2943 -15.8655 -12.9989 -13.0983 -12.6001 -14.5233 -13.3522 
-19.9382 -21.2383 -20.1579 -17.3597 -14.4458 -19.2789 -15.9903 
-9.300501 -2.5045 -5.943501 -3.8195 -3.655 -3.736 -4.0915 
-10.9005 -9.3395 -7.305 -5.969501 -8.3095 -8.031 
-18.4681 -10.8628 -8.532001 -10.4265 -13.3631 
-19.9914 -12.0898 -13.2454 -15.7471 
-21.2184 -16.8032 -18.566 
-4.811 -2.9805 -4.4895 -2.5045 -1.8085 -3.736 -4.681 -1.934 -7.7225 -3.8195 -3.655 
-7.104001 -6.522 -6.1555 -3.3625 -4.6915 -7.154 -6.131001 -9.413001 -9.876 -5.969501 
-9.981001 -8.703 -6.7905 -5.691 -7.658501 -8.497001 -14.4234 -12.0197 -12.4708 
-12.4858 -9.5535 -9.721001 -8.132501 -8.661 -16.6824 -17.0301 -14.6145 
-13.3363 -12.5206 -12.4279 -8.830001 -16.8938 -19.2891 -19.6249 
