-4.759 
n/a 
n/a 
n/a 
n/a 
-4.759 
n/a 
n/a 
n/a 
n/a 
-4.759 
n/a 
n/a 
n/a 
n/a 
-4.759 
n/a 
n/a 
n/a 
n/a 
-1.4985 -4.7615 -1.7565 -4.3055 -6.341 -2.674 -3.1125 -3.9535 -1.934 -2.3335 -3.5015 0 
-6.2085 -6.2615 -6.1225 -7.64 -9.6595 -3.6315 -6.375 -5.3325 -4.359 -5.909 -3.5015 
-6.5675 -8.5465 -8.248 -11.4095 -10.6115 -7.069 -7.4495 -8.054501 -6.7955 -5.909 
-8.885 -9.606001 -12.1667 -12.3615 -14.049 -7.992001 -9.805 -10.4595 -6.7955 
-9.911 -13.6319 -13.1187 -15.799 -14.972 -10.418 -12.21 -10.4595 
-2.3615 -2.186 -2.7415 -1.4985 -3.0835 -6.341 -6.463 -3.5015 -4.5235 -3.277 0 
-3.5005 -6.0315 -4.063 -3.535 -10.168 -9.710501 -10.135 -8.5895 -6.930501 -3.277 
-7.680501 -7.280001 -5.12 -10.7175 -13.5375 -13.9243 -15.223 -10.7025 -6.930501 
-8.599001 -8.8325 -12.7143 -14.087 -17.7513 -19.0123 -17.336 -10.7025 
-9.505501 -16.4434 -16.0838 -18.3008 -22.8393 -21.1253 -17.336 
-6.648 -5.4435 -5.462 -2.95 -3.098 -4.129 -2.3335 -3.5015 0 -3.264 -4.5235 
-12.8837 -12.2695 -7.5345 -5.819 -7.14 -7.4115 -5.909 -3.5015 -3.264 -7.5415 
-19.7097 -14.342 -10.5325 -8.993 -10.335 -11.289 -5.909 -6.944 -7.5415 
-21.7822 -17.34 -13.7065 -12.7786 -14.2125 -11.289 -9.066501 -11.2603 
-24.7802 -20.514 -17.4921 -16.6561 -14.2125 -14.4465 -13.4974 
-2.3615 -2.186 -1.4985 -3.0835 -5.4435 -2.0935 -4.3055 -5.923 -4.1585 -4.5235 0 
-3.5005 -3.339 -3.535 -8.942 -5.928 -6.824501 -7.0665 -9.474501 -8.181 -4.5235 
-4.3105 -4.8925 -10.0475 -9.281001 -10.4345 -8.991001 -10.061 -13.7226 -8.181 
-5.43 -11.8762 -10.3865 -14.4279 -12.601 -12.0633 -14.3091 -13.7226 
-12.6915 -12.2152 -15.5334 -16.5944 -15.6733 -16.3114 -14.3091 
