-4.759 
n/a 
n/a 
n/a 
n/a 
-4.759 
n/a 
n/a 
n/a 
n/a 
-4.759 
n/a 
n/a 
n/a 
n/a 
-4.759 
n/a 
n/a 
n/a 
n/a 
-3.254 -1.7565 -5.1845 -3.7805 -2.8635 0 -7.074 -4.96 -2.3345 -7.4445 
-4.0065 -6.580501 -6.988501 -7.782001 -2.8635 -7.074 -10.8415 -5.912 -9.005501 
-9.036 -9.261001 -11.8284 -7.782001 -7.2845 -10.8415 -11.7935 -10.0475 
-10.3225 -14.2415 -11.8284 -12.7184 -11.3296 -11.7935 -15.929 
-15.864 -14.2415 -16.7648 -16.7635 -12.2816 -15.929 
-1.4985 -3.254 -1.7565 -5.1845 -4.3225 -4.96 -2.3345 -12.16972 
-4.4095 -4.0065 -6.580501 -7.6455 -8.6735 -5.912 -14.83482 
-4.8735 -9.036 -9.009001 -12.5681 -9.739 -19.02252 
-10.304 -10.348 -14.1144 -13.6336 -23.01352 
-11.616 -15.4534 -15.1799 -26.90812 
-3.254 -1.7565 -5.1845 -3.7805 -2.0935 -4.4685 -8.382501 -3.251 -4.96 -1.4985 -3.3195 0 
-4.0065 -6.580501 -6.988501 -6.09 -5.4985 -13.8818 -10.884 -7.557501 -6.725 -4.7185 -3.3195 
-9.036 -9.261001 -9.390501 -10.243 -15.1848 -16.3833 -15.1905 -8.504001 -7.643 -4.7185 
-10.3225 -11.8036 -14.2207 -20.2729 -17.6863 -20.6898 -16.137 -9.449501 -7.643 
-13.4261 -16.6338 -24.2506 -22.7744 -21.9928 -21.6363 -17.0825 -9.449501 
-3.254 -1.7565 -5.1845 -4.3225 -2.0935 -2.9705 -3.3195 -4.96 -2.3345 -8.382501 
-4.0065 -6.580501 -7.6455 -6.1955 -4.642 -7.354501 -6.952001 -5.912 -9.5205 
-9.036 -9.009001 -10.1505 -8.3535 -9.0625 -11.6256 -7.193501 -13.7082 
-10.348 -11.6968 -12.3247 -10.281 -13.5048 -11.8671 -15.2061 
-13.0358 -13.871 -14.2522 -15.8367 -13.7463 -19.8797 
