-4.759 
n/a 
n/a 
n/a 
n/a 
-4.759 
n/a 
n/a 
n/a 
n/a 
-4.759 
n/a 
n/a 
n/a 
n/a 
-4.759 
n/a 
n/a 
n/a 
n/a 
-3.664 -1.7565 -3.893 -4.6825 -1.756 -3.462 -3.511 -4.6825 -2.7765 -7.173 -3.4945 -3.893 -4.6825 
-5.0205 -6.249001 -5.769 -6.413001 -5.192 -5.0365 -5.988 -7.913001 -10.071 -11.2171 -8.281 -5.769 
-7.9795 -7.731501 -7.315001 -7.954 -6.993 -6.067 -8.947001 -15.5883 -14.1151 -16.0036 -10.204 
-9.370501 -9.073001 -8.6365 -8.196001 -7.7795 -9.1005 -16.9429 -19.6324 -18.9016 -17.9266 
-9.828501 -10.2815 -8.736 -8.400001 -10.633 -17.1732 -20.987 -24.4189 -20.8246 
-4.6825 -3.571 -3.893 0 -4.6825 -3.571 -3.462 -3.511 -4.6825 -3.664 -4.3285 0 
-8.790501 -8.025 -3.893 -4.6825 -8.790501 -7.304 -5.0365 -5.988 -7.7425 -8.694501 -4.3285 
-13.5947 -8.025 -5.769 -8.790501 -12.8737 -9.152 -6.067 -8.514501 -13.1594 -8.694501 
-13.5947 -9.3605 -9.1805 -12.8737 -14.7217 -9.902 -8.575001 -14.1816 -13.1594 
-14.9302 -13.0022 -14.2045 -14.7217 -15.4717 -12.41 -14.2907 -14.1816 
-12.16972 -2.6165 -1.934 -7.1585 -3.4155 
-14.78622 -4.552 -9.703501 -9.5935 
-16.72172 -12.9229 -12.3441 
-25.09262 -15.5635 
-27.73322 
-3.893 -3.4945 -4.6825 0 -4.6825 -1.756 -3.462 -3.511 -4.6825 -2.4945 -3.0785 -1.7695 -4.188 0 
-8.479 -9.329 -4.6825 -4.6825 -6.413001 -5.192 -5.0365 -5.988 -7.9285 -7.448 -4.903 -5.634501 -4.188 
-14.6105 -9.329 -6.93 -6.413001 -7.954 -6.993 -6.067 -9.049001 -13.2202 -9.067 -9.2025 -5.634501 
-14.6105 -11.8003 -10.041 -7.954 -8.196001 -7.7795 -9.118 -14.5059 -14.8392 -13.4617 -9.2025 
-17.0818 -14.9113 -11.582 -8.196001 -8.400001 -9.5325 -14.6167 -16.1249 -19.2339 -13.4617 
