-4.759 
n/a 
n/a 
n/a 
n/a 
-4.759 
n/a 
n/a 
n/a 
n/a 
-4.759 
n/a 
n/a 
n/a 
n/a 
-4.759 
n/a 
n/a 
n/a 
n/a 
-3.5455 -3.6115 -3.188 -3.8275 0 -9.778 -3.834 -4.034 -2.8645 -5.1605 
-7.191 -5.7875 -4.801 -3.8275 -7.2285 -10.3665 -8.478001 -6.414001 -6.3835 
-8.5775 -5.8365 -4.801 -9.295 -10.4939 -15.7693 -10.195 -10.0855 
-8.583 -5.8365 -10.4965 -12.7904 -15.7693 -17.4863 -13.8665 
-8.583 -10.4965 -13.9919 -18.0658 -17.4863 -21.1578 
-3.5455 -3.6115 -3.188 -3.8275 -9.778 -4.034 -5.1605 
-7.191 -5.7875 -4.801 -10.6885 -10.2585 -9.107 
-8.5775 -5.8365 -10.4715 -12.4524 -16.1347 
-8.583 -10.5945 -13.8839 -18.4312 
-13.2784 -13.8839 -19.6327 
-3.5455 -1.4985 -3.6115 -3.188 -3.8275 -4.034 -5.1605 -2.5045 -9.778 
-3.91 -4.081 -5.7875 -4.801 -7.503 -9.107 -7.882 -11.0425 
-5.798 -5.93 -5.8365 -8.736 -13.0288 -12.0071 -17.0442 
-6.613 -5.9535 -8.915501 -14.4818 -15.9289 -21.1693 
-6.6155 -8.998 -14.7225 -17.3819 -25.0911 
-3.5455 -3.6115 -3.188 -3.8275 -4.034 -5.1605 -3.458 -9.778 0 
-7.191 -5.7875 -4.801 -7.503 -9.107 -8.515 -10.1655 -7.2285 
-8.5775 -5.8365 -8.736 -13.0288 -12.6401 -14.9321 -9.760501 
-8.583 -8.915501 -14.4818 -16.5619 -19.0572 -14.9321 
-11.6974 -14.7225 -18.0149 -22.979 -19.0572 
