-4.759 
n/a 
n/a 
n/a 
n/a 
-4.759 
n/a 
n/a 
n/a 
n/a 
-4.759 
n/a 
n/a 
n/a 
n/a 
-4.759 
n/a 
n/a 
n/a 
n/a 
-4.3435 -2.9965 -3.748 -3.1385 -1.756 -3.4155 -3.9725 -2.7415 -4.493 0 
-6.1175 -5.623 -5.326 -4.6325 -5.2205 -6.882501 -6.3315 -5.5985 -4.493 
-7.432 -6.903 -6.794 -7.678501 -9.189 -8.919001 -8.305 -5.5985 
-8.6245 -8.3345 -10.4238 -11.9902 -11.3291 -10.9543 -8.305 
-10.2705 -12.2415 -14.7355 -14.1303 -13.3644 -10.9543 
-5.351 -1.756 -7.1955 -4.2555 -1.7695 -2.9965 -3.748 -4.424 -1.934 -1.4985 -3.8275 0 
-6.346 -9.047001 -12.1116 -6.7635 -4.8865 -5.623 -7.879 -5.195 -2.6125 -4.726 -3.8275 
-10.7495 -14.0137 -14.6196 -10.7495 -6.9205 -9.372001 -8.471001 -6.055501 -5.815001 -4.726 
-15.7162 -16.5217 -18.6056 -12.7835 -10.759 -9.681001 -8.961 -7.726501 -5.815001 
-18.2242 -20.5077 -20.6396 -16.622 -11.068 -9.904501 -10.418 -7.726501 
-1.934 -2.3615 -2.9965 -3.748 -5.351 -1.756 -4.744 -4.19 
-3.539 -6.4645 -5.623 -7.884 -6.346 -6.3925 -7.685 
-7.8705 -8.528501 -9.742001 -8.893001 -7.860001 -9.626 
-10.138 -12.7985 -10.612 -10.078 -10.4675 
-14.408 -13.6685 -11.797 -12.8155 
-1.934 -2.3615 -3.5005 -3.1385 -1.756 -4.744 -2.7455 -2.9965 -3.748 -3.1385 -3.152 -4.19 0 
-3.539 -6.97 -6.706 -4.6325 -6.3925 -7.812 -5.403501 -5.623 -5.326 -5.219 -6.435 -4.19 
-8.742001 -9.7295 -8.2025 -8.737 -9.389501 -10.1225 -7.134501 -6.903 -6.9915 -7.9975 -6.435 
-11.5663 -11.3148 -12.6406 -11.7986 -11.7356 -11.9665 -8.297501 -8.903501 -9.453501 -7.9975 
-13.1516 -15.7529 -15.7022 -14.1447 -13.5796 -13.1295 -10.2695 -11.5595 -9.453501 
