-4.759 
n/a 
n/a 
n/a 
n/a 
-4.759 
n/a 
n/a 
n/a 
n/a 
-4.759 
n/a 
n/a 
n/a 
n/a 
-4.759 
n/a 
n/a 
n/a 
n/a 
-3.251 -4.267 -3.188 -2.674 -4.953 -4.5785 -3.6615 -1.756 -4.164 -3.091 -5.0035 
-8.1505 -7.8545 -6 -8.5065 -10.1385 -7.4095 -5.259 -5.9325 -6.095 -8.922501 
-12.1574 -11.4093 -12.3011 -13.9758 -12.9695 -9.1225 -8.899 -7.476 -12.9251 
-15.7122 -17.7104 -17.7704 -16.8068 -14.6825 -13.0885 -10.9601 -14.4151 
-22.0133 -23.1797 -20.6014 -18.5198 -18.6485 -15.1496 -17.8992 
-3.251 -3.7095 -3.4625 -1.4985 -3.9355 -4.953 -2.4285 -3.4625 -1.4985 -4.3955 
-7.153501 -7.393001 -4.474 -4.8035 -7.9185 -6.641 -5.2275 -4.474 -4.95 
-11.1884 -8.888 -7.676 -9.377501 -9.903501 -10.5878 -6.1495 -7.2045 
-12.6834 -12.344 -12.63 -10.6345 -14.1405 -11.5098 -8.625 
-16.1394 -17.298 -13.887 -14.8715 -15.0625 -13.9853 
-3.251 -5.1405 -3.9355 -4.245 -3.4715 -1.756 -2.8965 -3.6615 -3.737 -2.4285 -2.3335 -6.718 -2.674 -4.164 0 
-8.931001 -10.2235 -8.359 -9.013 -5.553 -3.751 -5.974 -7.563001 -6.3215 -4.979 -9.194501 -10.363 -5.316 -4.164 
-14.426 -14.647 -13.6376 -11.5843 -8.027 -6.801001 -9.85 -10.6875 -8.9805 -12.1676 -12.9039 -13.005 -5.316 
-18.8495 -19.9256 -16.2089 -14.0583 -10.634 -10.403 -13.1345 -13.3465 -16.2565 -15.877 -15.5459 -13.005 
-24.1281 -22.4969 -18.6829 -16.6653 -14.236 -13.6875 -15.7935 -20.6225 -19.9659 -18.519 -15.5459 
-3.251 -5.1405 -1.7565 -4.245 -2.674 -4.0725 -4.346 0 
-8.931001 -6.8675 -5.743001 -7.210001 -7.1455 -7.9315 -4.346 
-10.7495 -11.5318 -8.454 -12.1481 -11.2593 -7.9315 
-15.4138 -14.2428 -13.3783 -16.2619 -11.2593 
-18.1248 -19.1671 -17.4921 -16.2619 
