-4.759 
n/a 
n/a 
n/a 
n/a 
-4.759 
n/a 
n/a 
n/a 
n/a 
-4.759 
n/a 
n/a 
n/a 
n/a 
-4.759 
n/a 
n/a 
n/a 
n/a 
-3.97 0 -3.6705 -4.2055 0 -3.4005 0 -4.351 -6.231 -2.186 -5.2875 -2.4285 -4.69 0 
-3.97 -3.6705 -9.158001 -4.2055 -3.4005 -3.4005 -4.351 -11.7374 -9.6875 -7.724501 -5.968501 -6.8725 -4.69 
-7.9775 -9.158001 -9.158001 -8.234501 -3.4005 -6.870501 -11.7374 -15.1939 -15.226 -9.136001 -12.1461 -6.8725 
-14.1912 -9.158001 -13.018 -8.234501 -6.870501 -15.2909 -15.1939 -20.7324 -16.6375 -15.4704 -12.1461 
-14.1912 -13.018 -13.018 -12.0871 -15.2909 -18.7474 -20.7324 -22.1439 -22.9719 -15.4704 
-1.934 -3.97 0 -3.972 0 -3.4005 0 -4.2785 -1.756 -2.5685 -1.4985 -4.6835 -1.4985 -3.5485 -3.152 -5.2235 -2.4285 -6.249 -5.113 0 
-5.607 -3.97 -3.972 -3.972 -3.4005 -3.4005 -4.2785 -5.484 -4.2335 -3.7015 -6.0905 -6.6215 -5.0185 -5.807 -6.870501 -6.9455 -7.628 -12.3444 -5.113 
-5.607 -8.5895 -3.972 -6.483 -3.4005 -7.554 -5.484 -8.387 -5.11 -7.4 -7.742 -10.0005 -6.6855 -10.1425 -8.539001 -13.0844 -13.8734 -12.3444 
-10.0285 -8.5895 -6.483 -6.483 -7.554 -8.467 -8.387 -9.0365 -8.808001 -9.287001 -11.2278 -11.6189 -11.1158 -12.0008 -15.0521 -19.3298 -13.8734 
-10.0285 -10.1855 -6.483 -10.5325 -8.467 -11.7248 -9.0365 -13.0159 -10.6735 -12.7868 -12.8462 -16.0492 -12.9741 -18.5139 -21.2975 -19.3298 
-1.4985 -3.5485 -3.152 -5.2155 -2.4285 -5.231 -2.5195 -1.4985 -4.193 -1.934 -1.4985 -4.134 -1.7565 -3.97 0 -6.8545 0 -3.4005 -1.756 -1.4985 -3.579 -3.2015 0 
-5.0185 -5.807 -7.525001 -6.972001 -7.1085 -5.933001 -3.1695 -4.594501 -5.4855 -2.6125 -5.181 -5.241 -5.6915 -3.97 -6.8545 -6.8545 -3.4005 -4.503 -3.0405 -4.601 -5.4655 -3.2015 
-6.6855 -10.6644 -9.325001 -9.030001 -7.790501 -8.448001 -5.4985 -6.854 -6.193501 -5.608 -5.6765 -8.030001 -5.6915 -12.1617 -6.8545 -10.3415 -4.503 -5.8675 -6.127 -6.5305 -5.4655 
-11.6377 -12.4644 -11.384 -10.7025 -9.483001 -10.1635 -7.384 -7.306 -10.5745 -5.8435 -8.079 -8.030001 -14.5046 -12.1617 -10.3415 -10.7445 -5.8675 -9.033 -8.034 -6.5305 
-13.4377 -14.5234 -13.0565 -12.395 -11.7513 -12.049 -8.039001 -11.8636 -10.81 -8.2335 -8.079 -17.6255 -14.5046 -15.6487 -10.7445 -12.109 -9.033 -10.3745 -8.034 
-1.934 -3.97 0 -3.972 -4.053 0 -3.4005 0 -3.4465 -1.934 -1.4985 -4.042 0 -3.5895 0 0 -3.5485 -2.674 -2.5685 -3.469 -3.1125 -3.858 -4.4725 -3.8515 -2.4285 -5.231 0 
-5.607 -3.97 -3.972 -5.87 -4.053 -3.4005 -3.4005 -3.4465 -5.361 -2.6125 -4.778501 -4.042 -3.5895 -3.5895 0 -3.5485 -5.706 -5.011 -6.699 -5.5285 -6.8055 -8.082001 -6.940001 -5.964001 -7.1085 -5.231 
-5.607 -8.5895 -5.87 -5.87 -7.7645 -3.4005 -7.3945 -5.361 -5.722 -5.9235 -4.778501 -7.399 -3.5895 -3.5895 -3.5485 -5.706 -8.285501 -8.9125 -9.4665 -9.8505 -10.4185 -10.4675 -9.6885 -9.7185 -7.1085 
-10.0285 -10.9543 -5.87 -9.6675 -7.7645 -7.3945 -9.622001 -5.722 -8.821 -5.9235 -8.4975 -7.399 -3.5895 -7.746 -5.706 -8.285501 -12.5618 -9.7705 -13.7895 -13.4635 -12.804 -12.9108 -10.7595 -9.7185 
-12.8067 -10.9543 -9.6675 -9.6675 -12.3651 -9.622001 -10.1695 -8.821 -8.821 -9.458 -8.4975 -7.399 -7.746 -9.637001 -8.285501 -12.5618 -13.4198 -14.1561 -17.4025 -15.849 -15.2473 -13.9818 -10.7595 
