-4.759 
n/a 
n/a 
n/a 
n/a 
-4.759 
n/a 
n/a 
n/a 
n/a 
-4.759 
n/a 
n/a 
n/a 
n/a 
-4.759 
n/a 
n/a 
n/a 
n/a 
-3.034 -4.913 -1.7695 -1.4985 -3.5905 -5.5025 -2.4265 -2.186 -6.108 -3.748 -3.277 -3.5905 
-6.1455 -6.391 -2.7955 -4.435 -9.001 -7.751 -3.292 -9.5325 -10.304 -5.8405 -4.7035 
-7.7345 -6.7605 -5.7305 -9.5535 -11.5849 -8.252 -11.1105 -10.759 -10.4525 -6.8485 
-8.340501 -9.352 -11.0552 -12.2478 -12.0859 -16.3039 -12.337 -10.7785 -10.726 
-10.27 -14.7189 -13.7495 -12.7488 -20.1378 -17.5304 -12.3565 -10.7985 
-4.115 -1.7565 -1.4985 -3.5905 -3.188 -4.142 -12.16972 -3.158 -3.5905 0 
-7.2 -2.4195 -4.435 -5.7565 -8.428 -17.46372 -15.32772 -4.382 -3.5905 
-7.7365 -5.288001 -6.481 -11.5095 -22.29492 -20.62172 -16.55172 -4.382 
-11.3808 -7.110001 -12.5596 -25.37642 -25.45292 -21.84572 -16.55172 
-13.2028 -13.3324 -26.42652 -28.53442 -26.67692 -21.84572 
-4.2815 -1.7695 -3.962 -3.5905 -3.8745 -6.108 -3.748 -3.5905 -4.7365 
-4.4915 -7.414001 -7.988501 -9.162001 -11.4909 -10.304 -7.9775 -7.8655 
-10.7025 -10.1505 -13.7938 -17.0252 -15.6869 -15.0681 -12.7585 
-13.439 -16.7294 -21.657 -21.2212 -20.451 -19.8491 
-20.0179 -24.5926 -25.853 -25.9853 -25.232 
-1.934 -4.3485 0 -1.4985 -4.6365 -3.873 -3.892 -2.186 -6.108 -3.748 -3.277 -3.5905 0 
-5.4065 -4.3485 -1.4985 -5.3015 -8.563001 -7.971 -5.6735 -9.5325 -10.304 -5.8405 -4.7035 -3.5905 
-5.4065 -6.1175 -5.3015 -8.776501 -13.2002 -9.653 -13.4336 -10.759 -10.4525 -6.8485 -4.7035 
-6.859 -9.8395 -8.776501 -13.5341 -14.8822 -17.4427 -14.6601 -10.7785 -10.726 -6.8485 
-10.6465 -13.3697 -13.5341 -15.2161 -22.6719 -18.6692 -14.6796 -10.7985 -10.726 
