-4.759 
n/a 
n/a 
n/a 
n/a 
-4.759 
n/a 
n/a 
n/a 
n/a 
-4.759 
n/a 
n/a 
n/a 
n/a 
-4.759 
n/a 
n/a 
n/a 
n/a 
-5.494 -3.807 -3.38 -3.5035 -1.756 -4.3535 -1.4985 -3.3785 -4.1 -4.8315 0 -3.034 -2.5685 -3.499 -3.6955 -1.7695 -1.8085 -3.8225 -4.6645 0 -2.925 -4.6675 -1.4985 -3.8035 -4.494 -5.201 -1.7565 -4.6075 -5.494 -2.7415 -4.5485 -1.7695 -4.7175 -4.039 -2.356 -3.38 -3.5435 -4.2745 0 
-9.2335 -7.294001 -5.306 -4.74 -6.314 -5.2825 -4.4495 -5.8475 -8.171 -4.8315 -3.034 -5.4335 -5.296 -6.4965 -4.4705 -3.41 -4.8095 -8.199501 -4.6645 -2.925 -7.103 -5.326 -5.0335 -6.8715 -11.0145 -6.533 -5.932001 -10.985 -8.3655 -5.5565 -5.9605 -7.223501 -7.912001 -4.5645 -5.7105 -6.778501 -5.868 -4.2745 
-13.0117 -10.27 -6.262 -9.3865 -6.846 -7.578001 -6.4585 -9.793501 -8.171 -6.8765 -5.4335 -8.019001 -8.971001 -7.815001 -5.808 -6.2995 -8.5155 -8.199501 -7.409 -7.103 -7.8175 -6.5135 -7.977 -13.8978 -12.3465 -11.3967 -12.8879 -13.8565 -10.3285 -6.5105 -12.5687 -9.848001 -7.9735 -7.7975 -9.320001 -8.778501 -5.868 
-15.9877 -11.226 -11.4361 -9.804001 -8.663 -8.854501 -10.3275 -9.793501 -10.3745 -9.2825 -8.019001 -12.2968 -9.807 -9.41 -8.070001 -9.2045 -8.5155 -9.887501 -11.8006 -7.8175 -8.975 -9.606 -15.3135 -15.2298 -17.2102 -18.3526 -15.7594 -15.8195 -11.3003 -13.4873 -15.1932 -9.909 -9.5495 -11.7508 -11.619 -8.778501 
-16.9437 -16.4001 -11.8536 -11.6676 -10.4849 -13.0427 -10.3275 -12.0316 -12.7805 -11.9186 -12.2968 -13.1328 -11.5454 -11.8168 -9.507501 -9.2045 -9.9245 -14.8755 -12.5151 -8.975 -12.1313 -16.9407 -16.6455 -20.0935 -24.1661 -21.2241 -17.7224 -16.7913 -18.2771 -16.1118 -15.2542 -11.4314 -14.8212 -14.0498 -11.619 
-5.9355 -3.9235 -2.8645 -3.7855 -3.38 -3.5035 -1.756 -3.8185 -3.8225 -4.703 0 -3.074 -1.4985 -3.499 -3.894 -4.5445 -1.7695 -4.77 -4.747 -5.9355 -3.9235 -2.8645 -3.8755 -1.7695 -4.77 -3.38 -3.8035 0 
-9.6975 -5.948 -5.325 -8.2045 -5.306 -4.74 -5.2035 -7.888 -8.0185 -4.703 -3.074 -4.6505 -4.967 -7.162 -8.1415 -5.1955 -5.084 -9.853001 -8.814 -9.6975 -5.948 -5.3955 -5.463 -5.084 -8.233001 -7.4525 -3.8035 
-11.181 -8.3625 -9.5125 -10.172 -6.262 -8.734501 -9.0445 -12.6666 -8.0185 -7.476501 -4.6505 -8.2335 -8.349001 -10.426 -9.286501 -8.867001 -10.0575 -14.0543 -12.8755 -11.181 -8.281501 -7.9075 -8.527 -8.407001 -9.672001 -7.4525 
-13.061 -12.6938 -11.5168 -11.128 -10.76 -12.7137 -14.0579 -12.6666 -11.0766 -9.2465 -8.2335 -11.8701 -11.75 -11.9082 -13.126 -14.3011 -14.3106 -18.6527 -15.3449 -12.98 -10.468 -11.0139 -11.9712 -9.7635 -9.672001 
-17.3923 -14.6981 -12.4728 -15.626 -14.7392 -17.7271 -14.0579 -15.7247 -12.8466 -12.8447 -11.8701 -15.2711 -13.2322 -15.7477 -18.5601 -18.5542 -18.909 -20.5247 -17.6784 -15.1665 -13.5744 -14.4581 -13.3277 -9.7635 
-8.932001 -3.807 -1.4985 -4.3925 -4.179 -1.756 -6.5125 -2.3345 -1.4985 -3.3785 -3.84 -1.756 -1.4985 -3.499 -3.423 -4.6675 -1.4985 -3.6885 -1.7565 -6.427001 -1.756 -4.138 -8.932001 -2.186 -4.4715 -4.5485 -1.7695 -4.6675 -1.4985 -4.919 -3.9225 -4.39 0 
-10.741 -4.8745 -5.483 -7.140501 -5.011001 -7.6375 -6.93 -3.233 -4.4495 -5.9975 -4.8045 -3.0405 -4.967 -6.722 -6.745 -5.326 -4.307 -5.0885 -7.405001 -7.165501 -4.87 -10.81 -9.212 -5.7085 -8.423 -5.9605 -5.024 -5.326 -6.824 -7.346 -6.885 -4.39 
-13.58 -8.852 -7.7825 -8.245501 -10.513 -7.7545 -7.2185 -5.8115 -6.7845 -6.922 -6.3865 -6.457 -8.133 -10.3254 -7.3 -5.8 -5.2585 -10.4115 -8.105 -10.304 -11.8035 -14.3465 -13.694 -9.088 -10.622 -8.9255 -5.636 -9.16 -8.914001 -9.2205 -6.885 
-17.3961 -11.5763 -8.849001 -13.8367 -10.58 -8.1885 -9.6055 -8.143001 -7.752501 -8.765 -10.172 -9.655001 -11.8446 -10.8804 -7.687 -6.6085 -10.476 -11.1115 -11.5879 -17.4699 -15.5319 -18.5675 -17.3756 -11.5492 -13.587 -9.454 -9.355 -11.4472 -11.0459 -9.2205 
-20.1204 -12.6428 -14.5622 -13.9037 -11.014 -10.6521 -10.7035 -9.2795 -9.0035 -12.8499 -12.9844 -13.3388 -12.3996 -11.2674 -8.543 -11.9992 -11.176 -14.5944 -18.7538 -20.9659 -19.477 -21.992 -19.8368 -14.5142 -14.1155 -13.1998 -11.6506 -13.5791 -11.0459 
-3.4225 -4.39 -2.186 -1.8085 -3.38 -3.5035 -2.186 -3.7855 0 -1.756 -3.17 -3.6975 -3.84 -2.186 -3.402 0 -4.8995 -5.724 -2.186 -2.871 -3.918 -1.756 -4.9565 -1.4985 -9.6525 -3.8035 0 -3.4225 -4.39 -2.645 -3.2295 -3.38 -2.186 -9.2445 -1.7695 -4.6675 -1.4985 -3.8035 0 
-4.7525 -6.5775 -3.164 -6.4925 -5.306 -5.432 -4.9225 -3.7855 -1.756 -4.684 -4.1885 -8.722 -6.2295 -4.6135 -3.402 -4.8995 -11.6229 -7.785001 -4.247 -7.1945 -6.752 -6.856 -6.0165 -12.2448 -13.6766 -3.8035 -3.4225 -4.7525 -7.091001 -6.2145 -7.386001 -5.9595 -11.117 -9.959001 -5.024 -5.326 -5.0335 -3.8035 
-6.985 -7.6515 -7.972 -8.735001 -7.145 -8.262 -4.9225 -5.972 -4.684 -6.373 -9.073501 -11.5719 -8.610001 -4.6135 -9.368 -11.6229 -13.6839 -9.670501 -10.4265 -10.0715 -12.6158 -7.713 -17.451 -16.2689 -13.6766 -7.977 -4.7525 -7.2385 -11.3753 -11.0378 -10.5331 -15.9175 -11.8315 -13.8391 -5.636 -6.5135 -5.0335 
-8.154 -12.6953 -10.553 -10.2925 -10.513 -8.262 -6.731 -9.060501 -6.373 -11.852 -12.3014 -13.9524 -8.610001 -12.3623 -16.367 -13.6839 -15.5694 -16.2916 -13.3035 -15.9353 -13.4728 -19.2335 -21.4751 -16.2689 -17.8501 -9.225 -7.2385 -12.1162 -16.1986 -14.1849 -20.4911 -16.632 -15.7116 -14.4511 -6.779 -6.5135 
-13.3362 -15.2763 -12.1105 -13.8843 -10.513 -10.1595 -10.1895 -10.9407 -11.852 -15.0799 -14.6819 -13.9524 -16.6184 -19.3613 -18.428 -15.5694 -22.1905 -19.1686 -19.1673 -16.7923 -24.9933 -23.2576 -21.4751 -20.4424 -19.0981 -11.8902 -12.1162 -16.9395 -19.3457 -24.1429 -21.2056 -20.5121 -16.3236 -15.5941 -6.779 
