-4.759 
n/a 
n/a 
n/a 
n/a 
-4.759 
n/a 
n/a 
n/a 
n/a 
-4.759 
n/a 
n/a 
n/a 
n/a 
-4.759 
n/a 
n/a 
n/a 
n/a 
-1.934 -1.4985 -3.788 -7.801001 -1.4985 -4.0245 -3.2555 -5.3285 -1.4985 -3.638 -1.7565 -3.7075 -3.115 -1.4985 -2.8965 -5.2365 0 
-2.6125 -4.6805 -12.4874 -10.2135 -5.1005 -7.022 -7.778 -5.9025 -4.9385 -5.668 -5.7275 -7.081 -4.2305 -3.928 -6.56 -5.2365 
-6.6185 -13.3731 -14.8999 -13.8155 -7.5115 -10.3675 -7.967 -8.844501 -6.114 -9.170501 -8.300501 -8.405001 -6.259 -7.377501 -6.56 
-15.7867 -15.7856 -18.5019 -16.2265 -10.5225 -10.685 -11.078 -9.449 -9.495501 -12.0229 -10.403 -9.964001 -9.212501 -7.377501 
-18.1992 -19.3876 -20.9129 -19.2375 -10.69 -14.4476 -11.6825 -13.0621 -12.4607 -14.1254 -11.962 -10.423 -9.212501 
-1.934 -7.801001 0 -1.4985 -4.0245 -3.2555 -4.822 -1.7695 -1.4985 -3.7075 0 -3.115 -3.3715 -2.8965 -3.972 0 -4.7265 -3.519 -2.356 -1.4985 -4.654 -1.7565 -3.135 -4.16 
-10.564 -7.801001 -1.4985 -5.1005 -7.022 -8.521 -4.8595 -2.7955 -4.6235 -3.7075 -3.115 -5.5935 -4.827001 -6.562 -3.972 -4.7265 -7.1935 -6.031 -3.1615 -5.268001 -5.178 -4.6765 -6.393001 
-10.564 -10.2135 -5.1005 -7.5115 -10.7175 -8.557 -5.318 -5.974 -4.6235 -7.081 -5.5935 -6.357501 -8.2425 -6.562 -9.824 -7.1935 -8.975 -6.901 -6.7885 -5.348001 -8.111 -7.722 
-13.5687 -13.8155 -7.5115 -11.5448 -10.743 -8.888 -8.733 -5.974 -7.538001 -9.445001 -6.357501 -9.884501 -8.2425 -10.647 -12.3498 -8.975 -9.899 -10.5635 -6.84 -8.297001 -11.2385 
-17.1707 -16.2265 -11.5448 -11.5703 -11.074 -12.4042 -8.733 -8.981001 -9.934501 -9.914001 -9.884501 -9.884501 -12.7187 -13.8298 -14.1313 -9.899 -13.6293 -10.5815 -9.7585 -11.4741 
-1.934 -1.4985 -4.4525 -7.801001 0 -3.2555 -4.508 -1.4985 -3.7075 -3.8255 -3.1435 -3.519 -2.5195 -4.3415 -6.043 -3.115 -2.5685 -2.8965 -8.2345 0 
-2.6125 -5.514 -12.9781 -7.801001 -3.2555 -7.813001 -5.0065 -4.6235 -8.050501 -6.823 -5.9665 -5.845 -6.6235 -6.968 -9.285501 -5.481501 -4.555 -12.2762 -8.2345 
-7.185 -14.6436 -12.9781 -10.104 -7.813001 -8.132 -8.219501 -8.364 -10.7175 -9.3365 -7.327001 -8.409 -8.5825 -10.5535 -10.661 -6.6215 -14.4651 -12.2762 
-16.8366 -14.6436 -15.2811 -14.6615 -8.132 -11.4858 -12.4184 -11.318 -13.231 -9.546 -9.075001 -9.737 -12.3188 -11.929 -11.801 -16.7862 -14.4651 
-16.8366 -16.9466 -19.8386 -14.9805 -11.4858 -15.6847 -15.3724 -13.8315 -13.4405 -11.6004 -10.625 -13.4585 -13.6943 -13.069 -21.9657 -16.7862 
-1.934 -7.801001 -5.247 -3.2555 -5.3285 -3.7075 -3.074 -3.8255 -3.638 -2.5195 -1.4985 -4.7695 -1.7565 -5.2955 -3.115 -2.8965 -3.972 
-10.564 -13.3878 -8.283501 -7.778 -10.1345 -6.994 -6.526 -8.092 -5.8435 -3.1695 -6.702001 -6.819 -6.2815 -8.3645 -5.740001 -6.562 
-16.743 -16.4243 -10.575 -13.1678 -13.696 -11.079 -10.9655 -8.6035 -6.403 -8.344501 -7.146 -10.0345 -9.304501 -11.0913 -9.022501 
-19.7795 -18.7158 -15.9398 -16.7293 -17.781 -15.5185 -11.477 -9.2165 -12.1918 -8.6665 -10.176 -13.0575 -12.0921 -14.3738 
-22.071 -24.0806 -19.5013 -20.8143 -22.2205 -16.03 -12.09 -15.1547 -12.5138 -11.9603 -13.199 -15.8451 -15.3746 
