-4.759 
n/a 
n/a 
n/a 
n/a 
-4.759 
n/a 
n/a 
n/a 
n/a 
-4.759 
n/a 
n/a 
n/a 
n/a 
-4.759 
n/a 
n/a 
n/a 
n/a 
-4.809 -1.7565 -3.8275 0 -3.616 -6.9185 0 -3.4625 -1.7565 -3.9675 -2.186 -4.38 0 
-5.7605 -4.8265 -3.8275 -3.616 -11.4719 -6.9185 -3.4625 -4.9855 -5.5405 -5.881001 -6.329 -4.38 
-8.5775 -4.8265 -7.360001 -11.4719 -11.4719 -11.4476 -4.9855 -8.030001 -7.444 -10.1855 -6.329 
-8.5775 -8.4975 -15.9877 -11.4719 -16.001 -12.9706 -8.030001 -9.42 -11.8837 -10.1855 
-12.8421 -17.6242 -15.9877 -16.001 -17.524 -16.0151 -9.42 -14.1195 -11.8837 
-3.8275 0 -3.616 -3.4075 -4.3285 0 -3.8315 -8.9375 -10.017 -9.7735 -1.4985 -6.933001 -1.7695 -2.489 -4.09 
-3.8275 -3.616 -7.8285 -8.092001 -4.3285 -3.8315 -13.6654 -19.6013 -19.8297 -11.7288 -8.120501 -9.371 -3.1405 -5.348001 
-7.360001 -7.8285 -13.0928 -8.092001 -8.693501 -13.6654 -24.3292 -29.414 -21.785 -18.3508 -10.354 -10.7606 -5.9075 
-12.3443 -13.0928 -13.0928 -13.0214 -19.1164 -24.3292 -34.1419 -31.3693 -28.407 -20.5843 -11.7436 -13.5276 
-17.6086 -13.0928 -18.0222 -23.4443 -29.7802 -34.1419 -36.0972 -37.9913 -30.6405 -21.9739 -14.5106 
-4.803 -2.3345 -4.8565 -1.7695 -3.8275 0 -3.616 -5.715 -1.756 -4.361 -4.6225 0 -2.664 -4.114 -1.756 -5.083 -4.2465 -4.2995 -3.9535 -5.1655 -4.4095 
-5.9655 -7.168 -5.432 -5.686 -3.8275 -3.616 -7.5415 -6.49 -5.6505 -7.0005 -4.6225 -2.664 -5 -6.128 -6.3805 -8.3955 -7.5565 -7.49 -7.7355 -7.2675 
-10.2485 -8.073501 -7.759 -5.686 -7.360001 -7.5415 -8.323501 -10.304 -8.8605 -7.0005 -7.374001 -5 -7.1055 -11.6145 -9.5495 -10.533 -10.3745 -10.1905 -10.007 
-11.423 -10.19 -7.759 -8.6095 -9.992001 -8.323501 -12.5059 -13.514 -8.8605 -9.4635 -9.852501 -7.1055 -12.9272 -14.7835 -11.7542 -13.351 -13.5054 -12.5672 
-13.5395 -10.19 -11.0389 -12.4561 -10.2325 -12.5059 -15.7159 -13.514 -11.5173 -12.385 -12.0488 -12.9272 -16.0962 -16.9882 -14.5722 -16.4819 -15.8821 
-1.4985 -4.2725 -3.5445 -5.7045 -3.724 0 -2.264 -5.148 -4.0735 0 -2.3335 -6.496 -2.7415 -2.6165 -4.1975 -2.5045 -2.664 -4.681 0 -4.4045 -3.091 -4.0215 -2.5045 -2.664 -4.681 0 -2.9805 -2.7415 -5.6475 -2.645 -4.5735 -1.7695 -1.4985 -3.3035 -2.5045 -1.8085 -4.3625 
-5.746 -7.483 -7.761001 -7.9705 -3.724 -2.264 -7.5845 -9.370501 -4.0735 -2.3335 -8.704 -8.419001 -4.266 -6.3195 -6.355 -4.074 -5.8375 -4.681 -4.4045 -6.8955 -6.3835 -5.9835 -4.074 -5.8375 -4.681 -2.9805 -4.004 -6.75 -8.072001 -6.009 -6.0425 -2.7955 -3.9705 -5.6615 -3.3625 -5.4895 
-9.411501 -12.0673 -10.6348 -7.9705 -5.0735 -7.5845 -10.564 -9.370501 -6.18 -8.704 -9.522 -9.972501 -6.899 -8.304 -7.7605 -6.495 -5.8375 -9.018001 -6.8955 -9.852 -7.2565 -7.3215 -6.495 -5.8375 -6.8465 -4.004 -7.663001 -8.9455 -10.5535 -6.9215 -6.893 -5.257 -6.043 -6.3565 -6.206 
-14.1872 -14.9411 -10.6348 -9.983 -11.02 -10.564 -10.564 -10.689 -13.0333 -9.522 -10.636 -12.7817 -8.625501 -9.696 -9.365001 -6.495 -9.8335 -10.089 -9.852 -10.344 -8.098001 -8.858001 -6.495 -7.4 -7.694 -7.663001 -10.089 -11.524 -11.466 -7.652 -8.392 -7.1745 -6.732 -9.4045 
-17.061 -14.9411 -12.6473 -16.1129 -13.9995 -10.564 -11.8825 -17.5423 -13.8513 -10.636 -13.4452 -14.5082 -10.1995 -11.5089 -9.365001 -10.3285 -10.3845 -13.3983 -10.344 -11.0341 -9.234501 -8.858001 -7.756001 -8.1405 -11.8766 -10.089 -12.7581 -12.4365 -12.1965 -8.978001 -9.677 -7.903 -10.103 
