-4.759 
n/a 
n/a 
n/a 
n/a 
-4.759 
n/a 
n/a 
n/a 
n/a 
-4.759 
n/a 
n/a 
n/a 
n/a 
-4.759 
n/a 
n/a 
n/a 
n/a 
-2.645 -3.2295 0 -4.152 -3.852 -3.515 -3.115 -4.208 -4.498 0 -4.8115 -2.674 -3.7905 -3.8355 -3.8015 -1.7565 -5.2845 
-6.2145 -3.2295 -4.152 -6.307501 -7.081 -6.8365 -6.967 -5.501 -4.498 -4.8115 -8.555 -5.123 -8.6455 -5.6475 -5.4455 -6.2615 
-6.2145 -7.013 -6.307501 -9.242001 -11.2993 -9.26 -8.745501 -5.501 -7.811 -8.555 -10.3815 -9.846001 -10.757 -6.3065 -10.9357 
-10.1305 -10.1635 -9.242001 -14.0137 -13.7228 -9.5365 -8.745501 -8.492001 -12.5433 -10.3815 -15.1045 -11.9575 -11.416 -12.9545 
-13.362 -13.098 -14.0137 -16.4372 -13.9993 -9.5365 -12.0147 -13.7827 -14.3698 -15.1045 -17.216 -12.6165 -18.064 
-1.756 0 -4.152 -3.515 -3.115 -4.208 -4.498 0 -4.8115 -2.4945 -1.4985 -3.383 -3.699 -4.4445 -1.934 -1.4985 -4.2085 -3.3435 0 
-1.756 -4.152 -5.669001 -6.8365 -6.967 -5.501 -4.498 -4.8115 -7.757 -3.9315 -4.554501 -5.014 -6.2275 -6.3715 -2.6125 -4.987 -7.359 -3.3435 
-5.8515 -5.669001 -8.724001 -9.26 -8.745501 -5.501 -7.811 -7.757 -9.120501 -6.6225 -6.9925 -8.034 -7.8715 -7.059501 -6.178 -8.315001 -7.359 
-7.2775 -8.724001 -10.0155 -9.5365 -8.745501 -8.492001 -11.7453 -9.120501 -12.0445 -9.0795 -9.2615 -9.454 -8.4665 -10.9156 -9.483001 -8.315001 
-9.991501 -10.0155 -10.541 -9.5365 -12.0147 -12.9847 -13.1088 -12.0445 -14.5015 -11.4459 -10.9943 -10.0755 -12.4674 -14.2206 -9.483001 
-3.818 -1.4985 -3.4765 -4.208 -4.498 -1.756 -4.8115 -2.4945 -1.4985 -3.699 -3.355 -2.0935 -4.2085 -3.1385 0 
-5.4495 -5.24 -7.451 -5.501 -6.448 -6.7875 -7.757 -3.9315 -5.264 -5.462 -5.900001 -6.025001 -7.394501 -3.1385 
-9.928 -10.134 -8.532001 -7.517 -9.093 -8.422001 -9.120501 -7.0825 -6.9145 -7.931 -10.733 -9.4825 -7.394501 
-14.822 -10.7085 -10.2755 -9.639501 -10.7175 -9.762 -12.5045 -8.804001 -8.743501 -12.9968 -14.1905 -9.4825 
-15.3965 -12.452 -12.398 -11.3664 -12.0575 -13.2986 -14.226 -10.19 -13.9749 -16.4543 -14.1905 
-2.0935 -2.645 0 -1.934 -4.152 -3.852 -4.314 -4.498 0 -4.8115 -2.4945 -1.4985 -3.535 -4.435 -1.7565 -5.2845 0 
-3.883 -2.645 -1.934 -5.5915 -6.307501 -7.778501 -9.317501 -4.498 -4.8115 -7.757 -3.9315 -4.255 -8.755501 -5.090001 -6.2615 -5.2845 
-3.883 -4.7605 -5.5915 -8.174001 -9.212001 -13.1284 -9.317501 -7.811 -7.757 -9.120501 -5.984 -9.104001 -9.948501 -10.7175 -6.2615 
-6.641 -8.476501 -8.174001 -11.2005 -14.7237 -13.1284 -12.8967 -11.7453 -9.120501 -9.9335 -11.3872 -10.089 -15.8404 -10.7175 
-11.305 -11.3014 -11.2005 -16.7122 -14.7237 -16.7076 -16.831 -13.1088 -9.9335 -15.6439 -12.3722 -16.0831 -15.8404 
