-4.759 
n/a 
n/a 
n/a 
n/a 
-4.759 
n/a 
n/a 
n/a 
n/a 
-4.759 
n/a 
n/a 
n/a 
n/a 
-4.759 
n/a 
n/a 
n/a 
n/a 
-2.3615 -2.186 -5.42 -2.9965 -3.7805 -3.277 -3.7515 -2.5195 -1.4985 -3.995 -5.465 -1.756 -4.99 -2.5045 -1.4985 -5.3675 -5.252 -4.455 0 
-3.5005 -7.0885 -9.298 -7.135501 -6.184 -7.4785 -6.522 -3.1695 -4.712 -7.948501 -6.6505 -6.8825 -6.1635 -3.1915 -6.5115 -9.442501 -7.114501 -4.455 
-9.0655 -11.2147 -13.5976 -8.444501 -8.802 -10.3475 -7.146 -6.2025 -8.309 -9.219001 -12.4564 -8.1745 -6.421 -8.3325 -9.587501 -9.469001 -7.114501 
-13.2635 -15.5143 -14.9066 -10.2695 -12.0982 -10.9715 -10.3675 -9.724501 -9.390501 -15.0989 -13.7484 -8.425 -12.3156 -11.7263 -9.596001 -9.469001 
-17.5631 -16.8233 -16.7316 -14.4495 -12.7222 -14.193 -13.8895 -10.893 -15.2716 -16.3909 -13.9989 -14.4792 -15.7094 -11.7348 -9.596001 
-3.1015 -2.3615 -2.186 -4.99 -1.934 -2.664 -5.0475 -4.624 -2.3335 -2.186 -2.9965 -3.7805 -3.277 -3.7515 -1.756 -1.934 -5.3675 -5.252 -4.455 0 
-5.3825 -3.5005 -5.502 -5.477 -4.0475 -7.503 -7.387 -6.558 -3.7085 -5.8025 -7.135501 -6.184 -7.4785 -5.177 -4.0205 -7.2775 -9.442501 -7.114501 -4.455 
-5.954 -8.2395 -5.947001 -7.1105 -8.327001 -8.965 -9.683001 -7.4525 -7.4205 -9.6815 -8.444501 -8.802 -9.022 -6.965 -9.844 -11.8653 -9.469001 -7.114501 
-10.9772 -8.792001 -7.5335 -12.2602 -9.874001 -10.396 -10.2945 -11.5073 -11.5511 -9.894 -10.2695 -9.8065 -11.233 -13.2761 -14.6204 -11.8918 -9.469001 
-11.5297 -10.348 -12.8738 -13.8072 -11.3044 -11.0075 -14.3493 -15.6379 -11.7636 -12.1186 -12.1578 -12.6687 -17.5441 -18.0525 -14.6469 -11.8918 
-3.1015 -2.3615 -4.706 -2.9965 -3.7805 -3.277 -3.7515 -5.0475 -4.624 -1.756 -1.934 -1.4985 -5.3675 -5.252 -4.455 0 
-5.3825 -7.276 -8.111 -7.135501 -6.184 -7.4785 -8.497 -7.387 -6.004 -4.0205 -2.6125 -6.5115 -9.442501 -7.114501 -4.455 
-10.543 -11.4024 -12.8512 -8.444501 -8.802 -12.653 -8.5165 -8.429001 -7.8625 -4.6845 -7.565001 -9.587501 -9.469001 -7.114501 
-14.6694 -16.1426 -14.1602 -10.2695 -14.4037 -12.6725 -11.5693 -10.31 -8.4425 -10.13 -10.172 -9.596001 -9.469001 
-19.4096 -17.4516 -15.9852 -16.755 -14.4232 -15.7253 -13.4503 -10.5135 -14.0714 -12.737 -10.1925 -9.596001 
-5.0475 -4.624 -3.074 -1.934 -2.9965 -3.7805 -3.277 -2.264 -1.4985 -5.3675 -5.252 -4.455 
-7.387 -7.7565 -4.93 -5.5765 -7.135501 -6.184 -5.494 -2.9195 -6.5115 -9.442501 -7.114501 
-10.513 -9.373 -8.347 -9.935 -8.444501 -8.8615 -6.034 -8.1715 -9.587501 -9.469001 
-12.1295 -13.031 -13.2951 -11.7202 -11.5432 -9.4835 -11.726 -11.3893 -9.596001 
-15.7875 -17.9791 -15.0803 -14.8189 -12.1652 -15.4197 -14.9438 -11.3978 
