-4.759 
n/a 
n/a 
n/a 
n/a 
-4.759 
n/a 
n/a 
n/a 
n/a 
-4.759 
n/a 
n/a 
n/a 
n/a 
-4.759 
n/a 
n/a 
n/a 
n/a 
-5.91 -5.601 -2.356 -3.3715 -4.828 -3.614 -1.756 -5.4945 -3.8735 -3.5725 -4.7155 -5.707 -4.453 -1.934 -1.4985 -3.6445 -1.7565 -4.9315 -3.638 0 -1.756 -2.4265 -2.186 -2.6165 -4.626 -1.7695 -3.3725 -4.3415 -8.857 -4.92 -1.756 -3.716 -4.67 -2.264 -4.0225 -1.7565 -4.3415 -3.519 0 
-12.3232 -5.9675 -5.039001 -8.7095 -7.808001 -4.8565 -7.1765 -10.7665 -7.6105 -6.691501 -9.695001 -8.291 -5.9825 -2.6125 -4.4795 -4.775001 -6.2405 -5.944 -3.638 -1.756 -3.949 -3.292 -3.5105 -6.059 -4.685501 -4.7155 -7.715501 -9.329 -7.671 -6.3465 -5.267 -7.311 -5.5125 -6.448 -5.438 -5.3895 -5.440001 -3.519 
-12.6897 -8.113501 -10.4345 -11.9791 -8.915 -10.757 -12.7701 -14.5035 -11.0643 -12.1868 -12.3176 -9.932501 -6.53 -4.8345 -5.062 -8.5 -7.0975 -5.944 -4.84 -3.949 -4.7355 -4.443 -6.8715 -6.0945 -7.2605 -8.401 -9.6435 -7.278 -7.84 -10.2645 -9.454 -7.4915 -8.842 -7.752 -7.853 -6.417 -5.440001 
-14.8357 -13.9152 -13.7041 -13.0861 -14.9889 -16.3506 -16.5071 -17.9573 -16.5596 -14.8094 -13.9591 -10.7065 -9.264 -5.2075 -8.555501 -8.941501 -7.0975 -7.899501 -7.399 -4.7355 -5.86 -8.3315 -6.929 -8.6595 -11.0606 -9.887501 -9.93 -8.031501 -11.9751 -14.7259 -9.6105 -10.5865 -10.115 -10.243 -9.591001 -6.417 
-20.6374 -17.1848 -14.8111 -19.16 -20.5825 -20.0876 -19.9609 -23.4526 -19.1822 -16.4509 -14.7331 -13.4405 -9.398001 -8.657001 -8.9715 -8.941501 -8.2475 -10.2035 -8.161 -5.86 -9.6835 -8.354 -9.3645 -12.7024 -12.5316 -9.906501 -10.7985 -12.2018 -16.4387 -14.8824 -12.7535 -11.8595 -10.6945 -12.1222 -9.591001 
-4.2855 0 -3.17 -1.7565 -3.2225 0 -4.257 -3.764 -3.074 -4.763 -2.872 -3.5725 -3.956 -1.756 -4.102 -2.3335 -2.5685 0 
-4.2855 -3.17 -4.179 -5.6215 -3.2225 -4.257 -7.5775 -7.035501 -8.222 -6.887 -5.087501 -6.717 -6.128 -5.1165 -6.790501 -4.5535 -2.5685 
-6.1575 -4.179 -9.144 -5.6215 -7.1025 -7.5775 -11.1962 -12.6401 -9.559501 -8.9555 -8.411501 -8.6555 -9.271501 -7.977 -9.160501 -4.5535 
-7.5005 -9.144 -9.144 -10.3251 -11.8704 -11.1962 -16.8008 -13.9776 -12.0852 -12.3181 -10.6744 -12.0844 -13.1254 -10.6404 -9.160501 
-12.9729 -9.144 -14.064 -15.093 -15.4891 -16.8008 -18.1383 -16.5033 -15.4478 -14.581 -14.1033 -15.9383 -15.7888 -10.6404 
-3.4765 -3.3715 -3.8035 -1.756 -4.1085 -1.7565 -4.0415 -2.7455 -4.116 -2.674 -3.074 -3.013 -5.651501 -3.3725 -1.7695 -1.4985 -3.8675 0 
-6.8265 -6.0565 -4.9805 -5.735 -7.627 -5.4955 -7.763 -7.816 -7.553 -4.981 -5.723001 -8.529501 -8.560501 -6.186501 -2.7955 -4.976 -3.8675 
-10.5325 -7.348001 -8.906 -9.975 -11.9274 -10.361 -13.2231 -11.8566 -10.228 -9.147 -11.1395 -12.394 -12.1105 -7.1005 -6.1105 -4.976 
-11.824 -11.6633 -13.2688 -14.3442 -16.7929 -15.8211 -17.2637 -14.5316 -14.6338 -14.5532 -15.5609 -15.3348 -13.3359 -10.6095 -6.1105 
-16.1393 -16.0261 -17.638 -19.2097 -22.253 -19.8617 -19.9387 -18.9374 -20.04 -19.4211 -18.2713 -16.4728 -16.8449 -10.6095 
-2.872 -1.934 -5.2655 -1.7565 -3.849 -4.934 -1.756 -4.5475 -3.4635 -1.7695 -4.257 -3.8585 0 -1.934 -3.333 -1.7695 -4.3455 -1.4985 -4.628 -1.756 -4.1235 -1.934 -4.9315 -3.519 -3.324 -2.4265 -2.8645 -3.1125 -5.529 -1.7695 -3.3725 -1.4985 -4.92 -2.0935 -4.9315 -3.638 -3.326 -1.756 -4.3415 -6.242 -2.229 -4.4755 -4.957 0 
-4.659 -5.303 -5.3035 -5.0295 -9.938001 -6.105 -6.4475 -7.552 -4.2045 -6.656001 -8.1665 -3.8585 -1.934 -3.9835 -4.022 -4.706 -5.183 -5.664001 -6.6435 -5.685 -6.274 -6.855 -7.119 -6.9865 -5.7725 -4.1435 -3.5345 -7.9835 -5.6435 -4.7155 -5.4265 -5.5575 -6.9795 -6.922 -5.944 -6.0775 -4.4115 -5.852 -8.135 -8.965 -6.890501 -9.794001 -4.957 
-6.949501 -5.307 -8.047501 -11.1247 -11.1756 -11.6101 -10.2805 -8.9355 -8.874001 -9.772 -8.1665 -5.445 -3.9835 -4.0425 -5.984 -5.4375 -10.1635 -7.637 -11.0855 -7.483 -11.6636 -9.216001 -9.7775 -9.308001 -7.268001 -4.755 -8.437 -8.132501 -7.677001 -5.947001 -7.638 -7.632 -12.528 -7.9145 -7.576001 -6.744 -8.227 -9.491 -11.1884 -13.9053 -12.5 -9.794001 
-6.954 -8.0485 -14.4017 -12.3623 -16.6807 -15.4431 -10.7665 -13.7712 -12.124 -9.772 -9.7915 -6.75 -4.0425 -5.9875 -6.662 -10.3885 -12.1147 -12.3294 -12.8835 -13.0828 -14.0246 -12.0495 -12.1972 -10.734 -7.889 -10.088 -8.5855 -9.9975 -8.264001 -7.882 -9.571001 -13.5017 -13.5205 -10.064 -9.4975 -9.4045 -12.725 -12.6904 -16.1287 -19.5148 -12.5 
-9.655001 -14.4029 -15.6393 -17.8674 -20.5137 -15.9291 -15.6022 -17.0212 -12.124 -11.408 -11.1317 -6.7875 -5.9875 -6.665 -11.8092 -12.4223 -16.8071 -14.1274 -18.4833 -15.4438 -16.8581 -14.4692 -13.6232 -11.355 -13.4794 -10.2045 -10.403 -10.4895 -9.488501 -9.831 -15.4989 -14.4942 -15.67 -10.4905 -12.0848 -14.2853 -15.9244 -17.6307 -21.7382 -19.5148 
