-4.759 
n/a 
n/a 
n/a 
n/a 
-4.759 
n/a 
n/a 
n/a 
n/a 
-4.759 
n/a 
n/a 
n/a 
n/a 
-4.759 
n/a 
n/a 
n/a 
n/a 
-1.934 -4.569 -3.158 -3.251 -3.9035 -8.0585 -8.623501 -4.042 -1.7695 -3.619 -4.763 -6.436 -3.908 
-5.777 -7.9615 -6.6355 -7.941501 -12.8836 -17.0814 -13.0735 -6.048 -4.5275 -10.3475 -12.1732 -11.0614 
-10.1945 -12.107 -11.8534 -17.4356 -21.9065 -21.5314 -15.0795 -8.628 -11.7204 -17.7577 -16.7986 
-14.34 -17.3249 -21.3475 -26.4585 -26.3565 -23.5374 -17.6595 -16.1829 -19.1306 -22.3831 
-19.5579 -26.819 -30.3704 -30.9085 -28.3625 -26.1174 -25.2144 -23.5931 -23.756 
-7.765 -8.623501 -3.307 -3.8565 -4.159 -3.8685 
-16.9537 -12.3385 -7.058001 -9.362 -7.553 
-20.6687 -16.0895 -13.4525 -12.9606 
-24.4197 -22.484 -17.0511 
-30.8142 -26.0826 
-3.5455 -4.722 -4.74 -2.229 -5.362 -1.934 -1.4985 -3.882 -3.957 -1.7565 -4.569 -2.229 0 -1.4985 -3.59 -5.4145 -3.8565 -6.179 -1.756 -4.308 -3.8035 -4.494 -1.7695 -4.4395 -5.1035 
-8.66 -5.9685 -6.0555 -6.3765 -6.478001 -2.6125 -5.587 -7.4575 -4.676 -6.473001 -5.8085 -2.229 -1.4985 -4.268 -8.306 -9.322001 -7.268001 -7.157001 -6.0325 -6.085 -6.8715 -4.520501 -6.08 -9.207001 
-8.915 -7.1835 -9.910501 -7.779 -7.281001 -6.258 -7.575 -7.5625 -8.995001 -7.854501 -5.8085 -4.123 -4.268 -8.381001 -12.5571 -10.2545 -7.935 -10.6095 -8.08 -9.1415 -6.8835 -8.6455 -11.3255 
-8.953501 -10.403 -11.4024 -8.383 -10.702 -7.868001 -7.6115 -12.4299 -10.119 -7.854501 -7.054501 -7.4715 -8.381001 -12.6851 -13.4896 -11.6403 -11.6375 -12.657 -11.3089 -9.151 -11.1721 -14.1496 
-12.7638 -11.8949 -12.0064 -12.0324 -12.312 -7.898001 -12.6337 -13.5539 -10.119 -9.6485 -9.875501 -12.2139 -12.6851 -13.6176 -14.8754 -15.3428 -13.685 -15.8859 -11.3184 -13.514 -16.6762 
-1.934 -4.569 0 -2.9805 -2.7415 -4.4155 -2.3345 -4.7125 -7.214 -1.934 -3.091 -8.773001 -6.972 -2.5045 -2.871 -1.7565 0 -1.4985 -3.2825 -2.0935 -5.186 0 -3.914 -1.7565 -3.091 -3.8315 -6.022 -4.9175 0 -3.6705 -2.664 -5.7195 -4.447 0 -1.4985 -3.493 -2.186 -5.0535 0 -2.882 -2.489 -3.091 -5.1635 -5.2165 -3.6675 0 
-5.777 -4.569 -2.9805 -4.004 -6.0585 -6.1375 -6.2415 -8.812 -9.053 -4.2105 -9.762001 -8.988001 -10.123 -4.7085 -3.5385 -1.7565 -1.4985 -3.712 -5.1995 -7.781001 -5.186 -3.914 -4.767 -4.0655 -5.9555 -8.703 -10.0445 -4.9175 -3.6705 -6.0935 -7.254 -10.7175 -4.447 -1.4985 -4.207 -5.2885 -6.452001 -5.0535 -2.882 -3.631 -5.745501 -6.873 -7.608001 -9.31 -3.6675 
-5.777 -6.923 -4.004 -7.895 -7.2575 -9.799001 -9.572001 -9.47 -9.787001 -9.799001 -9.77 -10.598 -10.764 -4.9525 -3.5385 -2.4195 -3.712 -5.89 -10.4265 -7.781001 -9.1955 -4.767 -6.781001 -6.7865 -10.5325 -13.2821 -10.0445 -7.8325 -6.0935 -10.1675 -12.9026 -10.7175 -6.39 -4.207 -5.932 -8.546 -6.452001 -8.650001 -3.631 -7.137001 -9.531 -9.123501 -9.935 -9.31 
-7.134501 -7.609 -7.895 -9.147501 -10.5745 -10.1135 -9.788 -9.976501 -9.97 -9.804001 -10.708 -10.777 -10.7835 -4.9525 -3.7675 -4.687 -5.89 -10.7595 -10.4265 -11.9707 -9.409 -6.781001 -9.751501 -10.733 -15.1116 -13.2821 -13.2953 -10.335 -10.1675 -15.8161 -12.9026 -12.6605 -9.943001 -5.932 -8.6805 -8.546 -10.0285 -8.985001 -7.137001 -10.485 -10.376 -10.5535 -9.935 
-7.9015 -12.0236 -9.147501 -12.5991 -10.7205 -10.232 -10.3265 -10.121 -9.974501 -10.7085 -10.79 -10.797 -10.7835 -5.1005 -4.982 -7.216001 -10.7595 -10.7595 -14.6162 -12.1842 -11.4264 -9.751501 -13.7408 -15.3121 -15.1116 -16.5329 -15.7978 -14.409 -15.8161 -15.8161 -14.8456 -16.2135 -10.722 -8.6805 -8.6805 -12.3409 -10.432 -12.8852 -10.485 -10.7745 -11.806 -10.5535 
