-4.759 
n/a 
n/a 
n/a 
n/a 
-4.759 
n/a 
n/a 
n/a 
n/a 
-4.759 
n/a 
n/a 
n/a 
n/a 
-4.759 
n/a 
n/a 
n/a 
n/a 
-3.717 0 -5.0715 -1.7565 -6.102 
-3.717 -5.0715 -6.306 -7.293001 
-9.125501 -6.306 -10.0965 
-9.689501 -10.0965 
-13.9214 
-3.7855 0 -5.0715 -1.7565 -5.1875 
-3.7855 -5.0715 -6.306 -6.68 
-9.9455 -6.306 -9.715501 
-11.18 -9.715501 
-14.5895 
-3.473 0 -6.0695 -5.0715 
-3.473 -6.0695 -12.0224 
-9.4835 -12.0224 
-16.2878 
n/a 
-3.717 0 -5.1875 -5.0715 
-3.717 -5.1875 -7.3605 
-8.769 -7.3605 
-10.61 
n/a 
