-4.759 
n/a 
n/a 
n/a 
n/a 
-4.759 
n/a 
n/a 
n/a 
n/a 
-4.759 
n/a 
n/a 
n/a 
n/a 
-4.759 
n/a 
n/a 
n/a 
n/a 
-10.5165 -2.8645 -3.3715 -3.723 -4.536 
-13.381 -5.473001 -7.022 -9.320001 
-15.9895 -8.8835 -13.1082 
-19.4 -15.1741 
-25.6906 
-3.845 -1.7565 -3.6045 -4.536 -2.4945 -1.934 -5.1845 -6.262 0 
-4.13 -5.152 -8.6825 -6.476 -4.2645 -6.564 -8.6805 -6.262 
-7.5665 -10.0885 -10.3545 -8.1405 -9.260501 -10.6722 -8.6805 
-12.8366 -11.7773 -12.019 -13.5115 -13.3909 -10.6722 
-14.5254 -13.4418 -17.39 -17.6419 -13.3909 
-5.1845 -6.844 -2.8645 -4.187 -1.7565 -4.536 0 
-6.9655 -9.182501 -8.069 -4.2795 -6.055 -4.536 
-9.2605 -14.4014 -8.377501 -8.3015 -6.055 
-14.4778 -14.7099 -12.5747 -8.3015 
-14.7863 -18.9071 -12.5747 
-5.1845 -6.844 -2.8645 -4.246 -4.4965 -6.074 0 
-6.9655 -9.182501 -7.422 -5.892 -11.9263 -6.074 
-9.2605 -13.7544 -8.566501 -14.1098 -11.9263 
-13.8308 -14.8989 -17.0707 -14.1098 
-14.9753 -23.4031 -17.0707 
