-4.759 
n/a 
n/a 
n/a 
n/a 
-4.759 
n/a 
n/a 
n/a 
n/a 
-4.759 
n/a 
n/a 
n/a 
n/a 
-4.759 
n/a 
n/a 
n/a 
n/a 
-3.3715 -5.709 -1.934 -1.4985 -3.5455 -3.9535 -4.5045 -3.383 -4.0205 
-8.2965 -7.4375 -2.6125 -4.554 -8.701 -7.488 -6.784 -5.582 
-9.621 -7.925 -5.298 -9.128 -12.4419 -9.0485 -9.285001 
-10.0835 -9.111 -9.7635 -12.9561 -14.0024 -11.5887 
-11.2695 -13.9373 -13.6346 -14.5166 -16.5426 
-2.688 -4.6555 -2.4945 -6.8255 -1.934 -3.5455 
-7.7275 -6.093501 -9.408501 -9.408001 -4.8495 
-9.199501 -13.7205 -12.111 -12.4531 
-16.9775 -16.423 -15.1561 
-19.68 -19.4681 
-1.934 -3.502 -3.7575 -3.59 -2.688 -4.6555 -2.4945 -4.0205 -1.7695 -4.3245 0 
-4.8155 -5.712 -8.352501 -6.553 -7.7275 -6.093501 -6.024 -6.476501 -4.714 -4.3245 
-8.064 -9.5105 -11.5703 -12.4793 -9.199501 -9.543501 -8.577001 -9.424001 -4.714 
-12.0841 -13.5239 -17.4966 -13.9513 -12.8005 -12.2603 -11.5797 -9.424001 
-16.0975 -19.4502 -18.9686 -17.5523 -15.5173 -15.263 -11.5797 
-2.5195 -3.5455 -3.5435 -4.425 -3.383 -4.0205 
-5.71 -8.39 -7.098001 -6.462501 -5.582 
-11.1891 -12.4211 -10.0715 -8.758 
-15.2202 -15.3946 -12.367 
-18.1937 -17.6901 
