-4.759 
n/a 
n/a 
n/a 
n/a 
-4.759 
n/a 
n/a 
n/a 
n/a 
-4.759 
n/a 
n/a 
n/a 
n/a 
-4.759 
n/a 
n/a 
n/a 
n/a 
-1.934 -4.748 0 -4.2125 -3.959 -4.3465 -4.0695 -1.7695 -3.619 -1.4985 -3.982 -3.959 -2.5195 -1.4985 -4.2285 -1.7565 -1.4985 -4.2125 -3.59 0 
-6.061 -4.748 -4.2125 -5.9505 -8.123 -7.597001 -5.802 -4.5275 -4.707 -4.566 -5.6075 -6.317 -3.1695 -5.116 -5.173501 -2.4195 -5.357 -6.641 -3.59 
-6.061 -9.164001 -5.9505 -10.031 -11.3439 -7.630001 -9.0975 -5.3675 -9.095501 -7.0455 -7.918 -7.061 -6.919 -5.219 -5.7895 -5.9915 -7.315001 -6.641 
-10.411 -11.4092 -10.031 -13.2519 -11.3769 -11.5147 -9.8325 -9.392 -11.6298 -8.6675 -8.396501 -11.3399 -6.998 -5.821 -9.465 -8.649501 -7.315001 
-12.9282 -15.4897 -13.2519 -13.2849 -15.2616 -12.2497 -14.002 -11.9963 -13.2518 -8.723001 -13.0876 -11.4189 -7.462501 -9.475 -12.252 -8.649501 
-1.934 -4.748 -1.4985 -4.317 -1.756 -4.2125 -3.959 -2.9705 -3.152 -3.325 -1.4985 -4.1 -1.7565 -3.982 -3.959 -3.9535 -5.9125 -2.0935 -4.248 0 
-6.061 -6.5065 -5.569 -5.9925 -5.907 -5.9505 -6.136 -5.007 -6.104 -3.898 -5.0695 -5.164001 -5.407 -5.6075 -7.868 -8.5325 -7.8295 -5.816 -4.248 
-7.118501 -10.6215 -7.0375 -7.208001 -7.503 -8.075 -7.727 -7.742001 -6.6895 -6.657 -5.5715 -9.384001 -7.087 -9.0375 -12.7634 -10.127 -9.822001 -5.816 
-11.4447 -12.09 -8.373001 -8.0535 -9.538 -9.5955 -9.693001 -8.1525 -8.904 -6.859 -9.5975 -10.46 -10.76 -14.0103 -14.3579 -12.2645 -9.822001 
-12.9132 -13.4255 -9.308001 -10.028 -11.0075 -11.5957 -10.1095 -10.0965 -8.922001 -10.19 -10.4865 -14.133 -15.7328 -15.6048 -16.4954 -12.2645 
-1.934 -4.748 0 -3.325 -1.4985 -3.4985 -1.7565 -3.875 -2.4265 -4.174 -4.0695 -2.0935 -1.4985 -4.248 -1.7565 -4.317 -1.756 -4.2125 -3.959 0 
-6.061 -4.748 -3.325 -3.898 -4.798 -4.622 -5.1745 -6.2665 -5.370501 -7.2005 -5.902 -2.9725 -5.2845 -4.8235 -5.877 -5.9925 -5.907 -5.9505 -3.959 
-6.061 -8.2535 -3.898 -5.8625 -5.425 -8.507 -7.2955 -9.0795 -8.6485 -9.882501 -6.657 -6.829 -5.6755 -10.523 -7.071 -7.208001 -7.503 -5.9505 
-8.7945 -8.4505 -5.8625 -5.8915 -9.7545 -10.6215 -10.2805 -12.3813 -11.2535 -10.4885 -10.085 -7.095 -11.1036 -12.1306 -7.9265 -8.0535 -7.503 
-8.991501 -10.8806 -5.8915 -10.5975 -11.945 -13.6065 -13.5823 -14.9863 -11.8595 -14.2577 -10.1605 -12.6473 -12.7112 -12.9861 -9.0775 -8.0535 
-1.934 -5.369 -3.982 -3.959 -4.465 -4.2125 -3.959 -4.3465 -3.915 -2.0935 -4.248 
-7.2705 -9.286001 -5.6075 -8.6715 -9.509001 -5.9505 -8.123 -8.806001 -6.219 -5.816 
-10.6335 -11.0677 -9.959001 -14.1339 -11.3366 -10.031 -12.5529 -11.5336 -10.5853 
-13.1956 -15.4192 -15.589 -15.9615 -15.4171 -14.4609 -15.2805 -15.8999 
-17.5471 -21.0492 -17.4166 -20.042 -19.847 -17.1885 -19.6468 
