-4.759 
n/a 
n/a 
n/a 
n/a 
-4.759 
n/a 
n/a 
n/a 
n/a 
-4.759 
n/a 
n/a 
n/a 
n/a 
-4.759 
n/a 
n/a 
n/a 
n/a 
-5.827 -2.4945 -3.2955 -1.7695 -4.306 -1.934 -1.7695 -1.4985 -6.375 
-7.7145 -4.6305 -3.9425 -6.734001 -5.9155 -4.0395 -2.7955 -7.481 
-9.281 -5.1225 -10.0575 -7.926501 -9.541 -5.3685 -8.594 
-9.8815 -11.4735 -11.9716 -11.7222 -10.3425 -11.5146 
-16.3155 -13.3876 -15.7673 -12.5237 -16.4886 
-2.4265 -2.186 -1.4985 -3.331 -2.229 -4.2325 -1.7695 -3.6845 -4.904 -1.7695 -2.9325 -1.4985 -3.941 -4.811 -2.5045 -4.025 -2.872 -1.8085 -3.593 -1.7565 -4.0145 0 
-3.292 -3.339 -4.6405 -5.893 -5.7765 -5.228 -4.2695 -8.618 -6.2965 -4.755 -4.365 -5.133 -9.422501 -6.5865 -6.469 -5.2105 -4.716001 -4.638 -4.507 -5.774001 -4.0145 
-4.5995 -6.8515 -6.783 -9.455 -6.0285 -7.546 -9.0255 -8.691001 -8.750501 -5.928 -8.353001 -10.2085 -10.3975 -9.5625 -7.5035 -6.0185 -7.3465 -4.696 -7.2255 -5.774001 
-8.098001 -8.737 -10.0605 -9.4895 -8.591001 -10.6465 -9.0825 -9.857 -9.935501 -9.9635 -10.442 -10.434 -10.456 -10.1015 -7.9335 -8.367001 -7.3625 -7.443 -7.2255 
-9.7585 -10.2035 -10.0835 -10.6495 -10.647 -10.6685 -10.249 -10.4 -10.447 -10.4465 -10.4555 -10.463 -10.4695 -10.2565 -10.0035 -8.3715 -10.06 -7.443 
-2.4265 -2.7415 -3.628 -2.645 -3.1575 -1.8085 -3.299 -3.6045 0 -5.368 -3.333 -4.502 -4.091 0 -4.7985 -2.5045 -1.8085 -4.8055 -6.857 -4.091 0 -3.716 -2.356 -8.2845 -4.368 -1.756 -4.8725 
-3.681 -5.9445 -5.0785 -3.72 -4.4255 -4.4725 -4.5695 -3.6045 -5.368 -5.893 -8.851501 -8.002501 -4.091 -4.7985 -7.0165 -3.3625 -5.9525 -10.821 -8.5725 -4.091 -3.716 -5.252 -10.6635 -10.67 -5.701 -7.0105 
-7.4145 -7.118 -5.7065 -4.8385 -6.95 -5.618 -4.5695 -8.709001 -5.893 -9.978 -12.4314 -8.002501 -7.262 -7.0165 -7.7245 -7.5865 -12.6156 -12.5365 -8.5725 -8.04 -5.252 -12.539 -12.673 -12.686 -10.382 
-7.969501 -7.1505 -6.191 -7.6565 -8.639501 -5.618 -8.998 -9.269 -9.978 -13.5579 -12.4314 -11.5233 -10.264 -7.7245 -12.4079 -14.459 -14.3311 -12.5365 -12.6927 -8.4275 -12.9378 -15.8717 -15.0049 -17.4556 
-7.992001 -7.331 -8.955501 -9.3365 -8.639501 -9.9975 -9.8765 -13.4104 -13.5579 -13.5579 -15.9522 -14.5253 -10.758 -12.4079 -19.2804 -16.1745 -14.3311 -16.6567 -13.0802 -15.2193 -15.8717 -17.8082 -19.7745 
-3.331 -3.4405 -1.7695 -3.585 -1.7565 -5.054 -1.4985 -12.16972 -4.49 -2.5045 -3.264 -1.934 -3.941 
-6.4945 -6.080501 -5.225 -4.6385 -6.280001 -6.0575 -14.76202 -16.65972 -6.1125 -6.155 -5.337501 -5.245 
-9.23 -9.519001 -8.168 -7.059 -7.0955 -19.82302 -19.25202 -18.28222 -9.458501 -8.125 -8.419001 
-12.8313 -12.5738 -10.7847 -7.97 -20.97942 -24.31302 -20.87452 -21.62822 -10.648 -11.7889 
-15.8861 -15.1905 -11.6957 -22.01052 -25.46942 -25.93552 -24.22052 -22.81772 -14.3119 
