-4.759 
n/a 
n/a 
n/a 
n/a 
-4.759 
n/a 
n/a 
n/a 
n/a 
-4.759 
n/a 
n/a 
n/a 
n/a 
-4.759 
n/a 
n/a 
n/a 
n/a 
-2.3335 -4.963 -3.013 -5.651501 -3.0465 -4.1975 0 
-7.547 -8.2425 -8.529501 -6.711 -8.619501 -4.1975 
-11.0401 -13.7826 -11.0715 -13.999 -8.619501 
-16.5802 -15.8176 -15.8161 -14.1896 
-18.6152 -21.894 -15.8679 
-4.567 -4.1975 -2.3335 -4.963 
-7.120501 -6.512 -7.547 
-9.84 -12.4125 
-15.8845 
n/a 
-2.3335 -4.8135 -3.4405 -5.651501 -4.368 -4.1975 
-6.662001 -7.864501 -9.1385 -8.585001 -9.079 
-9.084001 -12.571 -12.5445 -15.0929 
-13.8245 -17.9799 -18.5247 
-19.2334 -23.3857 
-1.4985 -4.519 -3.5745 -2.6165 -3.3165 -4.1975 
-5.660501 -8.3695 -4.114 -5.4065 -8.057001 
-10.5855 -8.9055 -6.204 -9.1525 
-11.1215 -10.6475 -10.159 
-12.8635 -14.6025 
