-4.759 
n/a 
n/a 
n/a 
n/a 
-4.759 
n/a 
n/a 
n/a 
n/a 
-4.759 
n/a 
n/a 
n/a 
n/a 
-4.759 
n/a 
n/a 
n/a 
n/a 
-3.284 -3.6705 -3.4795 -3.922 -2.264 -4.362 -1.7695 -3.8605 
-7.0535 -5.4285 -8.063001 -6.3865 -7.276 -6.7645 -5.517 
-8.936001 -10.4855 -10.7307 -11.9159 -9.785 -8.0245 
-14.3738 -13.1532 -16.2601 -14.4249 -11.045 
-17.0415 -18.6826 -18.7691 -15.6849 
-1.4985 -3.6705 -3.4795 -1.7565 -3.284 -4.157 -2.5195 -4.362 -1.7695 -3.8605 
-5.144 -5.4285 -4.599 -5.0585 -7.9165 -5.715 -6.857 -6.7645 -5.517 
-8.019501 -6.416 -7.098 -9.417 -8.771 -8.903501 -7.646 -8.0245 
-8.936501 -10.703 -12.1111 -10.6355 -12.0019 -9.4505 -8.899 
-13.5777 -15.7161 -13.3296 -13.8664 -12.5489 -10.6755 
-3.6705 -4.0225 -1.7565 -1.4985 -3.284 -2.186 -4.157 -2.5195 -4.362 -1.7695 -3.8605 0 
-7.5795 -5.489 -2.4195 -4.4545 -5.358 -5.8055 -5.715 -6.857 -6.7645 -5.517 -3.8605 
-8.9965 -6.299 -5.278 -6.0085 -9.4645 -7.2285 -8.903501 -7.646 -8.0245 -5.517 
-9.337001 -9.0895 -7.039501 -10.259 -11.1289 -9.901001 -9.4505 -8.899 -8.0245 
-12.3575 -11.704 -11.4312 -11.9234 -13.8014 -10.613 -10.6755 -8.899 
-3.284 -3.6705 -3.4795 -2.8645 -3.1125 -4.157 -2.5195 -4.362 -1.7695 -3.8605 
-7.0535 -5.4285 -6.693 -3.5345 -6.298 -5.715 -6.857 -6.7645 -5.517 
-8.936001 -8.9975 -7.28 -6.537 -7.3145 -8.903501 -7.646 -8.0245 
-12.8858 -9.654501 -10.1345 -7.414 -10.213 -9.4505 -8.899 
-13.5428 -12.5898 -10.7095 -10.275 -10.668 -10.6755 
