-4.759 
n/a 
n/a 
n/a 
n/a 
-4.759 
n/a 
n/a 
n/a 
n/a 
-4.759 
n/a 
n/a 
n/a 
n/a 
-4.759 
n/a 
n/a 
n/a 
n/a 
-3.5855 -5.1845 0 -3.5965 -5.1845 
-9.420501 -5.1845 -3.5965 -10.0855 
-9.420501 -9.448501 -10.0855 
-13.8001 -16.1527 
-20.5043 
-3.5855 -5.1845 0 -4.481 -5.1845 
-9.420501 -5.1845 -4.481 -10.3475 
-9.420501 -9.375 -10.3475 
-13.7266 -16.0781 
-20.4297 
-4.2665 -5.1845 0 -3.5965 -5.1845 
-9.8675 -5.1845 -3.5965 -10.0855 
-9.8675 -9.448501 -10.0855 
-14.1315 -16.1527 
-20.8357 
-5.1845 -3.5855 0 -4.481 -3.5855 
-9.805 -3.5855 -4.481 -6.096001 
-9.805 -5.63 -6.096001 
-11.9905 -7.738 
-14.0985 
