-4.759 
n/a 
n/a 
n/a 
n/a 
-4.759 
n/a 
n/a 
n/a 
n/a 
-4.759 
n/a 
n/a 
n/a 
n/a 
-4.759 
n/a 
n/a 
n/a 
n/a 
-4.98 -3.7375 -3.5025 -2.8645 -3.1495 -3.09 
-10.168 -7.763 -6.037 -6.52 -5.483 
-14.1935 -10.7335 -9.826 -9.4275 
-17.164 -14.5225 -12.9621 
-20.953 -17.6586 
-8.115 -4.2115 -1.756 -2.985 -3.09 
-12.182 -5.4895 -4.2025 -5.773 
-13.8307 -7.6025 -7.088 
-16.3877 -9.948 
-18.7332 
-3.135 -4.2115 -1.756 -3.09 
-6.742001 -5.4895 -4.362 
-8.1925 -7.604 
-10.259 
n/a 
-8.115 -4.2115 -1.756 -3.09 
-12.182 -5.4895 -4.362 
-13.8307 -7.604 
-15.8972 
n/a 
