-4.759 
n/a 
n/a 
n/a 
n/a 
-4.759 
n/a 
n/a 
n/a 
n/a 
-4.759 
n/a 
n/a 
n/a 
n/a 
-4.759 
n/a 
n/a 
n/a 
n/a 
-3.0835 -6.702 -8.316 -4.2605 -1.7565 -3.737 -1.7695 -3.8355 -3.06 -4.082 -1.7695 -4.3655 -3.42 0 
-10.5135 -15.5426 -12.9167 -5.676001 -5.1295 -6.3935 -5.3955 -7.7685 -6.7845 -5.78 -6.764501 -5.636 -3.42 
-19.3541 -20.1433 -14.3322 -9.113001 -8.536 -10.3815 -9.5205 -11.7934 -8.506001 -11.8502 -8.146001 -5.636 
-23.9548 -21.5588 -17.7692 -12.5815 -12.7402 -14.5065 -13.5704 -13.5149 -14.7544 -13.2317 -8.146001 
-25.3703 -24.9958 -21.2377 -16.7857 -16.8652 -18.5564 -15.2919 -19.7633 -16.1359 -13.2317 
-3.535 -4.392 -1.756 -3.535 -3.949 -3.42 -1.7695 -3.06 -4.082 -2.802 -1.7695 -3.2345 -3.75 -3.7575 -3.599 -1.756 -2.3615 -3.9785 -8.545 
-8.8395 -5.92 -5.903 -8.643001 -7.415501 -5.2875 -5.0385 -6.7845 -5.884501 -5.285 -3.713 -8.31 -5.4685 -6.74 -5.2355 -4.4615 -7.123 -13.9923 
-10.5917 -10.4675 -11.434 -12.2199 -9.742001 -9.4175 -7.999001 -7.5015 -6.969501 -7.4155 -8.685 -10.4505 -9.656501 -9.7155 -7.921 -9.1625 -17.461 
-15.1392 -15.9985 -15.0109 -14.5464 -13.9198 -12.414 -8.384501 -8.417001 -9.967001 -12.6649 -10.9237 -14.6385 -13.0404 -12.7794 -12.8428 -19.5819 
-20.6702 -19.5754 -17.3374 -18.7242 -16.9163 -12.7995 -9.875501 -11.7453 -15.3458 -14.9036 -15.1117 -18.0224 -16.1043 -17.7012 -23.2622 
-3.0835 -4.9845 -4.4515 -5.942 -4.07 -1.4985 -3.7075 -5.936 -1.934 -2.3615 -3.06 -4.082 -3.599 -1.756 -3.502 -3.599 -1.934 -2.3615 -3.9785 -5.936 
-8.534 -9.187 -9.2605 -8.377501 -5.3895 -4.6235 -9.930501 -7.4785 -3.539 -6.5835 -6.7845 -8.0755 -5.2355 -5.1085 -8.187 -5.805 -3.539 -7.123 -10.3415 
-12.9927 -14.241 -11.6832 -8.783501 -7.5885 -10.0995 -11.6034 -9.192 -7.9175 -9.57 -9.790001 -9.295 -9.814501 -10.0155 -10.806 -7.391 -8.032001 -13.8102 
-18.0467 -16.6637 -12.0892 -9.337501 -13.5095 -11.8608 -13.3169 -13.7717 -10.66 -12.6627 -10.7625 -13.9846 -14.9753 -12.6345 -12.392 -12.2642 -14.9578 
-20.4694 -17.0697 -12.6432 -15.5185 -15.2708 -13.5743 -17.8966 -16.5142 -13.7527 -13.6352 -15.4521 -19.1454 -17.5943 -14.2205 -17.2652 -19.19 
-4.0105 -4.6985 -5.25 -3.5185 -3.06 -3.4625 -2.5195 -5.936 -4.02 -3.599 -2.186 -7.6475 
-8.734 -10.054 -8.1805 -6.983 -7.195001 -5.227 -8.3365 -10.3105 -7.507 -5.8475 -10.1505 
-14.9091 -12.9845 -13.017 -12.534 -8.9975 -11.7974 -13.0204 -13.7975 -10.0345 -15.2668 
-17.8396 -17.821 -18.568 -14.3365 -15.6603 -16.4813 -16.5074 -16.325 -19.415 
-22.6761 -23.372 -20.3705 -20.9993 -20.3442 -19.9683 -19.0349 -25.7055 
