-4.759 
n/a 
n/a 
n/a 
n/a 
-4.759 
n/a 
n/a 
n/a 
n/a 
-4.759 
n/a 
n/a 
n/a 
n/a 
-4.759 
n/a 
n/a 
n/a 
n/a 
-3.74 0 -3.5645 -4.9105 -5.211 
-3.74 -3.5645 -6.169 -9.842501 
-7.611001 -6.169 -11.8116 
-10.6605 -11.8116 
-16.3031 
-3.355 0 -5.6325 -4.0415 -3.6385 
-3.355 -5.6325 -10.7665 -6.9195 
-10.259 -10.7665 -13.6445 
-15.393 -13.6445 
-18.271 
-3.391 0 -5.211 -3.013 -5.651501 -3.115 -4.319 
-3.391 -5.211 -8.059501 -8.529501 -7.001 -7.836501 
-8.3655 -8.059501 -12.9612 -11.384 -13.379 
-11.473 -12.9612 -14.8072 -14.6768 
-16.3747 -14.8072 -19.9153 
-3.74 0 -7.9095 -5.3715 
-3.74 -6.4465 -11.14 
-10.9114 -11.6448 
-16.1097 
n/a 
