-4.759 
n/a 
n/a 
n/a 
n/a 
-4.759 
n/a 
n/a 
n/a 
n/a 
-4.759 
n/a 
n/a 
n/a 
n/a 
-4.759 
n/a 
n/a 
n/a 
n/a 
-4.442 -2.186 -3.383 -3.699 -1.7695 -3.8665 -3.6445 0 
-6.6365 -4.438 -5.014 -4.585 -5.837 -7.893001 -3.6445 
-8.675501 -5.451 -5.7245 -9.257001 -9.361 -7.893001 
-9.681001 -5.941 -10.757 -12.918 -9.361 
-10.4285 -11.0883 -14.418 -12.918 
-4.442 0 -3.8665 -3.47 -3.8175 -3.89 0 -3.8245 -1.934 -1.4985 -3.873 -4.179 -2.186 -2.664 -3.699 -3.89 
-4.442 -3.8665 -4.8725 -7.443001 -7.315001 -3.89 -3.8245 -4.7245 -2.6125 -4.7405 -7.3255 -5.351 -3.8555 -4.654 -5.6305 
-7.852 -4.8725 -8.588 -11.5995 -7.315001 -8.0385 -4.7245 -5.4215 -5.722 -7.414001 -8.359 -6.947001 -5.2675 -7.0825 
-9.605 -8.588 -13.0659 -11.5995 -11.9343 -8.771 -5.4215 -7.78 -8.9095 -8.469501 -10.138 -8.295 -7.6705 
-13.5297 -13.0659 -13.0659 -16.2188 -12.6668 -9.323 -7.78 -11.6261 -10.086 -10.4505 -11.486 -10.503 

n/a 
n/a 
n/a 
n/a 
-4.442 -2.4945 -3.535 -3.89 -2.0935 -4.7505 -1.756 -3.594 -1.7565 -3.873 -4.25 -2.186 -3.535 -3.89 
-5.9795 -7.103 -6.2535 -5.5035 -7.059 -5.869 -5.3155 -4.857 -5.002 -8.3025 -7.236 -6.8505 -6.2535 
-11.1874 -10.523 -7.9205 -11.028 -7.903 -10.2573 -6.7685 -9.186 -9.163 -11.5845 -12.2233 -9.293 
-14.6074 -12.19 -13.9478 -11.872 -12.9771 -11.7103 -11.5591 -13.7912 -12.4926 -16.5718 -14.6658 
-16.2744 -18.2173 -14.7918 -16.9461 -14.4301 -16.5009 -16.1643 -17.1208 -17.4799 -19.0143 
