-4.759 
n/a 
n/a 
n/a 
n/a 
-4.759 
n/a 
n/a 
n/a 
n/a 
-4.759 
n/a 
n/a 
n/a 
n/a 
-4.759 
n/a 
n/a 
n/a 
n/a 
-8.248 0 -9.287001 -2.4945 -3.571 -3.699 -4.7995 0 
-8.248 -9.287001 -12.0749 -6.184 -5.9465 -7.953501 -4.7995 
-18.0648 -12.0749 -15.7644 -7.814 -11.0904 -7.953501 
-20.8527 -15.7644 -17.3944 -13.2549 -11.0904 
-24.5422 -17.3944 -22.8353 -13.2549 
-8.248 0 -9.287001 -2.4945 -1.4985 -3.6975 -4.7995 
-8.248 -9.287001 -12.0749 -3.9315 -5.259501 -8.6955 
-18.0648 -12.0749 -13.5119 -7.485001 -9.961 
-20.8527 -13.5119 -17.0654 -12.6557 
-22.2897 -17.0654 -22.2361 
-8.248 0 -9.628 -2.4945 -1.4985 -2.8965 -3.699 -4.7995 0 
-8.248 -9.628 -12.3853 -3.9315 -3.928 -5.7205 -7.953501 -4.7995 
-18.4058 -12.3853 -13.8223 -6.5375 -7.0295 -9.118501 -7.953501 
-21.1631 -13.8223 -16.4283 -8.733001 -10.322 -9.118501 
-22.6001 -16.4283 -18.6238 -12.2051 -10.322 
-1.4985 -2.8965 -3.699 -4.7995 -2.4945 -8.248 0 -9.287001 0 
-3.928 -5.7205 -7.953501 -6.781001 -12.1707 -8.248 -9.287001 -9.287001 
-7.0295 -9.118501 -9.035001 -16.8976 -12.1707 -18.0648 -9.287001 
-10.322 -9.596001 -19.667 -16.8976 -21.9875 -18.0648 
-10.9425 -20.5566 -19.667 -26.7144 -21.9875 
