-4.759 
n/a 
n/a 
n/a 
n/a 
-4.759 
n/a 
n/a 
n/a 
n/a 
-4.759 
n/a 
n/a 
n/a 
n/a 
-4.759 
n/a 
n/a 
n/a 
n/a 
-3.691 -2.186 -3.237 -4.53 -4.335 -3.59 -3.6415 -6.7305 
-5.832 -5.6155 -6.8915 -7.3145 -8.301001 -7.9615 -7.078 
-10.092 -9.606501 -10.7025 -11.7573 -13.0229 -11.7056 
-14.3466 -13.7527 -15.1453 -16.4792 -16.767 
-18.4928 -18.1955 -19.8672 -20.2233 
-3.691 -2.186 -1.8085 -3.4185 -4.1265 -1.7565 -1.4985 -4.834 -4.39 -1.756 -3.6415 -6.7305 0 
-5.832 -3.164 -4.1435 -7.6435 -5.757 -2.4195 -5.264 -7.9925 -5.675 -6.0405 -7.078 -6.7305 
-6.71 -5.1045 -8.420501 -8.432501 -7.001 -5.7865 -8.7185 -9.04 -9.846001 -8.7995 -7.078 
-8.047501 -9.472 -8.9235 -8.6385 -9.788 -9.2755 -9.741501 -13.4236 -10.0315 -8.7995 
-12.5002 -9.633 -9.0185 -10.61 -13.4048 -10.2285 -14.2147 -13.6091 -10.0315 
-3.691 0 -3.6415 -6.058 -3.59 0 
-3.691 -3.6415 -9.366 -8.626 -3.59 
-7.245501 -9.366 -12.0826 -8.626 
-13.6514 -12.0826 -12.0826 
-16.368 -12.0826 
-3.691 0 -4.5735 -3.959 -1.756 -2.8965 -3.1575 -3.6415 -6.7305 -3.4185 -3.959 0 
-3.691 -4.5735 -9.2115 -5.173 -3.751 -4.4055 -7.659501 -7.078 -9.820001 -5.9345 -3.959 
-9.5345 -9.2115 -10.3355 -7.095 -6.5695 -8.8525 -11.4206 -10.281 -10.325 -5.9345 
-14.1969 -10.3355 -12.2575 -9.9245 -11.6289 -12.7196 -14.6236 -10.9842 -10.325 
-15.3209 -12.2575 -15.087 -15.5051 -15.496 -15.9226 -15.3268 -10.9842 
