-4.759 
n/a 
n/a 
n/a 
n/a 
-4.759 
n/a 
n/a 
n/a 
n/a 
-4.759 
n/a 
n/a 
n/a 
n/a 
-4.759 
n/a 
n/a 
n/a 
n/a 
-1.934 -4.7475 0 -4.348 -2.8645 -4.794 -2.5195 -1.4985 -4.5065 
-5.938 -4.7475 -4.348 -7.0035 -7.3425 -5.6105 -3.1695 -6.7805 
-5.938 -8.7805 -7.0035 -11.7645 -8.002 -5.9935 -8.8275 
-9.098001 -9.7005 -11.7645 -12.424 -8.371 -12.0833 
-9.754001 -14.5155 -12.424 -12.793 -14.6132 
-1.934 -4.7475 -4.348 -2.186 -6.95 -2.5195 -4.5065 
-5.938 -8.7805 -6.642 -8.134501 -8.849501 -6.701 
-9.098001 -9.9405 -13.1237 -9.9455 -13.2648 
-10.143 -16.7228 -14.9347 -14.7702 
-17.1469 -18.5338 -19.7594 
-1.934 -4.7475 -4.348 -3.9355 -2.5195 -4.5065 -2.4265 -4.3195 -3.7285 -3.59 
-5.938 -8.7805 -8.780001 -6.296 -6.701 -7.408 -5.45 -8.4505 -6.758 
-9.098001 -13.6675 -11.9243 -11.0811 -9.0555 -10.322 -10.3095 -11.904 
-14.183 -16.8118 -16.7094 -13.4356 -12.0955 -15.1815 -13.763 
-17.3273 -21.5969 -19.0639 -16.4756 -16.955 -18.635 
-1.934 -4.7475 -4.348 -2.7415 -4.794 -2.5195 -4.5065 -1.756 -2.4265 -4.9265 -2.5045 -2.664 -3.8755 -4.1265 0 
-5.938 -8.7805 -7.3645 -6.637 -5.6105 -6.701 -6.254 -3.949 -6.112 -6.180501 -4.074 -4.763 -8 -4.1265 
-9.098001 -9.661 -10.2185 -6.9675 -9.399 -7.7155 -8.6855 -7.7355 -7.396 -7.066 -5.995 -8.772 -8 
-9.859501 -10.7595 -10.2365 -10.3475 -10.21 -10.0065 -12.6576 -9.054501 -8.377501 -9.224501 -9.7355 -8.772 
-11.067 -10.7795 -10.4355 -11.1585 -12.88 -14.006 -13.9766 -9.986501 -9.632501 -13.324 -9.7355 
