-4.759 
n/a 
n/a 
n/a 
n/a 
-4.759 
n/a 
n/a 
n/a 
n/a 
-4.759 
n/a 
n/a 
n/a 
n/a 
-4.759 
n/a 
n/a 
n/a 
n/a 
-3.8225 -4.361 -1.756 -4.809 -4.361 -2.4265 -2.229 -3.5005 -1.4985 -4.773 -3.8315 
-7.785501 -6.0085 -6.661 -9.3245 -8.001 -3.3415 -6.3485 -4.372 -6.781501 -6.778501 
-9.7775 -12.3239 -11.3543 -13.0831 -8.573 -8.5895 -7.1325 -10.564 -9.507501 
-16.2767 -17.0172 -15.1129 -13.6551 -13.9688 -9.0065 -13.5655 -13.29 
-20.97 -20.7758 -15.6849 -19.0509 -14.3858 -15.9915 -16.2915 
-5.337 -2.8645 -4.368 
-7.692 -5.259 
-10.1225 
n/a 
n/a 
-2.3615 -4.4995 -1.934 -5.683 -2.5045 -3.3235 -2.5045 -6.723001 
-5.593 -5.663 -8.582001 -7.6385 -3.7105 -3.8485 -8.022 
-6.9565 -12.9264 -10.523 -8.757 -3.8545 -9.33 
-14.3779 -14.8674 -11.6415 -8.8985 -9.332001 
-16.3189 -15.9859 -11.783 -9.751 
-5.399 -3.8315 -1.756 -4.809 -3.8315 -2.4945 -4.4825 -1.934 -7.514501 -3.8315 
-8.047501 -5.169001 -6.661 -6.122 -6.91 -8.7665 -5.5625 -10.3475 -11.805 
-9.5765 -8.1055 -7.847 -8.2615 -13.5396 -9.731001 -14.261 -14.4418 
-12.7872 -8.113501 -10.6595 -15.0695 -14.5041 -18.8703 -19.2425 
-12.7952 -11.1188 -17.4675 -16.034 -23.6434 -23.4062 
