-4.759 
n/a 
n/a 
n/a 
n/a 
-4.759 
n/a 
n/a 
n/a 
n/a 
-4.759 
n/a 
n/a 
n/a 
n/a 
-4.759 
n/a 
n/a 
n/a 
n/a 
-3.778 -12.16972 -9.684 -10.7715 
-16.33672 -21.85372 -20.8357 
-26.02072 -33.00542 
-37.17242 
n/a 
-2.857 -4.522 -4.4585 -3.098 
-5.117 -9.000501 -7.3525 
-10.0415 -12.1847 
-13.2257 
n/a 
-2.857 -4.522 -1.7695 -3.1405 -3.098 
-5.117 -6.2635 -4.2535 -6.3595 
-6.903 -8.705501 -7.194 
-9.283501 -11.8172 
-12.4006 
-3.778 -10.6255 -8.6145 -10.5565 0 -2.857 -4.522 -2.186 -2.0935 -3.1405 -3.098 0 
-10.6735 -10.688 -11.0805 -10.5565 -2.857 -5.117 -5.974501 -4.4495 -4.328 -6.3595 -3.098 
-10.7105 -13.154 -11.0805 -13.4135 -5.117 -6.306 -9.300501 -6.516001 -7.408501 -6.3595 
-13.1765 -13.154 -13.9375 -15.6735 -6.306 -9.816501 -10.3965 -9.101001 -7.408501 
-13.1765 -16.011 -16.1975 -16.8625 -9.816501 -10.438 -13.2645 -9.101001 
