-4.759 
n/a 
n/a 
n/a 
n/a 
-4.759 
n/a 
n/a 
n/a 
n/a 
-4.759 
n/a 
n/a 
n/a 
n/a 
-4.759 
n/a 
n/a 
n/a 
n/a 
-4.8745 -2.4945 -4.5955 0 -3.883 0 -1.756 -4.38 -3.1495 -4.418 -2.4945 -4.015 -3.9675 -3.959 -3.436 -5.0135 
-6.2875 -7.5535 -4.5955 -3.883 -3.883 -1.756 -6.185 -8.045 -6.281 -5.929 -5.9125 -7.384501 -8.512001 -7.3325 -8.2395 
-10.5035 -7.5535 -8.561501 -3.883 -5.6335 -6.185 -9.0115 -11.3745 -7.2705 -9.4775 -10.1808 -12.565 -12.3291 -12.4506 
-10.5035 -12.7779 -8.561501 -5.6335 -8.723001 -9.0115 -12.4192 -12.364 -11.2782 -13.6916 -15.3613 -16.3821 -17.4472 
-15.7279 -12.7779 -9.2255 -8.723001 -11.7061 -12.4192 -13.4087 -16.3717 -15.4923 -18.8721 -19.1784 -21.5002 
-4.8745 -2.4945 -4.5955 0 -3.883 -1.756 -5.569 -2.9705 -2.7415 -3.819 -3.9675 -3.959 -3.436 -2.4265 -2.7415 -3.918 
-6.2875 -7.5535 -4.5955 -3.883 -5.6335 -7.631001 -10.7025 -4.512 -5.5775 -9.889501 -8.512001 -7.3325 -4.978 -3.681 -6.377501 
-10.5035 -7.5535 -8.561501 -5.6335 -10.1225 -12.8677 -12.244 -7.014501 -12.1936 -14.434 -12.3291 -8.769501 -5.9545 -7.906001 
-10.5035 -12.7779 -9.2255 -10.1225 -15.5456 -14.4092 -14.7465 -13.8358 -16.7381 -18.2511 -13.7661 -9.723001 -9.8255 
-15.7279 -13.4419 -14.2065 -15.5456 -17.0871 -16.9117 -21.5678 -18.3803 -20.5552 -19.6881 -14.7196 -13.594 
-4.8745 -2.4945 -4.5955 0 -3.883 -1.756 -8.914001 -2.871 -2.7415 -2.664 -4.015 -3.9675 -3.436 -5.3995 -3.222 -1.4985 -4.0375 0 
-6.2875 -7.5535 -4.5955 -3.883 -5.6335 -12.8986 -12.8166 -5.3315 -4.6625 -4.926 -7.384501 -7.917 -7.6005 -7.021 -3.7835 -5.0015 -4.0375 
-10.5035 -7.5535 -8.561501 -5.6335 -15.4933 -14.9818 -14.8051 -7.2915 -7.0775 -7.724 -9.561501 -12.3889 -8.915001 -7.928 -7.091 -5.0015 
-10.5035 -12.7779 -9.2255 -15.6797 -17.6597 -16.9703 -16.6796 -9.647 -8.934501 -9.587501 -14.6596 -13.7034 -9.315001 -11.4527 -7.091 
-15.7279 -13.4419 -19.7637 -17.6597 -19.6482 -18.8448 -19.1831 -11.504 -9.972501 -14.7112 -15.9741 -14.1034 -12.9281 -11.4527 
-4.5955 0 -3.883 -1.756 -5.569 -2.4945 -1.4985 -4.8745 -2.9705 -3.152 -4.015 -6.057 -4.253 0 
-4.5955 -3.883 -5.6335 -7.631001 -10.4595 -3.9315 -6.075001 -7.194 -5.007 -6.9805 -8.1105 -9.769 -4.253 
-8.561501 -5.6335 -10.1225 -12.6247 -11.8965 -7.628 -8.427501 -9.057 -8.671501 -10.5035 -12.1213 -9.769 
-9.2255 -10.1225 -15.3026 -14.0617 -15.593 -9.757 -9.992001 -12.7597 -12.4165 -14.5143 -12.1213 
-14.2065 -15.3026 -16.7396 -17.7582 -17.722 -11.5357 -13.8027 -16.5047 -16.4273 -14.5143 
