-4.759 
n/a 
n/a 
n/a 
n/a 
-4.759 
n/a 
n/a 
n/a 
n/a 
-4.759 
n/a 
n/a 
n/a 
n/a 
-4.759 
n/a 
n/a 
n/a 
n/a 
-1.4985 -4.1805 -2.186 -1.8085 -3.535 -4.0045 -2.0935 -2.871 -1.7695 -2.8965 -7.004 -1.934 -3.691 0 
-5.4645 -6.2695 -3.164 -5.6195 -7.656 -6.147501 -4.604 -4.734 -4.497 -9.225 -8.5225 -4.8225 -3.691 
-7.398 -7.3795 -6.7825 -9.172001 -10.123 -8.925001 -6.313001 -8.277 -10.298 -10.61 -11.5478 -4.8225 
-9.122001 -10.3155 -10.523 -11.8634 -12.9005 -10.6465 -10.3602 -14.287 -11.683 -13.6353 -11.5478 
-12.2334 -14.056 -13.2144 -14.6409 -14.622 -14.6937 -16.3702 -15.672 -14.7083 -13.6353 
-3.691 -4.845 -3.873 -3.892 -4.105 -3.301 -4.247 -1.7695 -4.0355 -3.458 -4.1355 -1.7695 -4.1355 -4.418 0 
-9.591001 -7.5675 -7.971 -7.9635 -7.108 -7.509 -5.868 -4.562 -7.5065 -7.9535 -6.291501 -6.797501 -7.073501 -4.418 
-12.3525 -12.2487 -12.2835 -11.1481 -9.969 -9.0865 -8.299001 -7.941 -12.4196 -10.66 -7.718 -9.133 -7.073501 
-17.0337 -16.5612 -15.4681 -14.0091 -11.5949 -11.5979 -11.357 -13.0869 -15.1261 -12.7039 -10.4523 -9.133 
-21.3462 -19.7458 -18.3291 -15.635 -14.1063 -14.6559 -16.5029 -15.7934 -17.17 -15.4382 -10.4523 
-3.691 -2.186 -3.6975 -6.0525 -6.8125 -2.3615 -2.186 -4.267 -1.4985 -3.2825 -5.6855 -1.4985 -3.383 -3.699 0 
-5.832 -5.3155 -11.1366 -13.9498 -9.09 -3.5005 -7.08 -6.655 -3.712 -9.9455 -7 -4.554501 -5.014 -3.699 
-10.142 -14.5524 -19.0339 -16.2273 -10.0165 -7.687 -9.662001 -8.7065 -10.328 -11.26 -10.7595 -6.9925 -5.014 
-19.6093 -22.4497 -21.3114 -17.1538 -14.3322 -11.5704 -11.7135 -16.0053 -11.6425 -15.0195 -13.1975 -6.9925 
-27.5066 -24.7272 -22.2379 -21.4695 -18.2156 -13.6219 -19.0123 -17.3198 -15.402 -17.4575 -13.1975 
-3.851 -1.7695 -1.4985 -4.5515 -4.5435 -1.7565 -3.691 0 -3.0365 -2.4945 -2.645 -5.5735 -4.0415 -3.737 -3.691 -2.5045 -1.4985 -3.2825 -3.5015 -1.7565 -3.8245 
-4.0015 -2.7955 -5.5555 -8.140501 -5.909 -4.930501 -3.691 -3.0365 -3.688 -4.6775 -8.934501 -9.5385 -7.762 -7.998501 -6.273 -3.583 -3.712 -5.507 -4.783 -5.058 
-4.5775 -6.824501 -8.675 -8.721001 -8.727501 -4.930501 -6.831 -3.688 -5.477 -11.8246 -13.1505 -13.2976 -12.4821 -11.3635 -7.410501 -5.8065 -5.642 -8.212001 -7.672501 
-7.9815 -10.259 -8.940001 -11.6435 -8.727501 -7.987 -7.219501 -5.477 -12.9451 -16.0406 -16.9096 -18.0177 -15.8471 -12.501 -9.248501 -7.5895 -8.436501 -11.5331 
-11.8248 -10.5125 -11.9453 -11.6435 -12.171 -8.4455 -8.877501 -12.9451 -17.1611 -19.7997 -21.6297 -21.3827 -16.9846 -14.339 -9.813001 -10.038 -11.9596 
