-4.759 
n/a 
n/a 
n/a 
n/a 
-4.759 
n/a 
n/a 
n/a 
n/a 
-4.759 
n/a 
n/a 
n/a 
n/a 
-4.759 
n/a 
n/a 
n/a 
n/a 
-4.393 0 -9.488001 -10.1015 -10.613 0 -10.6015 0 
-4.393 -9.488001 -10.151 -10.8025 -10.613 -10.6015 -10.6015 
-10.9315 -10.151 -10.886 -10.8025 -21.2145 -10.6015 
-11.5945 -10.886 -10.886 -21.404 -21.2145 
-12.3295 -10.886 -21.4875 -21.404 
-4.426 -1.7565 -1.4985 -3.6115 -4.7285 -4.1555 -17.028 -10.1015 -10.651 0 -9.849501 0 0 -5.3565 0 
-5.47 -2.4195 -4.081 -6.5495 -8.4455 -17.855 -15.895 -10.784 -10.651 -9.849501 -9.849501 0 -5.3565 -5.3565 
-5.9535 -5.180501 -6.670501 -9.978001 -21.8635 -18.755 -16.7075 -10.784 -20.8225 -9.849501 -9.849501 -5.3565 -5.3565 
-8.462501 -7.797 -10.054 -23.3744 -22.5265 -19.4715 -16.7075 -20.9555 -20.8225 -9.849501 -15.4194 -5.3565 
-10.2375 -11.2985 -23.4868 -24.0374 -23.243 -19.4715 -26.879 -20.9555 -20.8225 -15.4194 -15.4194 
-4.393 0 -4.384 0 -7.245 0 -3.4985 0 -2.0935 -4.936 0 0 -2.701 0 
-4.393 -4.384 -4.384 -7.245 -7.245 -3.4985 -3.4985 -2.0935 -6.574501 -4.936 0 -2.701 -2.701 
-9.883 -4.384 -12.7618 -7.245 -11.5687 -3.4985 -5.3895 -6.574501 -6.574501 -4.936 -2.701 -2.701 
-9.883 -12.7618 -12.7618 -11.5687 -11.5687 -5.3895 -10.4107 -6.574501 -6.574501 -8.898001 -2.701 
-18.4644 -12.7618 -17.0855 -11.5687 -13.4597 -10.4107 -10.4107 -6.574501 -11.0539 -8.898001 
-4.393 0 -9.488001 -10.1015 -10.613 
-4.393 -9.488001 -10.151 -10.8025 
-10.9315 -10.151 -10.886 
-11.5945 -10.886 
-12.3295 
