-4.759 
n/a 
n/a 
n/a 
n/a 
-4.759 
n/a 
n/a 
n/a 
n/a 
-4.759 
n/a 
n/a 
n/a 
n/a 
-4.759 
n/a 
n/a 
n/a 
n/a 
-1.934 -5.076 0 -4.1755 -4.138 -5.608 -2.5195 -4.2815 -1.756 -3.43 -4.179 -4.015 0 -3.4765 -3.929 -1.4985 -3.9725 -1.7565 -4.2815 -2.7415 -1.4985 -3.9725 -1.7565 -4.1755 -4.732 -4.8955 0 0 
-6.3845 -5.076 -4.1755 -9.0445 -11.0666 -6.9635 -6.0005 -5.558001 -5.055 -7.2275 -7.922501 -4.015 -3.4765 -4.589 -4.8985 -4.88 -4.9685 -5.607 -6.744 -4.063 -4.88 -4.9685 -5.3105 -9.042001 -9.193001 -4.8955 0 
-6.3845 -9.212 -9.0445 -16.6377 -12.4221 -11.2583 -7.0275 -9.092501 -8.602501 -9.83 -7.922501 -8.017 -4.589 -5.3395 -8.216001 -5.4975 -9.1415 -7.823 -7.947001 -7.0725 -5.4975 -7.572001 -9.658001 -13.7148 -9.193001 -4.8955 
-10.044 -14.2776 -16.6377 -17.9932 -16.7169 -12.2853 -10.4345 -12.6822 -11.355 -9.83 -12.7217 -8.712501 -5.3395 -9.002001 -9.237 -9.786 -11.5005 -9.075001 -11.2337 -7.362 -8.2915 -12.3577 -14.4314 -13.7148 -9.193001 
-15.1096 -21.8708 -17.9932 -22.288 -17.7439 -15.6923 -14.0242 -15.4347 -11.355 -14.5568 -13.4172 -9.6365 -9.002001 -10.061 -13.5533 -12.16 -12.7525 -12.3971 -11.5232 -10.1985 -13.467 -17.1311 -14.4314 -13.7148 
-3.17 -3.355 -1.7565 -4.1755 -3.7555 -4.0925 -2.5195 -3.4225 -4.1 -1.756 -4.5485 -1.8085 -4.015 -3.59 -3.4765 -3.929 -3.5725 -4.8955 0 -1.4985 -3.9725 -1.7565 -1.4985 -3.4225 -4.1 -2.7415 -1.4985 -3.9725 -1.7565 -4.1755 0 
-5.4065 -3.725 -5.3105 -8.426001 -7.387 -5.647 -5.8945 -9.0045 -5.774 -6.2885 -5.7685 -7.0235 -7.071501 -6.806 -4.589 -6.5865 -10.31 -4.8955 -1.4985 -4.88 -4.9685 -2.4195 -3.9655 -9.0045 -6.363 -4.063 -4.88 -4.9685 -5.3105 -4.1755 
-6.9365 -7.7005 -9.765501 -12.3437 -8.559 -9.567501 -12.0737 -10.6475 -9.948001 -6.962 -11.7463 -9.496 -10.1265 -7.645 -8.404 -13.5562 -10.31 -6.571 -4.88 -5.4975 -5.588 -4.6245 -10.459 -11.4993 -7.9655 -7.0725 -5.4975 -7.572001 -5.3105 
-10.411 -12.6695 -13.5886 -13.5157 -12.7865 -16.1315 -13.7167 -14.8215 -10.7065 -13.0474 -14.2188 -12.5566 -10.604 -11.5228 -15.5027 -13.5562 -11.9855 -9.06 -5.4975 -6.2285 -8.1625 -11.2732 -12.9538 -13.1018 -11.0806 -7.362 -8.2915 -7.572001 
-15.697 -16.4926 -14.7606 -17.7432 -19.3505 -17.7745 -17.8907 -15.58 -16.7919 -15.5199 -17.2794 -13.0341 -14.4818 -18.6215 -15.5027 -15.2317 -14.4745 -9.254001 -6.2285 -9.0635 -15.3186 -13.768 -14.5563 -16.2169 -11.3701 -10.1985 -8.2915 
-1.934 -5.076 0 -3.8175 -3.8195 -1.7565 -4.1755 -5.3855 -4.2315 -2.5195 -1.4985 -3.4225 -4.0965 -1.756 -4.3195 -4.015 0 -3.6705 0 -4.732 -4.8955 0 -1.4985 -2.985 -3.2785 -2.229 -3.9725 -4.3375 -2.5045 -4.1755 -2.229 -3.9725 -3.074 0 
-6.3845 -5.076 -3.8175 -6.4005 -4.542 -5.3105 -9.901501 -8.429501 -5.895 -3.1695 -3.9655 -4.2 -5.706 -5.563 -7.0655 -4.015 -3.6705 -3.6705 -4.732 -9.193001 -4.8955 -1.4985 -4.1115 -4.88 -5.109 -6.082 -8.323501 -4.952 -7.263 -5.828001 -6.082 -7.311501 -3.074 
-6.3845 -9.304501 -6.4005 -6.6515 -8.474 -11.4815 -12.9455 -8.549001 -6.415 -5.643 -5.179 -5.86 -9.138 -8.386001 -7.0655 -7.769001 -3.6705 -8.236 -9.193001 -9.193001 -6.571 -4.1115 -5.686501 -6.398 -9.0495 -10.647 -8.611 -9.8985 -7.867 -10.016 -9.920501 -7.311501 
-10.0745 -12.0549 -6.6515 -11.0181 -14.9052 -14.5255 -13.065 -8.802501 -9.234501 -6.6675 -6.082 -9.549001 -12.0588 -8.386001 -10.013 -7.769001 -8.236 -13.074 -9.193001 -10.468 -8.969 -5.686501 -6.5405 -10.757 -13.9175 -10.9345 -13.6455 -9.9095 -12.3538 -13.9971 -9.920501 
-12.8249 -12.3059 -11.0181 -17.4493 -17.9492 -14.645 -13.3185 -11.7422 -10.7608 -7.6645 -9.566501 -12.5624 -12.0588 -11.3713 -10.013 -12.5267 -13.074 -13.074 -10.468 -12.866 -11.0268 -6.5405 -11.4129 -15.625 -14.205 -15.969 -13.6565 -14.4873 -16.3349 -13.9971 
-1.934 -5.076 0 -3.17 -1.7565 -1.4985 -4.1755 -3.892 -4.3195 -2.664 -4.015 -3.59 0 -3.929 -12.16972 0 -3.4225 -7.093 -3.9725 -2.7415 -1.4985 -3.9725 -1.7565 -4.1755 0 
-6.3845 -5.076 -3.17 -4.179 -2.4195 -7.012 -7.862 -7.7865 -5.769 -4.926 -7.071501 -3.59 -3.929 -16.86832 -12.16972 -3.4225 -12.6181 -11.7811 -6.3315 -4.063 -4.88 -4.9685 -5.3105 -4.1755 
-6.3845 -8.938001 -4.179 -4.497 -7.927501 -10.134 -12.2335 -9.249001 -7.19 -7.4245 -7.071501 -7.2535 -16.86832 -16.86832 -15.59222 -12.6181 -17.3062 -14.1401 -7.669001 -7.0725 -5.4975 -7.572001 -5.3105 
-9.4785 -9.3555 -4.497 -10.4265 -11.2503 -14.5055 -13.696 -10.524 -8.476501 -7.4245 -10.31 -20.27022 -16.86832 -20.29082 -24.78782 -17.3062 -19.6652 -15.4776 -9.599501 -7.362 -8.2915 -7.572001 
-9.7565 -9.5185 -10.4265 -13.7493 -15.6218 -15.968 -14.971 -11.8105 -8.476501 -10.476 -23.32672 -20.27022 -20.29082 -29.48642 -29.47592 -19.6652 -21.0027 -17.4081 -9.994 -10.1985 -8.2915 
