-4.759 
n/a 
n/a 
n/a 
n/a 
-4.759 
n/a 
n/a 
n/a 
n/a 
-4.759 
n/a 
n/a 
n/a 
n/a 
-4.759 
n/a 
n/a 
n/a 
n/a 
-3.1435 -1.8085 -4.834 -1.7565 -3.8655 -3.849 -2.5045 -5.7795 0 
-5.211 -6.604 -5.4855 -5.196 -8.026 -6.305 -8.274501 -5.7795 
-10.733 -7.8005 -6.0305 -9.159 -10.5844 -12.1786 -8.274501 
-11.9295 -9.167001 -11.0773 -11.7964 -16.458 -12.1786 
-13.296 -14.4516 -13.7147 -17.67 -16.458 
-2.3615 -2.186 -4.9405 -3.849 -4.834 -1.7565 -3.8655 
-3.5005 -6.0715 -7.18 -8.7255 -5.4855 -5.196 
-7.77 -7.9615 -12.3409 -9.920501 -6.0305 
-9.729 -13.226 -13.5359 -10.5945 
-15.0911 -14.421 -14.2099 
-2.3615 -2.186 -4.9405 -3.849 -1.4985 -4.834 -1.7565 -3.8655 0 
-3.5005 -6.0715 -7.18 -4.7705 -5.264 -5.4855 -5.196 -3.8655 
-7.77 -7.9615 -7.7225 -8.620501 -5.8925 -6.0305 -5.196 
-9.729 -8.4355 -10.5125 -9.2135 -7.0115 -6.0305 
-10.1745 -11.2761 -10.5585 -10.152 -7.0115 
-2.3615 -3.3235 -7.1165 -4.834 -1.7565 -3.8655 -3.849 -2.0935 -3.473 0 
-5.9565 -7.407001 -12.5321 -5.4855 -5.196 -8.026 -5.268 -6.489 -3.473 
-10.259 -13.1782 -13.1836 -6.0305 -9.159 -9.104 -9.899 -6.489 
-16.0302 -13.8297 -13.7286 -11.0773 -10.048 -13.8482 -9.899 
-16.6817 -14.3747 -18.7754 -11.9663 -14.9384 -13.8482 
