-4.759 
n/a 
n/a 
n/a 
n/a 
-4.759 
n/a 
n/a 
n/a 
n/a 
-4.759 
n/a 
n/a 
n/a 
n/a 
-4.759 
n/a 
n/a 
n/a 
n/a 
-2.3615 -2.186 -1.4985 -4.193 -1.7565 -2.688 -4.348 
-3.5005 -3.339 -4.594501 -4.7225 -4.2285 -7.887001 
-4.3105 -6.3335 -4.7895 -7.678 -9.824 
-6.8645 -6.4295 -7.836 -13.5167 
-6.9255 -8.986501 -13.7279 
-2.7295 -3.5395 -2.4265 -2.186 -1.4985 -4.129 -1.7565 -3.6205 -4.348 
-5.392 -5.1225 -3.292 -3.339 -5.424 -6.9015 -6.414001 -7.8465 
-6.277 -6.9455 -4.5995 -6.7085 -7.337501 -12.1064 -10.9654 
-8.340501 -8.043501 -8.001 -8.927501 -12.8626 -16.6578 
-9.34 -11.6494 -9.9475 -14.5284 -17.414 
-2.3615 -2.186 -1.4985 -3.602 -1.7565 -4.348 -2.229 -4.193 
-3.5005 -3.339 -4.593 -4.5195 -5.8355 -6.1645 -6.428 
-4.3105 -6.05 -5.109 -9.584001 -7.0455 -11.1507 
-6.922501 -6.4505 -10.2367 -9.942 -12.2943 
-7.715 -11.9038 -10.5947 -15.6394 
-2.7295 -2.7765 -4.115 -2.3615 -2.5045 -2.186 -1.4985 -4.193 -1.7565 -4.127 -4.348 0 
-4.065 -6.338 -5.6775 -5.006 -4.8025 -3.339 -4.594501 -4.7225 -5.151 -8.4065 -4.348 
-6.8835 -7.7375 -7.171 -7.689 -5.7455 -6.3335 -4.7895 -7.893001 -8.728001 -8.4065 
-8.2745 -8.801001 -10.4675 -8.505 -9.8085 -6.4295 -7.927001 -11.6158 -8.728001 
-9.2685 -12.3355 -11.2835 -12.5188 -9.972501 -9.767 -11.668 -11.6158 
