-4.759 
n/a 
n/a 
n/a 
n/a 
-4.759 
n/a 
n/a 
n/a 
n/a 
-4.759 
n/a 
n/a 
n/a 
n/a 
-4.759 
n/a 
n/a 
n/a 
n/a 
-3.034 -3.928 -4.2215 -2.186 -5.0225 -2.4265 0 
-7.132501 -6.750501 -7.065001 -8.3935 -7.5295 -2.4265 
-10.19 -9.0635 -13.5299 -10.7495 -7.5295 
-12.503 -15.8622 -15.8859 -10.7495 
-19.3017 -18.2182 -15.8859 
-3.736 -4.7505 -2.186 -6.48 -4.546 
-8.527 -7.096 -9.038501 -11.9228 
-11.5695 -14.2973 -14.9021 
-18.7708 -20.1609 
-24.6344 
-3.5455 -5.506 0 -1.4985 -5.5805 -3.807 -1.4985 -3.955 -1.7695 -4.4685 -1.4985 -4.774 -2.5195 -1.4985 -5.8205 -1.7695 -3.1435 -4.015 -3.3435 -4.0435 -1.4985 -3.7435 -1.7565 -1.4985 -4.121 0 
-7.122001 -5.506 -1.4985 -6.184 -9.545 -4.8745 -5.274 -5.9345 -4.8415 -5.3615 -5.929501 -7.663 -3.1695 -6.134001 -7.399 -4.49 -6.895 -7.0965 -6.59 -4.6045 -4.5515 -4.905 -2.4195 -5.189 -4.121 
-7.122001 -7.3445 -6.184 -9.719501 -10.4875 -8.7075 -6.8805 -8.454 -5.6995 -9.418 -8.2545 -8.351001 -7.56 -7.550501 -9.251 -8.177501 -9.529 -9.282001 -7.0825 -7.065501 -5.2425 -5.5395 -6.175 -5.189 
-8.400001 -9.899 -9.719501 -10.525 -10.7505 -10.025 -9.498 -9.4645 -9.672501 -11.8312 -8.740001 -10.209 -8.491 -9.311501 -10.523 -10.4935 -10.505 -9.3575 -9.755 -8.1 -5.727 -8.312 -6.175 
-10.181 -10.7065 -10.525 -10.752 -10.777 -10.7225 -10.173 -13.5117 -12.0945 -12.3167 -10.6595 -11.14 -10.4675 -10.5235 -10.5495 -10.5375 -10.53 -10.515 -10.37 -8.380501 -8.367001 -8.312 
-3.5455 -1.4985 -4.2705 0 -5.5805 -3.6955 -5.0655 
-3.91 -5.383 -4.2705 -5.5805 -9.51 -8.518001 
-7.597001 -5.383 -9.282001 -9.51 -14.4931 
-7.597001 -11.4951 -13.6279 -14.4931 
-13.9673 -15.841 -18.611 
