-4.759 
n/a 
n/a 
n/a 
n/a 
-4.759 
n/a 
n/a 
n/a 
n/a 
-4.759 
n/a 
n/a 
n/a 
n/a 
-4.759 
n/a 
n/a 
n/a 
n/a 
-10.8905 -12.16972 0 -4.8315 -3.737 -3.8315 -4.53 -2.356 -2.8965 -3.959 -4.9225 
-23.06022 -12.16972 -4.8315 -8.9245 -7.4445 -8.222501 -6.269 -4.4085 -4.940001 -8.5075 
-23.06022 -17.00122 -8.9245 -12.975 -12.4581 -9.942501 -7.81 -6.539001 -9.519501 
-27.89172 -21.09422 -12.975 -17.9886 -14.1781 -11.5623 -9.422501 -11.5435 
-31.98472 -25.14472 -17.9886 -19.7086 -15.7979 -13.1748 -14.6716 
-9.624001 -12.16972 0 -5.5925 -1.756 -6.8565 -1.7695 -5.5485 
-22.09552 -12.16972 -5.5925 -7.0295 -8.150001 -9.3955 -6.728001 
-22.09552 -17.76222 -7.0295 -14.0063 -10.7175 -14.465 
-27.68802 -19.19922 -14.0063 -16.5738 -15.787 
-29.12502 -26.17602 -16.5738 -21.6433 
-10.8905 -12.16972 0 -5.073 -1.756 -4.936 -1.7695 -3.571 -3.59 0 
-23.06022 -12.16972 -5.073 -6.602 -6.174 -6.962501 -4.6785 -5.8815 -3.59 
-23.06022 -17.24272 -6.602 -11.6484 -7.733 -9.35 -6.7485 -5.8815 
-28.13322 -18.77172 -11.6484 -13.2074 -10.5225 -11.795 -6.7485 
-29.66222 -23.81812 -13.2074 -15.9969 -12.9675 -11.795 
-9.401501 -12.16972 -5.5925 -1.756 -3.571 -7.61 -2.356 -4.53 -4.335 0 
-21.71762 -17.76222 -7.0295 -5.1285 -10.7335 -9.4685 -7.0885 -7.3145 -4.335 
-27.31012 -19.19922 -10.9848 -12.5364 -12.592 -14.2356 -10.564 -7.3145 
-28.74712 -23.15452 -18.3927 -14.3949 -17.3591 -17.7111 -10.564 
-32.70242 -30.56242 -20.2512 -19.162 -20.8346 -17.7111 
