-4.759 
n/a 
n/a 
n/a 
n/a 
-4.759 
n/a 
n/a 
n/a 
n/a 
-4.759 
n/a 
n/a 
n/a 
n/a 
-4.759 
n/a 
n/a 
n/a 
n/a 
-1.4985 -3.5435 -1.7565 -4.452 -5.003 -3.6845 -3.135 -3.618 -2.0935 -4.7695 -1.934 -1.4985 -5.036 -3.034 -2.4265 -5.1145 -2.0935 -2.3615 -3.634 0 
-4.2755 -4.9885 -6.421 -5.905 -9.017 -5.901 -6.625 -5.1595 -5.97 -6.446 -2.6125 -6.927001 -7.6325 -4.3295 -8.3325 -7.527 -3.854 -4.7085 -3.634 
-5.2325 -8.931001 -7.304 -9.555 -11.5759 -9.3935 -8.139501 -8.623001 -7.677001 -7.02 -8.6765 -9.7405 -7.909 -11.6423 -11.0064 -9.6125 -6.2635 -4.7085 
-9.319501 -8.939501 -11.4032 -12.3861 -15.0684 -10.182 -11.9992 -10.8126 -8.372001 -13.0524 -11.102 -11.651 -15.3047 -14.3162 -13.0919 -12.1056 -6.2635 
-9.328501 -13.1805 -14.2343 -15.8786 -15.8569 -14.0417 -14.1888 -11.5076 -14.6132 -16.2049 -12.7987 -19.261 -18.0852 -16.4017 -15.585 -12.1056 
-4.452 -5.003 -3.5435 -3.251 -3.135 -4.798 -3.436 -4.431 -2.264 -4.7695 -5.712501 
-5.905 -7.585501 -6.0535 -5.263 -8.134501 -8.1505 -8.072001 -6.0735 -6.788501 -10.3215 
-9.05 -9.4025 -8.734 -10.016 -11.7984 -10.2535 -9.304501 -9.269 -12.698 
-11.0138 -12.1386 -13.6014 -13.6799 -13.9014 -12.0032 -12.7076 -15.8321 
-13.7499 -17.006 -17.2653 -15.7829 -15.6511 -15.4063 -19.2707 
-6.344 -5.003 -3.5435 -3.43 -2.664 -3.8675 -2.356 -5.036 -3.922 0 -1.756 -4.0005 -4.1445 -1.7695 -3.613 
-10.1465 -7.585501 -6.837 -5.286 -5.2005 -5.006 -7.305501 -8.584001 -3.922 -1.756 -5.573 -7.3855 -5.989 -4.563 
-12.8538 -10.0745 -8.301001 -7.381 -5.8335 -10.3615 -12.01 -8.73 -5.271 -5.573 -10.1185 -9.1645 -9.1645 
-15.3428 -11.6251 -9.4965 -7.632 -11.3175 -15.1384 -12.1554 -10.688 -8.215 -10.1185 -12.0619 -12.5354 
-16.8934 -12.8206 -9.642 -13.4894 -16.5032 -15.3792 -14.1134 -14.032 -13.4725 -12.0619 -15.4328 
-4.452 -5.003 -3.5435 -3.644 0 -2.3085 -2.9965 -4.5675 -4.7695 -2.186 -1.4985 -3.9105 
-5.905 -7.585501 -6.455501 -3.644 -2.3085 -4.5125 -8.373 -8.9615 -6.6975 -3.339 -4.757 
-9.05 -10.688 -6.455501 -5.1575 -4.5125 -10.404 -13.1744 -11.3527 -8.865001 -6.012 
-12.2993 -10.688 -8.826 -9.291 -10.404 -15.2054 -15.5656 -13.5202 -11.758 
-12.2993 -13.0585 -13.3447 -15.4007 -15.2054 -17.5966 -17.7331 -16.4132 
