-4.759 
n/a 
n/a 
n/a 
n/a 
-4.759 
n/a 
n/a 
n/a 
n/a 
-4.759 
n/a 
n/a 
n/a 
n/a 
-4.759 
n/a 
n/a 
n/a 
n/a 
-5.179 -1.7565 -3.16 -3.8925 -1.934 -3.809 -3.5965 
-7.995501 -5.1555 -4.8765 -6.128 -6.04 -5.76 
-10.634 -7.3015 -6.878 -9.925501 -8.304001 
-12.78 -9.6485 -10.7025 -12.4561 
-15.127 -13.5448 -13.2331 
-4.915 -3.809 -4.161 -3.16 -3.664 -4.1375 -4.029 
-9.915501 -6.304501 -7.226501 -6.285501 -8.539001 -7.444 
-12.5076 -10.022 -11.1194 -11.7717 -12.3331 
-16.2251 -13.8915 -16.6056 -15.5658 
-20.0946 -19.3777 -20.3997 
-3.809 -8.776 
-14.172 
n/a 
n/a 
n/a 
-3.16 -3.8925 -5.179 -2.0935 -3.809 -3.5965 
-4.8765 -7.073 -6.592 -5.676001 -5.76 
-9.578001 -9.972501 -9.861 -7.8065 
-12.5109 -13.4181 -12.2679 
-15.9565 -15.825 
