-4.759 
n/a 
n/a 
n/a 
n/a 
-4.759 
n/a 
n/a 
n/a 
n/a 
-4.759 
n/a 
n/a 
n/a 
n/a 
-4.759 
n/a 
n/a 
n/a 
n/a 
-1.4985 -3.948 -5.253 -2.8645 -1.4985 -3.9655 -3.6615 -2.186 -3.668 -1.7565 -5.202 
-4.7695 -7.7475 -7.788 -4.3545 -4.9875 -6.959001 -6.337501 -7.023001 -4.660501 -6.0185 
-8.8435 -10.1185 -9.8675 -7.769001 -7.849501 -9.617001 -11.6351 -7.9265 -8.856501 
-11.3027 -12.2154 -13.3322 -11.163 -10.9101 -14.965 -12.5386 -12.1647 
-13.3996 -15.6801 -16.7262 -14.2236 -16.2581 -15.8685 -16.7768 
-1.4985 -3.948 -5.253 0 -3.6615 -1.934 -1.4985 -3.9655 -4.7045 -1.756 -3.6615 -1.934 -1.4985 -3.188 -3.152 -1.4985 -5.3515 -1.7565 -5.202 
-4.7695 -7.7475 -5.253 -3.6615 -4.437 -2.6125 -4.9875 -6.6725 -6.277 -5.509 -4.437 -2.6125 -3.619 -6.5055 -4.764 -6.5905 -6.1085 -6.0185 
-8.8435 -7.7475 -9.906 -4.437 -5.0245 -6.040501 -6.804 -7.77 -10.3815 -5.894001 -5.0245 -4.377 -6.67 -8.110001 -9.365001 -7.4385 -10.9277 
-8.8435 -12.6015 -10.1465 -5.0245 -7.667 -7.0835 -7.861 -12.0935 -10.672 -6.573 -7.2825 -7.347 -8.406 -12.7416 -9.931001 -12.4645 
-13.7857 -12.842 -10.734 -7.667 -9.599001 -8.158001 -12.1981 -12.384 -11.351 -8.863001 -10.3155 -8.8065 -13.0794 -13.3076 -14.957 
-1.934 -5.1845 -6.844 -6.798501 -3.9755 -1.7565 -10.8475 -4.683 -2.4945 -1.4985 -4.224 
-6.564 -6.9655 -14.5811 -8.43 -4.312 -13.4763 -16.7423 -7.456 -3.9315 -5.670501 
-9.2075 -14.872 -16.2126 -8.487 -17.0062 -19.1655 -19.6263 -8.861 -7.4995 
-17.1946 -16.5035 -16.2696 -21.3216 -22.4892 -22.0495 -21.0313 -12.5464 
-18.8261 -16.5605 -29.1042 -26.8046 -25.3732 -23.4545 -24.7167 
-3.6065 -5.253 -5.1035 -2.5045 -5.1845 -6.262 0 -3.485 -3.4625 -1.7565 -3.97 0 -1.756 -3.4625 -1.7565 -3.9675 -2.4945 -3.668 -2.0935 -5.202 0 
-8.087501 -9.614 -6.9775 -8.4945 -8.6805 -6.262 -3.485 -7.405 -4.9855 -5.6915 -3.97 -1.756 -5.1775 -4.9855 -5.5405 -6.638 -7.506001 -5.612 -7.4045 -5.202 
-12.6335 -11.8978 -13.6675 -12.3913 -8.6805 -10.8215 -7.405 -8.801001 -9.149 -5.6915 -5.137 -5.1775 -6.797501 -8.030001 -7.961 -11.9445 -9.6595 -11.256 -7.4045 
-14.9173 -18.5878 -17.5643 -12.3913 -13.6812 -14.7415 -8.801001 -13.1305 -9.149 -6.393001 -8.515501 -6.797501 -9.837001 -10.8123 -13.3235 -14.098 -15.3955 -11.256 
-21.6073 -22.4846 -17.5643 -17.392 -17.6012 -16.1375 -13.1305 -13.1305 -10.2545 -9.9305 -10.5055 -9.837001 -12.6705 -16.1748 -15.477 -19.834 -15.3955 
