-4.759 
n/a 
n/a 
n/a 
n/a 
-4.759 
n/a 
n/a 
n/a 
n/a 
-4.759 
n/a 
n/a 
n/a 
n/a 
-4.759 
n/a 
n/a 
n/a 
n/a 
-3.4765 -3.1015 -4.812 -3.383 -4.4695 -1.934 -3.676 -4.9035 0 -3.676 -2.229 -3.4465 -2.789 0 -4.37 -4.812 0 
-6.022 -8.694 -8.3275 -6.6995 -6.4835 -4.7985 -9.194 -4.9035 -3.676 -4.593 -5.636 -6.9705 -2.789 -4.37 -7.859501 -4.812 
-12.1001 -12.3719 -12.01 -7.913 -8.553 -10.1995 -9.194 -9.772501 -4.593 -8.396 -9.372 -6.9705 -7.45 -7.859501 -7.859501 
-15.778 -16.0544 -13.2235 -10.199 -14.3224 -10.1995 -14.4708 -10.0095 -8.396 -12.8518 -9.372 -12.0611 -11.3587 -7.859501 
-19.4605 -17.2679 -15.5095 -15.9684 -14.3224 -15.6409 -14.7078 -14.0751 -12.8518 -12.8518 -14.6158 -15.9698 -11.3587 
-1.4985 -3.486 -4.179 -2.4945 -3.961 -1.7695 -3.903 -1.7695 -2.5685 -4.033 -1.7565 -4.007 0 -4.013 -4.0005 -4.7865 -2.0935 -3.711 -3.2775 -2.5045 -5.358 0 -4.802 0 -3.5485 -1.756 -3.1385 -2.356 -4.033 -4.619 -2.4945 -4.6515 
-3.5655 -7.102 -5.893001 -5.0485 -4.336 -4.666 -4.574 -4.2305 -5.286 -4.5795 -5.9845 -4.007 -4.013 -6.996 -7.4095 -6.576001 -5.747 -6.0175 -3.678 -7.741 -5.358 -4.802 -4.802 -3.5485 -4.869 -5.0125 -4.608 -5.9835 -6.2015 -6.3995 -5.679501 
-7.153501 -9.101 -7.864 -5.212 -7.596001 -5.6995 -5.666 -6.862 -5.702 -8.4515 -5.9845 -8.267 -6.996 -9.7885 -9.243 -10.1185 -7.8875 -6.035 -9.493 -7.741 -7.0965 -4.802 -7.3595 -4.869 -7.186 -6.2365 -6.9585 -6.471 -8.239 -9.206501 
-9.297001 -10.26 -7.916501 -8.472501 -8.118 -7.071 -8.601501 -7.004001 -8.649501 -8.4515 -9.425 -10.31 -9.7885 -10.2415 -10.234 -10.2395 -7.89 -10.126 -9.493 -9.522501 -7.0965 -7.3595 -8.6715 -7.186 -7.7625 -8.13 -7.238501 -8.573 -11.158 
-10.2595 -10.28 -10.1675 -8.823501 -8.889501 -9.647501 -8.7065 -10.0035 -8.649501 -10.259 -10.317 -10.326 -10.2415 -10.25 -10.2425 -10.248 -10.2595 -10.126 -10.165 -9.522501 -9.925501 -8.6715 -10.513 -7.7625 -9.9325 -8.3975 -9.132001 -11.5322 
-3.845 -1.7565 -4.3005 -4.812 -2.356 -4.5055 -3.3425 -2.674 -3.7905 -3.383 -7.998001 -4.812 -5.262 -4.9425 -2.186 -2.789 0 -1.7565 -1.4985 -3.5085 -4.9425 0 
-4.13 -5.9475 -5.854001 -6.6925 -6.4835 -6.941501 -6.8605 -5.123 -6.03 -9.731001 -9.436501 -9.549 -6.7535 -6.6455 -5.9595 -2.789 -1.7565 -2.4195 -4.4755 -7.5925 -4.9425 
-8.285001 -7.144 -7.961501 -8.942 -9.1005 -9.846001 -8.9855 -6.8575 -11.025 -10.77 -13.347 -11.3213 -8.1315 -10.3155 -5.9595 -5.1755 -2.4195 -5.126 -8.227 -7.5925 
-9.342501 -9.142 -9.442 -11.7526 -12.2192 -11.9844 -10.866 -11.163 -11.6352 -14.9892 -15.3035 -12.6993 -12.0553 -10.3155 -8.3155 -5.925 -5.126 -8.812 -8.227 
-11.4823 -10.6605 -12.3552 -14.8713 -14.3576 -13.8649 -14.6675 -12.8688 -17.2678 -16.8577 -16.6815 -16.6231 -12.0553 -12.6715 -8.941001 -7.364 -8.812 -8.812 
-2.645 -4.5055 -1.756 -5.58 -3.686 -2.3335 -7.258501 -3.429 -4.5905 -1.7695 -3.2295 -3.9115 -4.3435 -2.789 0 -4.4775 -3.851 -1.7695 -2.645 -4.5055 
-7.003 -5.726 -7.015 -9.6245 -5.3655 -8.951501 -9.666501 -9.767501 -5.113 -5.3405 -6.816 -8.6035 -6.8145 -2.789 -4.4775 -8.835001 -4.0015 -4.8565 -7.003 
-8.018001 -8.761001 -11.5337 -11.304 -13.1281 -10.2815 -16.5066 -10.7882 -8.0305 -8.861 -11.9558 -11.1493 -6.8145 -8.4385 -8.835001 -9.082001 -6.9695 -9.56 
-11.4408 -13.6753 -13.2132 -19.0666 -14.4581 -18.0364 -17.5273 -13.7057 -12.07 -14.1712 -14.5016 -11.1493 -13.7234 -13.2648 -9.082001 -12.134 -11.8526 
-16.3551 -15.3548 -20.9758 -20.3966 -22.213 -19.0571 -20.4448 -17.7452 -17.3802 -16.717 -14.5016 -18.0582 -18.5497 -13.5118 -12.134 -17.0171 
