-4.759 
n/a 
n/a 
n/a 
n/a 
-4.759 
n/a 
n/a 
n/a 
n/a 
-4.759 
n/a 
n/a 
n/a 
n/a 
-4.759 
n/a 
n/a 
n/a 
n/a 
-5.693 -3.6885 -2.186 -3.4075 -3.6885 
-7.456501 -5.4995 -6.289001 -6.5955 
-9.102501 -10.553 -9.4875 
-14.3862 -13.7515 
-17.5847 
-6.322001 -2.186 -1.4985 -3.4075 -3.6885 0 
-8.903001 -3.339 -4.118 -6.5955 -3.6885 
-10.1035 -6.16 -7.131001 -6.5955 
-12.9245 -8.028 -7.131001 
-14.7925 -8.028 
-5.693 -2.186 -1.4985 -3.4075 -3.6885 
-8.225 -3.339 -4.118 -6.5955 
-8.845 -6.16 -7.131001 
-9.304001 -8.028 
-9.321501 
-5.693 -2.186 -1.4985 -3.4075 -3.6885 
-8.225 -3.339 -4.118 -6.5955 
-8.845 -6.16 -7.131001 
-9.304001 -8.028 
-9.321501 
