-4.759 
n/a 
n/a 
n/a 
n/a 
-4.759 
n/a 
n/a 
n/a 
n/a 
-4.759 
n/a 
n/a 
n/a 
n/a 
-4.759 
n/a 
n/a 
n/a 
n/a 
-2.5195 -1.4985 -3.9785 -1.7565 -4.602 -4.153 -3.995 -4.1455 0 -4.1115 -2.186 -1.4985 -3.784 -4.237 -2.95 
-3.1695 -4.496 -4.924 -6.552001 -5.112 -7.973001 -6.749001 -4.1455 -4.1115 -6.279 -3.339 -4.6165 -7.665 -7.9595 
-6.0535 -4.959 -9.1715 -6.637001 -8.6335 -10.9782 -6.749001 -7.849501 -6.279 -7.386 -6.113 -8.256001 -10.209 
-6.6455 -9.262501 -9.215501 -9.4545 -11.7181 -10.9782 -10.411 -11.0104 -7.386 -10.5056 -9.722501 -10.4505 
-10.5035 -9.31 -12.132 -12.7879 -11.7181 -14.6402 -13.5719 -12.1174 -10.5056 -14.1151 -11.9582 
-1.4985 -4.8565 -3.992 -3.644 -2.3335 0 -1.4985 -4.696 -4.237 -2.742 -3.922 -1.4985 -6.3855 -1.7565 -1.4985 -4.3355 0 -3.851 -1.7695 -7.266 -4.709 -2.4945 -4.507 0 -4.208 -3.9075 -1.756 -5.501 -4.208 -4.7715 -2.742 -3.3165 -3.251 -1.7695 -5.2415 
-5.561 -8.857 -7.7585 -4.989501 -2.3335 -1.4985 -6.4835 -9.427 -6.9695 -5.363 -4.7665 -7.705501 -7.790501 -2.4195 -5.199 -4.3355 -3.851 -4.0015 -9.4735 -12.531 -7.688 -7.8035 -4.507 -4.208 -8.201 -5.436 -6.821 -9.574501 -8.416 -7.63 -5.001 -4.6955 -3.664 -7.646501 
-9.6815 -13.0067 -8.568501 -4.989501 -3.3515 -6.4835 -12.2335 -12.2247 -8.988 -6.0155 -10.218 -8.078501 -8.205501 -5.9315 -5.199 -8.211 -4.0015 -12.4203 -14.7609 -15.51 -13.1804 -7.8035 -9.291 -8.201 -9.656501 -10.361 -10.7025 -13.8609 -11.5093 -9.901001 -6.476501 -5.014 -10.238 
-14.1862 -13.8167 -8.568501 -5.794001 -8.305501 -12.2335 -15.0312 -14.2432 -9.524 -11.5912 -10.419 -8.446 -11.9463 -5.9315 -8.559501 -8.247001 -12.4203 -17.7077 -17.7399 -21.0024 -13.1804 -13.2685 -13.393 -9.656501 -14.9083 -14.2425 -14.9889 -16.9542 -13.7803 -10.706 -6.718 -11.8464 
-14.9962 -13.8167 -9.184 -10.6735 -14.1631 -15.0312 -17.0497 -14.7792 -15.2175 -11.7922 -10.607 -12.0886 -11.9463 -9.261001 -8.5775 -16.9218 -17.7077 -20.6867 -23.2323 -21.0024 -18.6454 -17.3705 -14.8485 -14.9083 -18.7898 -18.5289 -18.0822 -19.2252 -14.5853 -10.9475 -13.772 
-4.696 -3.6605 -4.7425 -2.742 -4.493 -1.4985 -4.1115 -3.518 -2.742 -3.5185 -5.2115 0 -2.645 -4.493 -1.7565 -4.709 -4.418 0 -4.314 -4.7995 0 -4.1115 -4.314 -2.742 -3.952 -1.7695 -4.975 -4.418 
-7.899 -4.8735 -6.917 -6.047501 -5.347 -4.843 -5.3935 -6.2615 -5.4405 -8.915 -5.2115 -2.645 -7.191 -6.0335 -6.5295 -7.4845 -4.418 -4.314 -8.9375 -4.7995 -4.1115 -8.14 -7.0405 -5.701 -4.9895 -7.2735 -7.097501 
-9.394501 -7.011001 -9.293501 -6.764 -8.6655 -6.882 -7.794001 -8.988501 -10.2485 -8.915 -8.462501 -7.191 -8.5935 -11.4765 -9.0465 -7.4845 -8.831 -8.9375 -8.9375 -8.288 -8.14 -11.5329 -9.311501 -6.4635 -10.0005 -9.189 
-12.3308 -9.384501 -9.731501 -9.663501 -8.787 -8.4595 -10.443 -13.8685 -10.2485 -12.3168 -13.1521 -8.5935 -14.5797 -13.9935 -9.0465 -12.2851 -13.9493 -8.9375 -12.8028 -10.66 -11.5329 -13.8039 -10.5566 -11.7385 -12.2842 
-14.7043 -9.845 -10.3255 -9.794001 -10.7005 -11.6171 -15.323 -13.8685 -13.8435 -17.0064 -14.5546 -14.5797 -17.0967 -13.9935 -13.8569 -17.4034 -13.9493 -12.8028 -15.1748 -15.0113 -13.8039 -15.049 -15.8316 -14.0222 
-2.3335 -3.7685 -4.418 -1.934 -4.8675 -3.8195 -2.4945 -3.908 -2.5045 -2.4285 -3.9615 -1.4985 -5.4455 -3.602 -3.1385 -2.674 -3.1125 -4.625 -5.173 -1.756 -3.4765 -4.493 -2.3345 -5.3945 -2.4285 -5.4015 -4.67 -3.1495 -4.418 0 
-6.4775 -5.571 -6.576 -7.0545 -8.003 -5.551 -4.928 -6.233 -5.42 -5.5375 -4.716 -6.547501 -5.999001 -6.936 -4.8995 -3.6315 -6.6885 -7.9715 -6.5825 -4.5775 -7.364 -5.523 -7.611501 -7.1175 -6.886 -9.384501 -7.464 -7.594501 -4.418 
-9.047501 -7.391 -10.1675 -8.625501 -9.745501 -7.576 -7.2675 -8.401001 -6.1055 -6.102 -8.6475 -6.9715 -9.557 -8.429001 -5.7865 -7.1505 -9.2635 -9.184 -9.282001 -7.9445 -8.329 -9.649 -9.59 -7.7475 -10.3475 -12.3547 -12.351 -7.594501 
-10.495 -10.3605 -10.593 -10.3415 -10.612 -9.7865 -9.445001 -9.0985 -6.4595 -9.559001 -8.709001 -10.426 -11.5588 -9.398001 -8.842 -9.667001 -10.112 -11.9861 -10.443 -8.8295 -12.5982 -12.1197 -10.0625 -10.634 -13.3177 -17.2417 -12.351 
-13.4645 -10.7285 -12.309 -10.769 -12.8225 -12.01 -9.823 -9.316501 -9.646501 -9.603001 -12.2647 -12.4278 -12.5278 -12.6271 -10.5425 -10.294 -13.0101 -13.1471 -11.328 -13.1107 -15.0689 -12.5922 -13.0506 -13.6042 -18.2047 -17.2417 
