-4.759 
n/a 
n/a 
n/a 
n/a 
-4.759 
n/a 
n/a 
n/a 
n/a 
-4.759 
n/a 
n/a 
n/a 
n/a 
-4.759 
n/a 
n/a 
n/a 
n/a 
-2.925 -2.4945 -3.9205 -2.5045 -10.1965 -5.585 
-3.7675 -5.3595 -4.449 -13.6184 -15.7815 
-6.5965 -6.1115 -15.2937 -19.2034 
-7.25 -17.193 -20.8787 
-18.4609 -22.778 
-2.925 -2.4945 -2.5685 -3.8445 -3.534 -4.485 -4.088 
-3.7675 -4.6335 -5.933 -8.252001 -8.807 -6.8725 
-5.5775 -8.684001 -10.0475 -13.754 -11.4697 
-9.737 -12.9967 -15.6365 -16.4167 
-14.1349 -18.5857 -18.2992 
-3.1495 -3.849 -3.8445 -4.16 0 
-8.0795 -7.615001 -6.766 -4.16 
-11.9503 -10.155 -6.766 
-14.4903 -10.155 
-14.4903 
-3.45 -2.4945 -3.849 -8.0415 -8.736 -12.16972 
-5.354 -5.410501 -11.046 -17.1495 -21.28052 
-7.936 -12.9011 -20.154 -29.69402 
-15.4826 -22.0091 -32.69852 
-24.5906 -34.55362 
