-4.759 
n/a 
n/a 
n/a 
n/a 
-4.759 
n/a 
n/a 
n/a 
n/a 
-4.759 
n/a 
n/a 
n/a 
n/a 
-4.759 
n/a 
n/a 
n/a 
n/a 
-7.241 -1.756 -9.288 
-8.0425 -12.0526 
-18.7149 
n/a 
n/a 
-1.934 -3.5905 -4.126 -3.1335 -1.756 -5.547 
-5.709 -7.427 -8.318001 -4.562 -6.4775 
-9.738501 -12.2514 -9.959001 -8.352 
-14.9999 -13.8924 -13.749 
-16.6409 -17.6824 
-1.934 -1.4985 -3.5905 -3.7515 0 -4.352 -4.174 -6.8665 
-2.6125 -4.435 -5.483 -3.7515 -4.352 -8.2675 -10.038 
-5.555 -6.9445 -5.483 -8.9795 -8.2675 -14.5629 
-8.088501 -6.9445 -10.76 -13.205 -14.5629 
-8.088501 -12.7173 -14.9855 -19.5004 
-3.5905 -3.7515 -8.425 -1.756 -9.488001 
-5.483 -13.2925 -9.911 -11.046 
-15.5652 -14.7785 -19.201 
-17.0512 -24.0685 
-26.3412 
