-4.759 
n/a 
n/a 
n/a 
n/a 
-4.759 
n/a 
n/a 
n/a 
n/a 
-4.759 
n/a 
n/a 
n/a 
n/a 
-4.759 
n/a 
n/a 
n/a 
n/a 
-2.872 -3.2615 -1.4985 -4.415 -1.7565 -5.2285 -1.934 -4.893 0 -3.5455 -5.235 0 -4.933 -8.0305 -4.161 -3.152 -4.6525 -2.3345 -3.689 -4.6055 0 -3.535 -1.756 -4.496 -4.3725 -4.161 0 
-5.3645 -4.032 -5.4025 -5.449501 -6.762001 -6.687 -6.1405 -4.893 -3.5455 -8.6525 -5.235 -4.933 -10.907 -12.8087 -6.722 -6.351501 -5.126 -6.395 -5.6545 -4.6055 -3.535 -5.054 -5.866 -8.218 -9.410001 -4.161 
-6.353 -7.0895 -5.7235 -10.5745 -7.991001 -11.5991 -6.1405 -8.2355 -8.6525 -8.6525 -10.8844 -10.907 -15.6852 -15.3697 -9.092501 -6.706 -8.2985 -8.5155 -5.6545 -7.015 -5.054 -9.75 -9.433001 -13.7113 -9.410001 
-9.2605 -7.199 -11.0299 -11.8035 -13.2539 -11.5991 -8.646501 -13.8955 -8.6525 -14.4613 -16.8584 -15.6852 -18.2462 -17.7402 -9.9235 -9.5165 -9.401501 -8.5155 -9.343 -9.565001 -9.75 -13.3352 -15.0461 -13.7113 
-9.376 -12.8112 -12.2589 -17.0664 -13.2539 -14.1051 -14.5065 -13.8955 -14.4613 -20.4353 -21.6366 -18.2462 -20.6167 -18.5712 -12.8236 -10.704 -9.401501 -12.4326 -10.534 -14.2042 -13.3352 -18.9483 -15.0461 
-2.872 0 -3.433 -1.7565 -1.4985 -4.719 -1.7565 -5.7925 -1.756 -4.8225 -1.934 -4.893 0 -4.5825 -4.237 -4.389 -3.9535 -3.8255 -4.6525 -2.3345 -3.689 -4.6055 0 -3.535 -1.756 -3.9555 -4.8225 -4.69 -4.161 0 -1.934 -1.4985 -12.16972 0 
-2.872 -3.433 -4.1845 -2.4195 -5.1445 -5.865 -6.9925 -6.9185 -6.256 -6.395 -6.1405 -4.893 -4.5825 -8.675 -7.303 -8.446001 -6.237 -8.06 -5.126 -6.395 -5.6545 -4.6055 -3.535 -5.054 -5.41 -8.837 -9.7885 -8.91 -4.161 -1.934 -2.6125 -14.76202 -12.16972 
-5.412001 -4.1845 -4.6515 -5.420001 -6.031 -9.17 -8.0555 -9.703501 -7.7335 -11.2125 -6.1405 -9.9355 -8.675 -9.918 -12.0078 -10.2985 -10.259 -8.540501 -8.2985 -8.5155 -5.6545 -7.015 -5.054 -7.313 -10.27 -14.0298 -14.0591 -8.91 -5.7625 -2.6125 -16.27022 -14.76202 
-6.0505 -4.6515 -9.007 -7.469 -9.177501 -10.3545 -10.609 -11.181 -12.7914 -11.2125 -11.6246 -14.0582 -9.918 -14.7074 -13.8603 -14.5395 -10.4435 -11.7944 -9.401501 -8.5155 -9.343 -9.565001 -7.313 -12.886 -15.4628 -18.3004 -14.0591 -10.575 -6.4115 -16.27022 -16.27022 
-6.430501 -9.007 -9.074 -10.8389 -10.368 -13.1068 -12.0865 -16.2389 -12.7914 -16.6966 -15.7473 -15.3012 -14.7074 -16.5599 -18.1013 -14.724 -13.9696 -12.8974 -9.401501 -12.4326 -10.534 -11.7672 -12.886 -18.0788 -19.7334 -18.3004 -15.7241 -11.224 -20.79142 -16.27022 
-4.161 -3.3425 -4.851 -5.02 -2.5045 -2.985 -3.992 -4.16 -3.152 -1.934 -2.9645 -4.173 -1.4985 -5.369 0 -2.872 -2.3345 -1.4985 -5.235 -3.251 -3.1125 -4.796 -4.6525 -2.3345 -8.941 -4.389 0 -2.9705 -3.152 -4.449 0 -4.496 0 -5.0195 -1.7695 -4.3245 0 -3.6005 -3.689 -3.519 
-6.7445 -7.695001 -6.955 -7.366501 -5.065001 -6.8695 -7.493 -6.6365 -4.9115 -5.036 -6.7685 -4.3745 -5.679 -5.369 -2.872 -5.3575 -3.233 -5.5435 -7.962501 -4.28 -6.309 -7.4095 -5.126 -10.8855 -11.9205 -4.389 -2.9705 -5.007 -6.921 -4.449 -4.496 -4.496 -5.0195 -6.2095 -4.714 -4.3245 -3.6005 -7.3765 -6.454 
-10.368 -8.756001 -9.067 -9.709001 -8.803 -10.328 -10.1185 -8.3015 -7.178 -7.658501 -6.9535 -7.755001 -5.679 -7.413001 -5.3575 -5.9865 -7.405001 -8.1485 -8.948501 -7.417 -7.986 -7.7985 -11.948 -12.199 -10.0885 -6.7095 -5.007 -8.727001 -6.921 -6.837501 -4.496 -6.703501 -6.2095 -7.565001 -4.714 -8.282001 -7.3765 -9.496 
-10.3865 -10.3045 -10.31 -10.6115 -10.5755 -10.6075 -10.6155 -10.2805 -9.174 -7.782501 -10.1895 -7.755001 -7.5435 -9.257501 -5.9865 -8.771001 -9.407001 -9.122001 -10.543 -9.289001 -8.124001 -11.031 -11.109 -10.6945 -10.6935 -8.142 -8.727001 -8.727001 -9.836 -6.837501 -6.703501 -9.3155 -7.565001 -7.565001 -8.587001 -10.575 -9.496 
-10.6705 -10.6705 -10.6195 -10.656 -10.6165 -10.639 -10.6355 -10.6305 -9.354 -10.2695 -10.1895 -9.593 -9.355 -9.461 -8.771001 -10.2745 -10.427 -10.5865 -10.691 -9.3435 -10.7245 -10.863 -10.7135 -10.7185 -10.7175 -10.6335 -8.727001 -10.233 -9.836 -8.649 -9.3155 -10.3895 -7.565001 -10.66 -10.5745 -10.6045 
-3.2615 -5.3205 -4.8225 -3.2615 -4.893 0 -9.175501 -4.161 -3.152 -4.6525 -2.3345 -3.535 -4.161 
-6.7425 -11.2752 -7.9055 -8.098001 -4.893 -9.175501 -13.4215 -6.722 -6.351501 -5.126 -6.0395 -7.605 
-13.2948 -14.3582 -12.9856 -8.098001 -14.6753 -13.4215 -15.9825 -9.092501 -6.706 -8.5315 -9.828 
-16.3778 -19.4383 -12.9856 -18.3453 -18.9213 -15.9825 -18.353 -9.9235 -9.508 -12.3018 
-21.4579 -19.4383 -23.2329 -22.5913 -21.4823 -18.353 -19.184 -12.8151 -13.2783 
