-4.759 
n/a 
n/a 
n/a 
n/a 
-4.759 
n/a 
n/a 
n/a 
n/a 
-4.759 
n/a 
n/a 
n/a 
n/a 
-4.759 
n/a 
n/a 
n/a 
n/a 
-7.1715 -1.4985 -3.7515 -5.1375 -9.393001 
-9.306 -4.4675 -8.390501 -15.5313 
-12.2914 -8.455 -18.9043 
-16.2789 -18.9858 
-26.8097 
-3.135 -3.326 -2.3615 -3.992 -1.7695 -3.429 -2.6165 -3.818 0 
-5.9565 -5.811 -6.0885 -6.3305 -4.032 -7.1675 -5.5565 -3.818 
-8.389501 -10.0675 -8.014501 -8.746 -7.955 -10.564 -5.5565 
-13.1672 -12.2157 -10.5745 -12.7752 -11.6657 -10.564 
-15.3154 -14.7757 -15.0219 -16.4859 -11.6657 
-3.7375 -3.74 -3.43 -2.3615 -3.909 -2.5045 -4.089 -3.402 -2.264 -3.1495 -3.74 -1.4985 -3.6615 -1.934 -1.4985 -3.7075 -2.742 -4.0045 -1.4985 -4.2485 -1.7565 -4.4515 -2.7415 -3.689 -4.554 0 
-8.8545 -7.5015 -5.467 -5.6025 -6.237 -6.7345 -8.0275 -3.793 -4.869 -7.77 -5.471 -4.9455 -4.437 -2.6125 -4.6235 -6.513 -6.0855 -5.490001 -5.307 -5.5065 -6.639 -6.620001 -5.778 -8.692 -4.554 
-12.9136 -9.9355 -8.871 -7.5315 -10.6465 -9.9645 -8.078501 -5.9755 -9.3625 -9.6435 -8.9545 -5.731 -5.0245 -5.5835 -6.744 -10.292 -6.6285 -9.333501 -5.982501 -10.757 -9.468 -9.9055 -10.4115 -8.692 
-15.3476 -13.3395 -11.0304 -12.2224 -13.8765 -9.991 -10.4425 -9.52 -10.565 -13.127 -9.339001 -6.1885 -8.0555 -8.303 -10.9706 -10.835 -10.634 -9.8345 -11.8208 -13.586 -12.7535 -14.6354 -10.4115 
-18.7516 -15.4989 -15.7213 -15.4524 -13.903 -12.5846 -13.987 -10.648 -14.0485 -13.5115 -9.862 -9.2665 -11.5238 -12.5208 -11.5136 -14.8405 -11.135 -15.7326 -14.6498 -16.8715 -17.4834 -14.6354 
-3.135 -5.9155 -2.8645 -3.43 -2.3615 -4.3925 -8.0235 -1.7695 -3.1495 -5.9155 -1.4985 -3.6605 -4.7425 -3.851 -1.7695 -1.4985 -3.7075 -2.229 -4.824 -2.186 -4.3765 -3.6845 -3.1435 -3.518 0 
-7.968 -8.866501 -4.9155 -5.467 -8.697001 -13.4875 -7.922 -4.7475 -7.861501 -7.2435 -4.6365 -4.8735 -7.663 -4.0015 -2.7955 -4.6235 -5.5255 -7.3365 -6.8365 -5.313 -8.305 -6.523 -6.6615 -3.518 
-10.76 -11.0521 -6.7085 -12.1063 -17.9892 -13.5775 -10.545 -9.626 -9.437 -10.134 -6.350501 -7.9505 -7.6725 -4.5775 -5.974 -5.9985 -9.697001 -9.551001 -9.314501 -9.1225 -11.3607 -8.374001 -6.6615 
-12.9456 -12.8451 -13.6198 -21.3985 -18.0042 -16.0345 -14.3195 -11.2401 -12.3275 -12.058 -9.548 -7.9595 -8.5015 -8.0675 -7.152 -9.7305 -10.762 -12.029 -13.6576 -12.1198 -13.2117 -8.374001 
-14.7386 -19.7564 -22.912 -21.4135 -20.4612 -19.9655 -15.9336 -14.1306 -14.2515 -15.2555 -9.552501 -8.8255 -10.1845 -8.700001 -11.3894 -10.8083 -13.24 -16.3721 -16.6549 -13.9708 -13.2117 
