-4.759 
n/a 
n/a 
n/a 
n/a 
-4.759 
n/a 
n/a 
n/a 
n/a 
-4.759 
n/a 
n/a 
n/a 
n/a 
-4.759 
n/a 
n/a 
n/a 
n/a 
-4.1455 -5.0195 -2.7415 -4.4715 -3.8825 
-9.3405 -7.845 -6.1835 -8.257501 
-12.7088 -11.44 -9.448501 
-16.3038 -14.705 
-19.5688 
-8.27 -3.564 -3.9235 -2.7415 -5.077 -2.3345 -1.4985 -5.891 -3.2 -1.756 -4.1455 -5.5195 0 
-12.2608 -6.471 -6.377501 -6.539001 -5.3265 -3.233 -6.9925 -6.864 -4.5345 -6.169 -7.424 -5.5195 
-15.1678 -8.8855 -10.1855 -6.6095 -5.839 -8.689 -7.262001 -7.936501 -8.7475 -8.797501 -7.424 
-17.5823 -12.7633 -10.2665 -7.0915 -10.564 -9.087501 -8.245501 -12.4413 -12.1036 -8.797501 
-21.4601 -12.8443 -10.6505 -11.9393 -10.778 -10.0445 -12.8223 -15.7974 -12.1036 
-8.863001 -3.564 -4.7615 -5.2495 -4.763 -1.756 -6.041 -3.5435 -1.7695 -4.4905 -1.4985 -4.7135 0 
-13.011 -9.872 -11.5018 -10.523 -6.161 -7.097 -11.117 -5.157001 -4.851 -5.5705 -6.799001 -4.7135 
-19.319 -16.6503 -16.7753 -11.921 -12.0936 -12.632 -12.7305 -8.671 -5.8295 -11.5578 -6.799001 
-26.0973 -21.9238 -18.1733 -17.8536 -17.6286 -14.2455 -16.2445 -9.975 -11.9024 -11.5578 
-31.3708 -23.3218 -24.1059 -23.3886 -19.2421 -17.7595 -17.5485 -16.0479 -11.9024 
-5.1845 -3.8475 -4.0395 -2.186 -3.402 -3.893 -5.891 -3.2 -1.756 -6.4995 
-8.566501 -8.309501 -5.584001 -4.6135 -4.995 -9.717001 -6.864 -4.5345 -7.6755 
-13.1481 -9.9665 -7.595 -5.8165 -10.0375 -10.7202 -7.936501 -10.238 
-14.8051 -11.9775 -8.773001 -11.1472 -11.0407 -11.7927 -10.703 
-16.8161 -13.1555 -14.3861 -12.1504 -12.1132 -14.5592 
