-4.759 
n/a 
n/a 
n/a 
n/a 
-4.759 
n/a 
n/a 
n/a 
n/a 
-4.759 
n/a 
n/a 
n/a 
n/a 
-4.759 
n/a 
n/a 
n/a 
n/a 
-9.6215 -4.953 -3.326 -4.584 0 -3.9415 0 
-14.9321 -8.468 -8.534 -4.584 -3.9415 -3.9415 
-18.4471 -14.2232 -8.534 -8.9575 -3.9415 
-24.2023 -14.2232 -13.2511 -8.9575 
-24.2023 -18.9403 -13.2511 
-5.87 -4.456 -1.934 -9.6215 0 -3.326 -3.522 0 -3.9415 0 
-10.419 -5.749001 -12.5619 -9.6215 -3.326 -6.38 -3.522 -3.9415 -3.9415 
-11.9678 -16.8557 -12.5619 -13.3051 -6.38 -6.38 -8.06 -3.9415 
-23.0745 -16.8557 -16.2455 -16.3591 -6.38 -11.1812 -8.06 
-23.0745 -20.5393 -19.2995 -16.3591 -11.1812 -11.1812 
-3.723 -3.6185 -1.7565 -9.819 0 -4.867 0 0 -3.9415 
-7.948001 -5.093 -10.884 -9.819 -4.867 -4.867 0 -3.9415 
-8.818501 -14.7779 -10.884 -14.8182 -4.867 -4.867 -3.9415 
-18.5358 -14.7779 -15.8832 -14.8182 -4.867 -9.1005 
-18.5358 -19.7771 -15.8832 -14.8182 -9.1005 
-12.16972 -2.229 -4.245 -3.84 0 -3.8625 0 -3.9415 0 
-14.39872 -5.976501 -9.1155 -3.84 -3.8625 -3.8625 -3.9415 -3.9415 
-18.14622 -11.379 -9.1155 -8.218 -3.8625 -8.206501 -3.9415 
-23.54872 -11.379 -13.7497 -8.218 -8.206501 -8.206501 
-23.54872 -16.0132 -13.7497 -12.8616 -8.206501 
