-4.759 
n/a 
n/a 
n/a 
n/a 
-4.759 
n/a 
n/a 
n/a 
n/a 
-4.759 
n/a 
n/a 
n/a 
n/a 
-4.759 
n/a 
n/a 
n/a 
n/a 
-3.0835 -4.96 0 -3.564 -3.1335 
-9.0105 -4.96 -3.564 -5.803 
-9.0105 -8.832001 -5.803 
-13.1161 -11.5966 
-15.8807 
-3.0835 -3.383 -3.564 -3.681 
-7.198501 -7.075 -8.023001 
-11.1367 -10.5225 
-14.5842 
n/a 
-3.8175 -3.7425 0 -3.564 -4.5675 
-7.5125 -3.7425 -3.564 -7.2445 
-7.5125 -7.6975 -7.2445 
-11.9569 -11.8684 
-16.1278 
-3.0835 -3.522 0 -3.354 -2.925 -1.7565 -3.288 -5.398 0 
-6.3975 -3.522 -3.354 -4.3775 -4.898 -5.0755 -7.5195 -5.398 
-6.3975 -7.728001 -4.3775 -6.495 -7.948501 -8.5795 -7.5195 
-10.0675 -8.6215 -6.495 -9.690001 -11.8441 -8.5795 
-10.36 -11.2696 -9.690001 -13.8142 -11.8441 
