-4.759 
n/a 
n/a 
n/a 
n/a 
-4.759 
n/a 
n/a 
n/a 
n/a 
-4.759 
n/a 
n/a 
n/a 
n/a 
-4.759 
n/a 
n/a 
n/a 
n/a 
-2.915 -3.433 -4.4075 -2.4945 -4.06 -1.934 -3.502 -5.3885 
-4.682 -7.127501 -6.529 -5.1305 -4.483 -4.8155 -8.005 
-7.732 -9.1035 -8.0235 -5.5445 -6.786001 -9.203501 
-10.9742 -10.4765 -8.487 -8.0495 -10.354 
-12.3472 -10.94 -10.688 -11.8065 
-2.915 -3.433 -4.328 -2.4945 -3.0365 -1.934 -4.1225 -5.3885 
-4.682 -7.875 -5.9755 -4.952001 -5.238 -5.261 -9.4835 
-8.465501 -9.650001 -8.81 -6.545001 -8.852501 -10.322 
-11.2153 -12.5827 -10.1385 -10.3745 -14.1147 
-14.148 -13.9112 -13.968 -15.8387 
-3.0365 -2.4945 -2.915 -3.433 -3.9235 -2.229 -1.934 -5.3885 0 
-3.688 -6.8725 -4.682 -7.108 -5.252 -4.573 -6.4035 -5.3885 
-7.82 -8.3055 -8.070001 -9.533001 -8.355 -9.673 -6.4035 
-9.910501 -11.9417 -10.5425 -12.7032 -13.8786 -9.673 
-13.5467 -14.4142 -13.7127 -18.2268 -13.8786 
-2.915 -3.433 -3.655 -2.4945 -3.0365 -1.934 -3.502 -5.3885 
-4.682 -5.9025 -6.1695 -4.952001 -5.238 -4.8155 -8.005 
-6.684 -8.718 -8.544001 -6.545001 -8.421 -9.203501 
-9.368501 -11.1829 -10.2822 -9.232 -12.9258 
-11.9446 -12.9211 -12.9692 -14.1132 
