-4.759 
n/a 
n/a 
n/a 
n/a 
-4.759 
n/a 
n/a 
n/a 
n/a 
-4.759 
n/a 
n/a 
n/a 
n/a 
-4.759 
n/a 
n/a 
n/a 
n/a 
-3.1495 -2.4945 -3.849 -4.7315 
-4.459 -5.410501 -8.927501 
-6.775001 -9.9355 
-11.3752 
n/a 
-2.4265 -2.186 -3.264 -1.7695 -2.489 -4.7315 
-3.292 -5.316 -4.908 -3.1405 -9.120501 
-5.862 -5.572 -5.5165 -9.820001 
-6.729 -5.9005 -12.3336 
-7.047 -12.8834 
-3.1495 -2.4945 -3.849 -4.7315 0 
-4.459 -5.410501 -8.927501 -4.7315 
-6.775001 -9.9355 -8.927501 
-11.3752 -9.9355 
-11.3752 
-3.1495 -2.4945 -3.849 -4.7315 0 
-4.459 -5.410501 -8.927501 -4.7315 
-6.775001 -9.9355 -8.927501 
-11.3752 -9.9355 
-11.3752 
