-4.759 
n/a 
n/a 
n/a 
n/a 
-4.759 
n/a 
n/a 
n/a 
n/a 
-4.759 
n/a 
n/a 
n/a 
n/a 
-4.759 
n/a 
n/a 
n/a 
n/a 
-2.3345 -1.4985 -3.3755 -1.7565 -4.031 -1.7565 -3.913 -1.934 -1.4985 -4.3685 -3.8275 -2.3345 -1.4985 -3.9725 -5.503 0 -1.4985 -3.685 -1.7565 -3.7575 -4.157 -2.985 -3.976 0 
-3.233 -4.057 -4.5295 -5.849501 -5.571 -5.5535 -5.704 -2.6125 -5.106 -8.0375 -6.005 -3.233 -4.88 -9.265 -5.503 -1.4985 -4.771501 -4.5825 -5.635 -8.561001 -6.2865 -6.821 -3.976 
-5.0435 -5.3375 -8.7095 -8.258 -9.718 -7.0905 -6.306 -6.0625 -9.426001 -10.7495 -7.1915 -6.5265 -10.1345 -9.265 -7.378 -4.771501 -5.532001 -9.153001 -9.961501 -10.634 -8.758 -6.821 
-7.0785 -8.9445 -10.513 -12.467 -11.6928 -7.627 -9.723001 -10.2645 -12.24 -11.936 -9.9505 -12.2046 -10.1345 -11.2678 -11.0336 -5.532001 -9.594501 -13.7193 -12.2703 -13.1055 -8.758 
-10.2695 -10.6605 -14.722 -14.4418 -12.2293 -11.3194 -14.0208 -13.2349 -13.4265 -14.695 -15.8658 -12.2046 -12.1373 -14.9234 -11.7941 -9.594501 -14.2854 -16.0281 -14.7418 -13.1055 
-7.034 -3.9725 -3.9535 -3.8275 -3.091 -5.788 -2.7455 -3.091 -3.72 
-10.8625 -8.2155 -8.502501 -7.0305 -10.564 -9.374001 -5.024 -6.968 
-15.1055 -13.0551 -12.0939 -14.7661 -14.15 -11.6241 -8.1155 
-19.9451 -16.6465 -19.8295 -18.3521 -16.4001 -14.7156 
-23.5365 -24.3821 -23.4155 -20.6022 -19.4916 
-2.0935 -1.4985 -4.031 -1.7565 -3.441 -3.851 -1.7695 -1.4985 -4.5665 -3.8755 -2.3345 -5.503 0 -2.3615 -4.0375 -2.7415 -6.0215 -2.925 0 
-2.9725 -4.771 -5.571 -5.19 -7.548 -4.0015 -2.7955 -5.3625 -8.347 -4.4955 -7.0835 -5.503 -2.3615 -6.665501 -6.4715 -8.219501 -6.6315 -2.925 
-6.4255 -6.571 -9.34 -8.6355 -7.660501 -4.5775 -6.7225 -8.9875 -8.816 -9.003501 -7.0835 -8.521501 -6.665501 -7.957001 -12.2959 -8.3405 -6.6315 
-7.544 -10.0305 -12.9213 -8.689 -8.099501 -7.6625 -10.411 -9.2325 -13.5852 -9.003501 -9.82 -12.9515 -7.957001 -14.2568 -12.4169 -8.3405 
-10.199 -13.6118 -12.9748 -9.142 -10.298 -12.1774 -10.4315 -14.0413 -13.5852 -12.0318 -14.25 -14.243 -14.2568 -14.3778 -12.4169 
-1.4985 -5.847 -2.186 -6.364501 -3.8275 -1.934 -4.0375 -6.0525 -4.1 -1.7565 -4.0375 -3.383 -3.814 0 
-7.42 -8.093 -9.201 -9.373001 -5.2615 -6.212 -11.0806 -11.2373 -5.164001 -5.9705 -8.310501 -8.767 -3.814 
-9.674001 -15.3754 -12.4247 -10.758 -10.2185 -14.1427 -16.2654 -12.3013 -10.0925 -9.207001 -14.0693 -8.767 
-16.8968 -18.5991 -13.8097 -15.715 -18.1492 -19.3275 -17.3294 -17.2298 -13.329 -16.139 -14.0693 
-20.1205 -19.9841 -18.7667 -23.6457 -23.334 -20.3915 -22.2579 -20.4663 -20.261 -16.139 
