-4.759 
n/a 
n/a 
n/a 
n/a 
-4.759 
n/a 
n/a 
n/a 
n/a 
-4.759 
n/a 
n/a 
n/a 
n/a 
-4.759 
n/a 
n/a 
n/a 
n/a 
-5.3885 -4.256 -2.356 -2.5685 -3.699 -4.167 -1.7565 -3.8735 -3.3255 -4.905 0 
-11.1415 -5.265 -4.4635 -5.973001 -7.2945 -5.5915 -5.112 -7.1315 -8.738501 -4.905 
-12.1505 -7.717 -8.071501 -9.059501 -8.064 -7.342501 -7.9925 -12.8289 -8.738501 
-14.6025 -10.1105 -10.1675 -9.578501 -9.3205 -9.862501 -13.9277 -12.8289 
-16.996 -10.3945 -10.466 -9.953501 -12.0551 -15.9545 -13.9277 
-1.4985 -3.699 -4.167 -1.934 -3.8735 -3.152 -4.4475 -1.7695 -5.3885 -3.3255 -4.905 -3.6185 0 
-5.264 -7.2945 -5.437 -4.885 -7.113 -6.6965 -4.769 -7.072001 -8.566 -8.738501 -6.9345 -3.6185 
-8.4175 -7.902 -7.276501 -7.689001 -10.5035 -6.92 -10.7175 -10.181 -14.5918 -10.5535 -6.9345 
-9.038 -9.3745 -10.1145 -11.1407 -10.727 -13.1517 -13.8265 -16.2068 -16.4068 -10.5535 
-10.172 -12.3921 -13.5662 -11.3642 -16.9587 -16.2607 -19.8523 -18.0218 -16.4068 
-3.699 -4.167 -1.7565 -3.8735 -3.152 -4.4475 -1.7695 -5.3885 -3.3255 -4.985 
-7.2945 -5.5915 -5.112 -7.113 -6.6965 -4.769 -7.072001 -8.566 -7.986 
-8.064 -7.342501 -8.047001 -10.5035 -6.92 -10.7175 -10.181 -13.8393 
-9.3205 -10.223 -11.5371 -10.727 -13.1517 -13.8265 -15.4543 
-12.4156 -13.8591 -11.7606 -16.9587 -16.2607 -19.0998 
-3.699 -4.167 -1.7565 -3.8735 -4.256 -2.356 -5.3885 -3.3255 -4.3395 0 
-7.2945 -5.5915 -5.112 -9.0985 -5.265 -8.4215 -8.566 -7.709001 -4.3395 
-8.064 -7.342501 -9.9805 -9.5045 -9.948 -11.917 -13.5623 -7.709001 
-9.3205 -12.8642 -10.6925 -14.7579 -13.5925 -16.9133 -13.5623 
-15.0568 -13.5762 -15.9459 -18.4024 -18.5888 -16.9133 
