-4.759 
n/a 
n/a 
n/a 
n/a 
-4.759 
n/a 
n/a 
n/a 
n/a 
-4.759 
n/a 
n/a 
n/a 
n/a 
-4.759 
n/a 
n/a 
n/a 
n/a 
-2.3615 -4.2605 -7.692 -3.908 -1.4985 -3.6885 -2.7455 -4.0385 -3.757 -3.098 -3.6885 0 
-5.3675 -12.9345 -12.2206 -5.3985 -4.307 -6.5065 -6.7565 -6.476501 -7.212501 -7.531 -3.6885 
-14.2593 -17.4631 -13.7111 -7.9005 -7.562 -11.0151 -9.783001 -10.2645 -12.0331 -7.531 
-18.7879 -18.9536 -16.2131 -11.3757 -12.3452 -14.0416 -13.571 -15.0851 -12.0331 
-20.2784 -21.4556 -19.6883 -16.1589 -15.3717 -17.8296 -18.3916 -15.0851 
-2.5045 -2.3615 -2.95 -7.692 -4.6505 -3.0695 -1.7695 -2.489 -1.8085 -3.301 -3.757 
-4.3105 -4.4645 -10.9575 -12.9631 -7.853001 -5.792 -3.1405 -3.799 -4.019 -7.9065 
-4.89 -12.7512 -16.2286 -16.1656 -10.0885 -7.7295 -4.2615 -5.2205 -8.384001 
-13.3279 -18.0223 -19.4311 -18.4011 -12.446 -9.284 -5.917 -9.586 
-18.599 -21.2248 -21.6666 -20.7586 -14.0005 -10.9979 -10.476 
-2.3615 -2.95 -4.681 -7.3025 -4.1585 -3.0695 -2.186 -4.1925 -3.757 
-4.4645 -7.867001 -9.661 -12.4488 -7.578 -4.2675 -6.559 -8.220501 
-9.9615 -13.0992 -14.8145 -15.8683 -8.785501 -9.106 -11.1984 
-15.1937 -18.2527 -18.234 -17.0758 -13.8262 -14.1168 
-20.3472 -21.6722 -19.4415 -22.1165 -18.837 
-1.934 -2.3615 -4.2605 -4.681 -8.747001 -3.8055 -3.3365 -3.935 -2.0935 -3.0695 -2.186 -1.4985 -4.4665 -3.757 
-3.539 -5.3675 -9.739 -11.1415 -13.2767 -7.6785 -6.449 -5.8685 -6.0085 -4.2675 -3.339 -4.729 -6.8335 
-5.869 -11.0638 -16.2527 -15.6712 -17.1497 -9.844001 -8.432 -10.1765 -7.218 -5.455 -5.893 -7.3855 
-11.6737 -17.5775 -20.7824 -19.5442 -19.3152 -10.273 -13.0986 -11.4988 -8.320001 -7.738 -7.7235 
-18.1874 -22.1072 -24.6554 -21.7097 -19.7442 -16.1068 -14.4209 -12.6008 -10.3475 -9.7865 
