-4.759 
n/a 
n/a 
n/a 
n/a 
-4.759 
n/a 
n/a 
n/a 
n/a 
-4.759 
n/a 
n/a 
n/a 
n/a 
-4.759 
n/a 
n/a 
n/a 
n/a 
-5.6815 -2.229 -4.559 -2.4285 -3.098 -4.559 -3.757 -2.3335 -2.4265 -2.186 -1.4985 -5.101 -3.098 -1.7565 -1.4985 -3.6885 -3.8375 -1.7565 -1.4985 -4.065 -3.8745 0 
-7.237501 -7.0165 -6.9805 -5.8435 -8.2585 -8.658501 -4.6275 -3.913 -3.292 -3.339 -5.9925 -7.485001 -4.3615 -2.4195 -4.992001 -7.3355 -5.3875 -2.4195 -4.824 -7.5395 -3.8745 
-12.497 -9.446001 -10.5635 -11.3708 -12.787 -9.3805 -6.0565 -4.5215 -4.5995 -7.8675 -8.56 -8.809501 -4.731 -5.863 -8.0825 -8.399 -6.6105 -5.555 -7.72 -7.5395 
-14.9265 -13.0324 -16.0908 -15.8993 -13.509 -10.759 -6.517 -5.8585 -9.2305 -9.719501 -8.960001 -9.131001 -8.8765 -8.776501 -8.510501 -9.705501 -9.1735 -8.1785 -7.72 
-18.5129 -18.5597 -20.6193 -16.6213 -14.8875 -11.2195 -8.076 -10.702 -11.1335 -10.006 -9.216001 -13.8683 -10.2645 -9.044001 -10.304 -12.3057 -12.6182 -8.1785 
-4.559 -2.186 -1.4985 -3.098 -3.7855 -2.0935 -1.4985 -4.4665 -3.8375 -1.7565 -4.065 -3.8745 0 
-6.393 -3.339 -4.3095 -6.12 -5.6715 -2.9725 -4.729 -7.999001 -5.3875 -5.305501 -7.5395 -3.8745 
-7.6105 -5.6145 -6.6405 -8.231 -6.3275 -6.5865 -8.250501 -8.759501 -9.774 -9.726001 -7.5395 
-9.484 -7.017 -8.648001 -8.726 -10.0005 -10.477 -8.873 -13.7148 -14.3547 -9.726001 
-10.059 -9.2275 -9.0305 -12.5388 -14.0806 -11.0995 -13.8379 -18.2955 -14.3547 
-5.6815 -4.559 0 -2.4285 -3.098 -4.559 0 -2.186 -1.4985 -3.098 -1.7565 -1.4985 -4.4665 -3.8375 -3.9225 -2.5685 -1.4985 -4.065 -3.8745 
-9.9305 -4.559 -2.4285 -5.8435 -8.2585 -4.559 -2.186 -3.339 -4.3095 -4.3615 -2.4195 -4.729 -7.999001 -8.045 -5.686 -3.7015 -4.824 -7.5395 
-9.9305 -6.9805 -5.8435 -11.3708 -8.2585 -6.393 -3.339 -5.6145 -4.5915 -4.731 -5.4655 -8.250501 -10.4265 -10.1555 -6.399 -7.476 -7.72 
-12.7426 -10.5635 -11.3708 -11.3708 -9.79 -7.6105 -5.6145 -5.7375 -4.858 -8.991 -9.540001 -10.476 -12.9912 -10.5405 -10.4415 -10.1945 
-16.3256 -16.0908 -11.3708 -12.9023 -11.1317 -9.484 -5.7375 -5.9415 -9.045 -10.5535 -11.6885 -13.0309 -13.3762 -14.583 -13.16 
-7.036 -4.559 -2.4285 -3.098 -4.559 -2.186 -1.4985 -5.101 -3.098 -1.7565 -1.4985 -4.4665 -4.065 -3.8375 
-12.3712 -6.9805 -5.8435 -8.2585 -6.393 -3.339 -5.9925 -7.485001 -4.3615 -2.4195 -4.729 -8.305 -8.196 
-14.7927 -10.5635 -11.3708 -9.79 -7.6105 -7.8675 -8.56 -8.809501 -4.731 -5.4655 -8.4505 -12.8144 
-18.3757 -16.0908 -12.9023 -11.1317 -12.5098 -9.719501 -8.960001 -9.131001 -8.991 -8.929001 -13.0041 
-23.903 -17.6223 -14.244 -16.031 -14.3618 -10.006 -9.216001 -13.9828 -12.6069 -13.7464 
