-4.759 
n/a 
n/a 
n/a 
n/a 
-4.759 
n/a 
n/a 
n/a 
n/a 
-4.759 
n/a 
n/a 
n/a 
n/a 
-4.759 
n/a 
n/a 
n/a 
n/a 
-3.508 -3.2815 -7.271 0 -4.3625 
-5.406 -10.985 -7.271 -4.3625 
-14.2647 -10.985 -10.1855 
-14.2647 -13.8995 
-17.1792 
-8.811501 0 -7.271 -2.186 -1.8085 -6.137 -4.3625 
-8.811501 -7.271 -9.615001 -3.164 -7.545 -9.4245 
-16.6887 -9.615001 -10.4875 -9.403001 -11.6009 
-19.0327 -10.4875 -16.7265 -13.5321 
-19.9052 -16.7265 -20.8556 
-3.508 -3.2815 -7.271 0 -4.3625 
-5.406 -10.985 -7.271 -4.3625 
-14.2647 -10.985 -10.1855 
-14.2647 -13.8995 
-17.1792 
-3.508 -3.2815 -7.271 0 -4.3625 0 -3.002 0 
-5.406 -10.985 -7.271 -4.3625 -4.3625 -3.002 -3.002 
-14.2647 -10.985 -10.1855 -4.3625 -7.384 -3.002 
-14.2647 -13.8995 -10.1855 -7.384 -7.384 
-17.1792 -13.8995 -13.9748 -7.384 
