-4.759 
n/a 
n/a 
n/a 
n/a 
-4.759 
n/a 
n/a 
n/a 
n/a 
-4.759 
n/a 
n/a 
n/a 
n/a 
-4.759 
n/a 
n/a 
n/a 
n/a 
-3.2615 -4.5065 -1.4985 -4.698 -3.8275 -1.934 -6.6585 0 -3.17 -1.7565 -4.9225 -2.4945 -5.3905 -1.7695 -3.691 0 -3.676 0 -4.065 0 -3.982 -3.959 0 -3.9465 0 -3.982 0 -4.3935 0 -4.497 -1.756 -4.4925 
-7.6575 -6.0595 -6.1455 -9.300001 -5.2615 -7.809 -6.6585 -3.17 -4.179 -6.4125 -6.9525 -7.002 -6.104 -5.5435 -3.691 -3.676 -3.676 -4.065 -4.065 -3.982 -5.6075 -3.959 -3.9465 -3.9465 -3.982 -3.982 -4.3935 -4.3935 -4.497 -6.25 -6.401 
-8.818501 -10.9821 -10.3675 -10.9128 -9.859 -7.809 -10.6605 -4.179 -9.287001 -8.7425 -11.778 -7.669001 -9.6815 -5.5435 -7.554 -3.676 -7.398 -4.065 -7.1785 -5.6075 -5.6075 -6.8835 -3.9465 -4.7935 -3.982 -6.772 -4.3935 -7.762501 -6.25 -7.4215 
-13.8485 -15.2041 -11.9803 -15.5103 -9.859 -12.2682 -11.6695 -9.287001 -10.3685 -13.6556 -12.445 -11.5697 -9.6815 -9.253 -7.554 -7.398 -7.398 -7.1785 -10.543 -5.6075 -8.137 -6.8835 -4.7935 -4.7935 -6.772 -6.772 -7.762501 -8.7545 -7.4215 
-18.0705 -16.8169 -16.5778 -15.5103 -14.3758 -13.2772 -16.7775 -10.3685 -15.2816 -14.3226 -16.3457 -11.5697 -13.6162 -9.253 -11.9646 -7.398 -10.0645 -10.543 -10.543 -8.137 -8.137 -7.160501 -4.7935 -7.651 -6.772 -8.9195 -8.7545 -9.913501 
-4.5065 -1.934 -6.6585 -3.851 -1.7695 -4.058 -3.8275 -3.845 -1.7565 -6.844 -5.1845 -3.1385 -4.339 -1.7695 -3.8655 0 -3.691 0 -3.676 -3.959 0 -3.982 -3.959 -3.115 -4.559 0 -3.9465 0 -3.982 0 -4.3935 0 -4.497 0 -4.4925 -2.5045 -5.1845 -3.1385 -4.339 -1.7695 -3.1495 -3.959 0 
-6.542 -7.809 -10.5865 -4.0015 -6.036 -4.954 -9.065001 -4.13 -8.4385 -8.685 -7.4095 -7.1565 -4.8945 -5.6875 -3.8655 -3.691 -3.691 -3.676 -7.168 -3.959 -3.982 -5.6075 -6.08 -7.507 -4.559 -3.9465 -3.9465 -3.982 -3.982 -4.3935 -4.3935 -4.497 -4.497 -4.4925 -7.070001 -8.208 -7.4095 -7.1565 -4.8945 -4.7475 -5.772 -3.959 
-12.7298 -12.1942 -10.6055 -8.1155 -7.071 -9.552 -9.887501 -11.6644 -9.899 -10.3225 -11.8039 -7.8155 -7.526501 -5.6875 -5.532001 -3.691 -7.554 -7.168 -7.168 -7.400001 -5.6075 -7.8755 -8.1635 -7.507 -6.723 -3.9465 -4.7935 -3.982 -6.772 -4.3935 -7.762501 -4.497 -6.6735 -7.070001 -13.1489 -10.419 -11.8039 -7.8155 -8.526001 -7.263 -5.772 
-17.115 -12.2132 -14.7195 -8.764001 -12.1628 -10.5995 -17.4219 -13.1249 -11.7625 -14.7169 -12.4629 -10.4765 -7.526501 -7.9705 -5.532001 -7.554 -11.7346 -7.168 -11.3452 -8.531 -7.8755 -9.596001 -8.1635 -8.986 -6.723 -4.7935 -4.7935 -6.772 -6.772 -7.762501 -7.762501 -6.6735 -9.956 -13.1489 -15.3599 -14.8134 -12.4629 -10.016 -10.1635 -7.263 
-17.134 -16.3272 -15.368 -14.0752 -13.2103 -18.1339 -18.8824 -14.9884 -16.1569 -15.3759 -15.1239 -10.4765 -10.757 -7.9705 -9.285001 -11.7346 -11.7346 -11.3452 -12.4762 -11.0344 -9.596001 -9.596001 -9.346001 -8.986 -7.461 -4.7935 -7.651 -6.772 -8.9195 -7.762501 -9.163 -9.956 -16.4839 -15.3599 -19.7543 -15.4724 -14.6634 -10.473 -10.1635 
-1.934 -4.5065 -3.3715 -6.6585 -5.7505 -9.6365 -5.7565 -1.7695 -3.8655 0 -3.691 0 -3.676 -1.756 -2.8965 -3.982 -3.959 -3.115 -4.559 0 -3.9465 0 -4.176 0 -4.3935 0 -4.497 -4.4925 -3.115 -3.959 
-5.7025 -8.325001 -11.32 -13.1676 -15.9438 -15.5192 -6.202 -5.6875 -3.8655 -3.691 -3.691 -3.676 -5.0365 -3.751 -6.0595 -5.6075 -6.08 -7.507 -4.559 -3.9465 -3.9465 -4.176 -4.176 -4.3935 -4.3935 -4.497 -6.6735 -8.575001 -8.278501 
-8.9095 -16.4253 -17.8291 -23.3609 -21.8265 -15.9647 -7.858 -5.6875 -5.532001 -3.691 -7.554 -5.0365 -7.0035 -6.8345 -6.455 -7.8755 -8.1635 -7.507 -6.723 -3.9465 -7.1265 -4.176 -6.9425 -4.3935 -7.762501 -6.6735 -12.0316 -13.9499 
-17.087 -22.9344 -28.0224 -29.2436 -22.272 -17.6207 -7.858 -7.9705 -5.532001 -7.554 -8.485001 -7.0035 -9.5035 -7.26 -8.6685 -9.596001 -8.1635 -8.986 -6.723 -7.1265 -7.1265 -6.9425 -6.9425 -7.762501 -9.163 -12.0316 -17.4065 
-23.5961 -33.1277 -33.9051 -29.6891 -23.928 -17.6207 -10.7025 -7.9705 -9.285001 -8.485001 -9.98 -9.5035 -9.696501 -9.867001 -10.4845 -9.596001 -9.346001 -8.986 -10.004 -7.1265 -10.918 -6.9425 -10.316 -9.163 -14.3247 -17.4065 
-1.934 -4.5065 0 -3.3715 -12.0285 -3.1385 -4.4465 -2.3345 -6.6585 -2.229 -4.72 -5.4285 -1.756 -2.925 -5.7565 -1.7695 -3.8655 0 -3.691 0 -3.676 0 -1.756 -3.982 -3.959 -3.2775 -2.5045 -4.065 0 -3.9465 0 -3.982 0 -4.3935 0 -4.497 0 -4.4925 -1.756 -2.925 -3.511 -3.0365 0 
-5.7025 -4.5065 -3.3715 -12.887 -10.91 -6.3125 -4.897501 -9.566501 -9.037001 -6.7345 -8.916 -7.001 -4.2585 -7.5385 -6.202 -5.6875 -3.8655 -3.691 -3.691 -3.676 -3.676 -1.756 -5.594 -5.6075 -5.9915 -3.678 -6.7445 -4.065 -3.9465 -3.9465 -3.982 -3.982 -4.3935 -4.3935 -4.497 -4.497 -4.4925 -6.1525 -4.2585 -5.669001 -6.0405 -3.0365 
-5.7025 -8.325001 -12.887 -14.5245 -13.8729 -6.3935 -13.3043 -11.9686 -13.7839 -11.4317 -10.8389 -9.122001 -9.113501 -7.9665 -7.858 -5.6875 -5.532001 -3.691 -7.554 -3.676 -5.0365 -5.594 -6.955501 -7.5265 -6.015 -7.5605 -6.7445 -8.852501 -3.9465 -4.7935 -3.982 -6.772 -4.3935 -7.762501 -4.497 -6.6735 -6.1525 -8.81 -7.249001 -7.715 -6.0405 
-8.9095 -17.9923 -14.5245 -18.0749 -13.9539 -15.6047 -15.7064 -16.7155 -18.4811 -13.3546 -12.9599 -14.0788 -9.5105 -9.587501 -7.858 -7.9705 -5.532001 -7.554 -7.554 -5.0365 -8.304001 -6.955501 -9.297001 -7.5515 -9.9975 -7.5605 -11.8258 -8.852501 -4.7935 -4.7935 -6.772 -6.772 -7.762501 -7.762501 -6.6735 -7.601 -8.81 -11.9649 -9.276501 -7.715 
-18.654 -19.6298 -18.0749 -18.1559 -23.1651 -18.0068 -20.4533 -21.4127 -20.404 -15.4756 -17.9167 -14.4758 -11.1525 -9.587501 -10.7025 -7.9705 -9.285001 -7.554 -8.485001 -8.304001 -9.046 -9.297001 -9.320001 -12.55 -9.9975 -13.2082 -11.8258 -10.543 -4.7935 -7.651 -6.772 -8.9195 -7.762501 -9.163 -7.601 -11.2019 -11.9649 -13.9924 -9.276501 
