-4.759 
n/a 
n/a 
n/a 
n/a 
-4.759 
n/a 
n/a 
n/a 
n/a 
-4.759 
n/a 
n/a 
n/a 
n/a 
-4.759 
n/a 
n/a 
n/a 
n/a 
-5.036 -3.5435 -3.1335 -1.756 -4.2115 -3.9175 
-7.1055 -6.4065 -4.562 -5.902 -8.783501 
-10.2425 -7.548 -9.507501 -10.7025 
-12.2209 -12.9969 -14.4516 
-17.7152 -17.941 
-5.036 -8.013 -3.6515 
-12.1437 -12.3111 
-16.7864 
n/a 
n/a 
-5.036 -3.5435 -3.1335 -1.756 -3.5025 -2.9825 
-7.1055 -6.4065 -4.562 -5.1565 -5.826 
-10.2425 -7.548 -7.8475 -8.092 
-12.2209 -11.3369 -9.972 
-16.0552 -13.4614 
-8.2375 -1.7565 -4.2115 -1.756 -4.1415 -3.5435 -3.09 0 
-9.396 -5.9335 -5.4895 -6.54 -9.435 -5.7825 -3.09 
-13.8424 -7.044 -11.4899 -12.4271 -11.941 -5.7825 
-14.9529 -13.2838 -17.377 -14.9331 -11.941 
-21.1927 -19.1709 -19.883 -14.9331 
