-4.759 
n/a 
n/a 
n/a 
n/a 
-4.759 
n/a 
n/a 
n/a 
n/a 
-4.759 
n/a 
n/a 
n/a 
n/a 
-4.759 
n/a 
n/a 
n/a 
n/a 
-5.783 -2.186 -1.8085 -4.397 -1.7565 -4.3225 -2.9705 -2.7415 -4.4895 -1.934 -1.4985 -3.158 -3.5195 -3.522 0 
-8.457001 -3.164 -5.867001 -5.847 -7.173 -7.2415 -4.512 -5.4595 -5.366 -2.6125 -4.178 -6.867001 -5.4845 -3.522 
-9.0015 -7.297 -6.9245 -11.7561 -9.859 -8.762 -6.8725 -6.0625 -6.001 -5.265 -7.553 -8.93 -5.4845 
-13.8649 -8.510501 -12.9566 -14.4421 -11.4955 -11.3993 -7.269001 -6.765501 -8.237 -9.35 -10.0775 -8.93 
-15.0784 -14.5614 -15.6426 -16.0786 -14.1328 -11.7958 -8.028001 -8.642 -12.8362 -11.9637 -10.0775 
-5.783 0 -1.8085 -4.3225 -3.6205 -2.7415 -4.4895 -1.934 -3.5195 -3.522 0 
-5.783 -1.8085 -5.9135 -9.316501 -5.747 -5.4595 -5.366 -5.009 -5.4845 -3.522 
-6.519001 -5.9135 -11.7957 -11.5428 -8.1635 -6.0625 -7.894 -6.641 -5.4845 
-9.774501 -11.7957 -14.022 -13.9593 -8.697001 -8.368501 -9.222 -6.641 
-16.2009 -14.022 -16.4385 -14.4928 -10.523 -9.6315 -9.222 
-5.783 0 -1.8085 -4.3225 -3.6205 -2.7415 -4.4895 -1.934 -1.4985 -3.158 -3.522 0 
-5.783 -1.8085 -5.9135 -9.316501 -5.747 -5.4595 -5.366 -2.6125 -4.178 -5.7415 -3.522 
-6.519001 -5.9135 -11.7957 -11.5428 -8.1635 -6.0625 -6.001 -5.265 -6.6925 -5.7415 
-9.774501 -11.7957 -14.022 -13.9593 -8.697001 -6.765501 -8.237 -7.2805 -6.6925 
-16.2009 -14.022 -16.4385 -14.4928 -9.538501 -8.642 -9.6805 -7.2805 
-5.783 -2.7415 -4.298 -3.5065 -3.522 
-9.658501 -5.6975 -7.217501 -5.8145 
-12.8681 -8.5935 -8.259501 
-15.7641 -10.3209 
-17.4915 
