-4.759 
n/a 
n/a 
n/a 
n/a 
-4.759 
n/a 
n/a 
n/a 
n/a 
-4.759 
n/a 
n/a 
n/a 
n/a 
-4.759 
n/a 
n/a 
n/a 
n/a 
-4.4515 -1.7695 -4.237 -1.7565 -6.3855 -4.59 -1.7565 -4.2485 -3.4625 -1.7695 -4.4345 -1.756 -4.4095 -2.186 -4.2065 0 
-6.673 -5.834001 -5.8415 -8.398001 -10.8415 -8.117001 -5.969 -6.702001 -5.0775 -7.415501 -6.5435 -5.7315 -6.1255 -7.58 -4.2065 
-10.5325 -8.6225 -13.5078 -13.098 -14.3685 -12.5609 -7.7285 -8.5705 -10.0035 -9.382501 -9.925001 -7.7515 -12.0343 -7.58 
-13.6858 -16.2248 -18.2078 -16.625 -18.8124 -14.3204 -9.526 -13.6053 -11.8865 -12.8464 -12.5008 -13.8795 -12.0343 
-21.2881 -20.9248 -21.7348 -21.0689 -20.5719 -16.1179 -14.6414 -15.4883 -15.3504 -15.4222 -18.6288 -13.8795 
-1.4985 -4.237 -1.934 -4.4515 -4.7075 -1.4985 -3.4625 -1.7565 -5.473 -4.1445 -2.5195 -2.3615 -1.4985 -4.237 -2.186 -4.911 -4.2735 
-5.154 -6.133 -7.154 -10.375 -5.6415 -4.940001 -4.9855 -6.873001 -7.984 -6.77 -4.4095 -4.913 -5.154 -6.133 -6.506001 -8.894501 
-6.8155 -11.9938 -13.6361 -11.309 -9.1525 -5.959001 -9.208 -9.521001 -10.2805 -8.864 -6.8825 -8.7885 -6.622 -10.022 -10.485 
-12.9671 -18.4759 -14.5701 -14.82 -9.932501 -10.181 -12.5046 -11.9901 -12.3745 -10.7335 -10.434 -9.882501 -10.9104 -14.0822 
-19.4492 -19.4099 -18.0811 -15.6 -14.2541 -13.0522 -14.9737 -14.0841 -14.244 -14.285 -11.528 -14.1667 -14.9706 
-1.934 -3.6605 -4.7425 0 -3.9345 -1.7695 -4.142 -1.7565 -1.4985 -4.2485 -3.6615 -1.756 -4.8935 -3.6615 -2.5045 -4.5295 0 
-5.4945 -4.8735 -4.7425 -3.9345 -3.94 -6.948 -5.3145 -2.4195 -5.307 -6.466001 -5.259 -6.1265 -7.724 -5.9735 -6.486 -4.5295 
-6.862 -4.8735 -7.759501 -3.94 -8.342001 -7.979 -5.699 -6.574 -7.6785 -7.693501 -9.9585 -8.867001 -9.427501 -9.272 -6.486 
-6.862 -7.807 -7.7625 -8.342001 -9.738001 -8.921 -9.3915 -8.93 -8.9875 -12.6772 -12.7548 -10.6951 -12.9698 -9.272 
-9.804501 -7.8095 -12.6069 -9.738001 -10.436 -12.6917 -12.0299 -10.3285 -14.1252 -15.4735 -14.5829 -14.2374 -12.9698 
-4.4515 -3.7575 -3.074 -4.593 -3.115 -7.626 -1.756 -4.224 
-8.526501 -7.056 -8.257501 -8.817 -10.5035 -9.061001 -5.701 
-12.2672 -12.5325 -13.0223 -16.3687 -11.9385 -13.1446 
-17.7437 -17.2973 -20.574 -17.8037 -16.0221 
-22.5085 -24.849 -22.009 -21.8873 
