-4.759 
n/a 
n/a 
n/a 
n/a 
-4.759 
n/a 
n/a 
n/a 
n/a 
-4.759 
n/a 
n/a 
n/a 
n/a 
-4.759 
n/a 
n/a 
n/a 
n/a 
-1.8085 -4.761 -1.934 -1.8085 -3.2875 0 
-6.266 -6.867001 -3.2685 -5.0185 -3.2875 
-7.692 -8.028 -6.052001 -5.0185 
-8.526 -11.1467 -6.052001 
-11.9241 -11.1467 
-3.0365 -2.186 -1.8085 -4.455 -1.934 -1.8085 -4.235 
-3.66 -3.164 -6.058001 -6.558001 -3.2685 -5.806 
-4.218 -7.5255 -7.801001 -7.925001 -6.665 
-8.010501 -9.104 -8.972 -11.5479 
-9.458501 -10.5272 -12.6985 
-3.0365 -2.186 -1.8085 -4.455 -1.934 -1.8085 -4.761 
-3.66 -3.164 -6.058001 -6.558001 -3.2685 -6.266 
-4.218 -7.5255 -7.801001 -7.925001 -8.4665 
-8.010501 -9.104 -8.972 -13.3494 
-9.458501 -10.5272 -14.5 
-6.388 -9.607 -6.388 -8.292001 
-10.3225 -11.08 -10.3225 
-11.7955 -15.0145 
-15.73 
n/a 
