-4.759 
n/a 
n/a 
n/a 
n/a 
-4.759 
n/a 
n/a 
n/a 
n/a 
-4.759 
n/a 
n/a 
n/a 
n/a 
-4.759 
n/a 
n/a 
n/a 
n/a 
-3.8655 -4.6805 -1.7565 -4.0155 -3.468 -1.756 -3.2495 -4.846 0 -1.756 -2.8965 -3.535 -4.418 0 
-8.6995 -4.722 -5.2565 -6.638 -4.7175 -4.7865 -7.611 -4.846 -1.756 -3.751 -5.9405 -7.501 -4.418 
-8.739 -6.911 -7.9465 -7.6825 -7.4575 -8.111 -7.611 -6.116 -3.751 -6.4975 -9.718 -7.501 
-9.811001 -9.3485 -8.894501 -8.5625 -8.402 -8.111 -8.602 -8.076 -6.4975 -10.4505 -9.718 
-9.8315 -9.672501 -9.323501 -8.7355 -8.402 -9.3335 -10.8658 -9.1945 -10.4505 -10.4505 
-3.8655 -2.8645 -4.0155 -3.468 -1.756 -3.2495 -4.418 -1.756 -3.535 -4.167 -2.925 -2.674 
-6.2115 -6.4045 -6.638 -4.7175 -4.7865 -6.579 -5.694 -5.089 -6.5965 -7 -4.1785 
-9.425501 -9.325001 -7.6825 -7.4575 -8.608 -8.032001 -8.504001 -7.811 -9.3955 -8.233001 
-9.858001 -9.9115 -8.5625 -10.085 -10.66 -11.046 -10.553 -10.2035 -10.4275 
-10.16 -10.0395 -11.9584 -12.137 -13.674 -13.095 -12.9455 -11.2861 
-3.8655 -3.7965 -2.7035 -5.809 -9.630501 -1.756 -3.135 -3.535 -3.8745 0 
-7.599 -6.759 -9.608 -15.9764 -11.1415 -4.5755 -5.962501 -6.747 -3.8745 
-10.9761 -12.7005 -19.5198 -17.9578 -13.961 -7.264 -8.596001 -6.747 
-16.9176 -23.5046 -21.4736 -20.7773 -16.6495 -9.161 -8.596001 
-27.7217 -25.0156 -24.2931 -23.4658 -18.5465 -9.161 
-4.449 -4.418 
-7.611501 
n/a 
n/a 
n/a 
