-4.759 
n/a 
n/a 
n/a 
n/a 
-4.759 
n/a 
n/a 
n/a 
n/a 
-4.759 
n/a 
n/a 
n/a 
n/a 
-4.759 
n/a 
n/a 
n/a 
n/a 
-1.756 -3.074 -3.0365 -2.186 -1.8085 -4.4755 -1.7565 -4.2105 -4.05 -1.934 -4.2985 0 -8.593 0 -3.8655 -1.756 -8.151 0 
-4.566 -5.832 -3.66 -3.164 -6.347 -5.392 -6.001501 -7.9265 -5.5145 -5.5055 -4.2985 -8.593 -8.593 -3.8655 -5.2725 -9.5985 -8.151 
-7.246 -6.3345 -4.218 -8.013 -6.7705 -10.238 -9.220501 -9.1295 -8.733001 -5.5055 -13.8933 -8.593 -12.6287 -5.2725 -10.1635 -9.5985 
-7.7295 -6.772 -8.6385 -8.626501 -12.1613 -13.457 -9.704 -12.6294 -8.733001 -15.4291 -13.8933 -12.6287 -14.0357 -10.1635 -10.1635 
-8.190001 -11.2929 -8.9545 -14.1255 -15.3803 -13.9405 -14.0025 -12.6294 -18.7606 -15.4291 -17.929 -14.0357 -18.9267 -10.1635 
-4.8315 -5.6665 -3.959 -2.9705 -4.4465 -2.3345 -2.3615 -4.05 -2.4945 -4.2985 0 -4.231 0 -3.8655 0 -1.756 -2.688 -4.247 
-10.177 -10.6095 -6.136 -6.932 -4.897501 -4.499 -5.97 -6.441 -7.986001 -4.2985 -4.231 -4.231 -3.8655 -3.8655 -1.756 -4.619 -4.249001 
-15.3508 -12.7865 -10.2185 -9.521001 -6.1875 -7.5265 -7.8195 -12.4373 -7.986001 -7.7825 -4.231 -8.007001 -3.8655 -5.2725 -4.619 -5.658 
-17.5278 -16.869 -12.9059 -11.003 -7.923501 -9.341001 -13.923 -12.4373 -10.586 -7.7825 -8.007001 -8.007001 -5.2725 -5.8525 -5.658 
-21.6103 -19.5564 -14.3879 -12.739 -9.528501 -15.5303 -13.923 -15.0373 -10.586 -10.1345 -8.007001 -8.571001 -5.8525 -5.8615 
-4.8315 0 -5.016 -3.936 -2.674 -3.1125 -4.099 -2.5195 -3.959 -3.115 -4.2985 0 -4.231 0 -3.8655 -1.756 -2.688 -7.1725 
-4.8315 -5.016 -6.957 -6.152 -3.6315 -5.4025 -6.177 -6.2805 -6.08 -7.35 -4.2985 -4.231 -4.231 -3.8655 -5.2725 -4.619 -7.249001 
-10.0855 -6.957 -8.7335 -6.5395 -5.7885 -7.0255 -9.1785 -7.552 -7.766 -7.35 -7.7825 -4.231 -8.007001 -5.2725 -5.8525 -8.706 
-12.0265 -8.7335 -8.882001 -7.2205 -7.3165 -9.741501 -10.6744 -9.1765 -7.766 -10.513 -7.7825 -8.007001 -8.571001 -5.8525 -8.972 
-13.803 -8.882001 -9.119 -8.331 -10.0405 -11.2678 -12.2989 -9.1765 -10.7025 -10.513 -10.1345 -8.571001 -9.402 -8.972 
-3.074 -8.63 -4.4755 -2.186 -3.0365 -1.934 -4.2985 0 -4.231 0 -3.8655 -1.756 -2.688 -4.247 0 
-12.357 -15.6485 -6.674 -4.5415 -5.238 -5.5055 -4.2985 -4.231 -4.231 -3.8655 -5.2725 -4.619 -4.249001 -4.247 
-18.0799 -17.4204 -9.0585 -6.658501 -9.033001 -5.5055 -7.7825 -4.231 -8.007001 -5.2725 -5.8525 -5.658 -4.249001 
-20.4536 -19.8049 -11.5913 -10.7495 -9.033001 -9.331 -7.7825 -8.007001 -8.571001 -5.8525 -5.8615 -5.658 
-22.8381 -22.3377 -15.6823 -10.7495 -12.9711 -9.331 -10.1345 -8.571001 -9.402 -5.8615 -5.8615 
