-4.759 
n/a 
n/a 
n/a 
n/a 
-4.759 
n/a 
n/a 
n/a 
n/a 
-4.759 
n/a 
n/a 
n/a 
n/a 
-4.759 
n/a 
n/a 
n/a 
n/a 
-1.8085 -3.545 -1.7565 -4.83 -3.499 -3.0695 -2.4945 -4.645 -2.3345 -1.4985 -3.1385 -3.519 -1.4985 -3.699 -3.355 -1.7565 -1.4985 -4.698 -1.7565 -3.691 0 
-5.12 -4.649 -7.0645 -8.272501 -5.3535 -4.2085 -6.212501 -5.881001 -3.233 -4.2575 -7.1895 -5.0755 -5.264 -5.462 -3.725 -2.4195 -5.740001 -6.086 -4.930501 -3.691 
-6.342 -11.1338 -9.4335 -10.2865 -6.09 -7.2435 -6.748 -6.213 -5.869 -8.5205 -7.801001 -8.538 -6.9145 -5.5585 -4.0515 -6.387001 -6.5245 -7.211 -4.930501 
-13.3026 -13.5028 -11.8987 -10.7425 -8.031 -7.807 -7.166 -7.2405 -10.702 -9.424 -11.9261 -10.172 -7.5075 -6.009 -8.759001 -6.948 -7.357 -7.211 
-15.6716 -15.968 -12.3547 -12.6835 -8.515 -8.047501 -8.290501 -12.2565 -11.6055 -13.6727 -13.5601 -10.4415 -7.879 -10.6875 -9.613001 -7.73 -7.357 
-4.83 -3.499 -3.0695 -2.4945 -4.645 -2.3345 -3.1385 -4.0675 -4.897 -2.664 -3.699 -3.9945 -1.7565 -4.698 -1.934 -3.691 
-8.272501 -5.3535 -4.2085 -6.212501 -5.881001 -5.443501 -7.0045 -9.231501 -5.79 -4.654 -8.0585 -5.4955 -5.5475 -6.177001 -4.8225 
-10.2865 -6.09 -7.2435 -6.748 -8.48 -9.053 -12.5203 -10.554 -7.383 -8.882501 -9.2075 -7.316 -6.946 -8.9265 
-10.7425 -8.031 -7.807 -9.352 -12.2075 -14.8576 -13.8428 -12.147 -11.9439 -9.978001 -11.198 -8.6945 -9.1905 
-12.6835 -8.515 -10.3155 -13.3415 -18.0121 -16.1801 -15.4358 -16.7079 -13.0394 -11.9145 -12.5765 -11.1262 
-3.1385 -2.742 -5.032 -4.83 -3.499 0 -2.4265 -2.186 -3.849 -2.5045 -3.926 -4.219 
-5.1415 -6.97 -10.4345 -8.272501 -3.499 -2.4265 -3.292 -4.8565 -6.305 -6.3655 -7.3125 
-8.727501 -13.1767 -13.877 -8.272501 -6.2775 -3.292 -5.872 -7.104 -10.0545 -9.805 
-15.077 -16.6192 -13.877 -11.1634 -6.814 -5.872 -8.048 -10.7495 -13.494 
-18.5195 -16.6192 -16.7679 -11.6999 -9.519 -8.048 -11.7217 -14.189 
-12.08 -2.8645 -4.0935 -4.83 -3.499 -4.645 -2.3345 -1.8085 -3.1385 -3.1435 -3.383 -3.699 -3.355 -1.7565 -3.691 -4.698 0 
-8.805 -8.452 -9.485001 -8.272501 -6.6445 -5.881001 -3.8605 -5.7395 -6.8065 -5.807 -5.014 -5.462 -3.725 -4.930501 -8.1455 -4.698 
-14.7202 -14.1503 -13.0901 -10.2865 -7.05 -7.081501 -7.734 -9.197001 -9.200001 -7.5195 -6.634501 -5.5585 -7.152 -8.9545 -8.1455 
-20.4963 -17.7554 -15.1041 -10.542 -8.935 -10.2975 -11.5525 -11.6847 -10.598 -10.564 -6.7045 -8.9385 -11.9316 -8.9545 
-24.1014 -19.7694 -15.3596 -12.427 -12.5688 -14.319 -14.0402 -13.0827 -13.6425 -10.776 -10.4105 -14.6303 -11.9316 
