-4.759 
n/a 
n/a 
n/a 
n/a 
-4.759 
n/a 
n/a 
n/a 
n/a 
-4.759 
n/a 
n/a 
n/a 
n/a 
-4.759 
n/a 
n/a 
n/a 
n/a 
-1.4985 -3.4635 -2.4945 -1.4985 -4.7935 -3.557 -3.9035 -1.7565 -1.8085 -4.8615 
-3.6265 -5.381001 -3.9315 -6.444 -6.283 -8.048 -4.616 -3.2595 -6.401501 
-5.461 -6.125 -8.326 -8.561501 -10.717 -8.313001 -6.0075 -7.8605 
-6.259501 -9.7825 -10.243 -12.6183 -10.982 -9.501 -10.733 
-9.950001 -11.8871 -14.2998 -12.8833 -12.17 -14.2951 
-4.251 -3.16 -3.586 -2.186 -3.5005 -3.325 -1.4985 -4.0995 -3.824 
-8.646 -6.882 -6.196 -6.946 -7.2005 -3.898 -5.3665 -8.165501 
-12.5684 -9.9895 -11.3616 -10.2985 -7.790501 -7.601 -9.115001 
-15.6759 -15.8327 -14.7141 -10.421 -11.7929 -12.0449 
-21.5191 -19.1852 -14.8366 -15.1238 -16.2368 
-3.7205 -4.6865 -3.681 -2.4285 -3.355 -2.5045 -3.4635 
-10.802 -7.499001 -6.281 -5.345 -6.1025 -6.696501 
-13.6145 -10.434 -10.3675 -8.168 -10.298 
-16.5495 -14.5205 -14.1007 -12.8125 
-20.636 -18.2537 -18.7452 
-3.6845 -4.4155 -2.4945 -1.4985 -4.1335 -2.3335 -2.4945 -3.2955 -2.3345 -1.4985 -4.5005 
-7.2135 -6.431 -3.9315 -5.4095 -5.7855 -3.947 -4.6305 -4.534 -3.233 -6.22 
-8.818501 -7.079 -7.3595 -6.797501 -6.531 -5.7105 -5.836 -5.117 -7.859001 
-9.2445 -11.3206 -8.4125 -7.5705 -7.907 -6.6875 -6.481 -9.811501 
-13.6959 -12.3736 -9.330001 -8.8835 -8.573 -7.2005 -11.4487 
