-4.759 
n/a 
n/a 
n/a 
n/a 
-4.759 
n/a 
n/a 
n/a 
n/a 
-4.759 
n/a 
n/a 
n/a 
n/a 
-4.759 
n/a 
n/a 
n/a 
n/a 
-3.034 -1.4985 -7.395 -4.6825 -3.9535 -1.7695 -4.7565 0 -1.4985 -4.1225 -1.7565 -2.3615 -3.6815 -3.074 -4.911 0 
-3.947 -7.940001 -8.4475 -8.493501 -5.098001 -5.778 -4.7565 -1.4985 -5.448501 -5.154 -3.523 -6.333 -6.7555 -6.964 -4.911 
-9.589001 -8.5705 -12.5971 -9.012 -7.546 -5.778 -6.324 -5.448501 -5.790501 -7.18 -7.5905 -8.587 -11.3435 -6.964 
-9.7605 -12.8199 -13.1156 -9.899501 -7.546 -7.0725 -10.287 -5.790501 -7.685501 -10.1265 -10.5035 -13.6252 -11.3435 
-15.2163 -13.3384 -14.0031 -9.899501 -8.860001 -11.2045 -10.574 -7.685501 -10.6612 -13.0395 -15.5417 -13.6252 
-3.034 -6.483 -3.5435 -3.9535 -3.1435 -5.843 -1.4985 -4.1225 -1.7565 -2.3615 -3.6815 -3.9535 -3.6515 -3.539 0 
-9.7005 -9.477 -7.3695 -6.6565 -7.3085 -7.452001 -5.448501 -5.154 -3.523 -6.333 -8.162001 -6.5955 -5.67 -3.539 
-12.8847 -13.331 -9.078 -10.2815 -8.6595 -11.7218 -5.790501 -7.18 -7.5905 -9.9425 -10.7025 -7.948 -5.67 
-16.7387 -15.0395 -12.7944 -11.6325 -13.0603 -12.0638 -7.685501 -10.1265 -11.5072 -12.7214 -12.055 -7.948 
-18.4472 -18.7559 -14.1454 -16.0333 -13.4023 -13.9588 -10.6612 -14.0432 -14.2861 -14.0739 -12.055 
-1.4985 -4.7565 -1.7565 -7.395 -4.6825 -3.43 -1.7695 -1.4985 -4.7075 -1.934 -1.4985 -3.456 -1.7565 -3.1495 -4.4075 0 
-5.544001 -5.7325 -8.7415 -8.4475 -8.212001 -4.647 -2.7955 -5.869 -5.1835 -2.6125 -5.332 -4.7445 -3.914 -7.235001 -4.4075 
-6.04 -10.749 -10.375 -12.3156 -10.1305 -5.3235 -6.9855 -6.058 -5.8585 -6.1965 -5.7535 -7.0265 -7.871 -7.235001 
-11.2361 -12.3825 -14.2431 -14.2341 -10.6805 -10.7335 -7.105 -6.7815 -10.634 -6.3565 -7.896501 -10.6605 -7.871 
-12.8696 -16.2506 -16.1616 -14.7841 -16.0905 -10.853 -7.7795 -11.6336 -10.794 -8.433001 -11.8983 -10.6605 
-3.882 -3.034 -8.337001 -4.878 -1.4985 -6.877 0 -2.3615 -3.6815 -3.074 -3.966 -2.4265 -4.1225 
-5.8765 -12.534 -13.6692 -6.2165 -7.714001 -6.877 -2.3615 -6.333 -6.7555 -6.5585 -6.0365 -6.979 
-15.5365 -17.8662 -15.0077 -13.0234 -7.714001 -8.9875 -6.333 -8.587 -10.4675 -8.9235 -11.0242 
-20.8687 -19.2047 -21.8146 -13.0234 -10.1465 -13.2194 -8.587 -12.7492 -12.8325 -14.107 
-22.2072 -26.0116 -21.8146 -15.4559 -14.3784 -15.4734 -12.7492 -15.1142 -18.016 
