-4.759 
n/a 
n/a 
n/a 
n/a 
-4.759 
n/a 
n/a 
n/a 
n/a 
-4.759 
n/a 
n/a 
n/a 
n/a 
-4.759 
n/a 
n/a 
n/a 
n/a 
-6.3215 -2.186 -4.0835 -2.264 -1.4985 -5.1875 -3.2875 -3.2 -3.849 0 -4.197 -4.0165 -3.2 0 -3.3155 -1.4985 -4.677 -2.186 -2.5045 -1.4985 -3.307 -1.7565 -3.9725 -2.229 -4.806 -1.756 -1.4985 -4.6615 -1.756 -4.386 -4.4705 -2.4945 -4.0835 -3.6215 -3.277 0 
-8.5 -5.3675 -5.269501 -2.9195 -5.496 -8.944 -7.712501 -6.376 -3.849 -4.197 -8.63 -7.226 -3.2 -3.3155 -4.1745 -5.4395 -6.5685 -4.660501 -3.1915 -4.581 -4.8035 -5.669 -5.125 -6.125 -6.27 -3.0405 -5.087501 -5.6555 -5.73 -7.409 -6.2315 -5.6845 -5.9775 -5.3065 -3.277 
-10.513 -5.8745 -5.868001 -8.097 -9.781 -13.6856 -11.1523 -6.376 -8.166 -8.63 -12.5639 -7.226 -5.9545 -4.1745 -8.139001 -7.0365 -8.8385 -5.318501 -5.5535 -5.081501 -9.0635 -6.6355 -7.4915 -7.3475 -6.983 -7.0735 -6.188001 -8.835001 -8.802501 -9.1405 -7.621 -7.104 -8.116501 -5.3065 
-12.2302 -6.434 -11.6191 -12.6134 -14.591 -17.1254 -11.1523 -10.434 -12.943 -12.5639 -12.5639 -9.995 -6.661 -8.139001 -9.002001 -9.2615 -9.304001 -6.72 -5.835001 -9.4095 -10.0585 -9.925 -8.286 -8.017 -10.4945 -8.4075 -10.199 -12.4153 -10.233 -10.427 -9.6455 -9.4075 -8.116501 
-12.7897 -12.5395 -16.1355 -17.4234 -18.0308 -17.1254 -15.2103 -15.211 -16.8769 -12.5639 -15.3329 -10.7015 -10.9003 -9.002001 -11.5022 -9.741501 -10.4775 -6.766 -10.0155 -10.249 -13.493 -10.7195 -8.971001 -11.7329 -11.8285 -12.7101 -13.9525 -13.8458 -11.5195 -12.4515 -12.1336 -9.4075 
-6.3215 -2.7415 -4.0835 -1.934 -1.4985 -5.1875 -3.2875 -4.205 -1.7565 0 -4.197 -9.320001 -3.7075 0 -3.3155 -4.677 -2.186 -4.0835 -2.5045 -1.4985 -3.307 -1.7565 -1.4985 -4.806 -1.756 -1.4985 -4.6615 -1.756 -2.8965 -4.386 -4.4215 -2.4945 -4.0835 -3.6215 -3.277 0 
-9.058001 -5.341001 -4.6245 -2.6125 -5.496 -8.944 -7.3865 -5.689001 -1.7565 -4.197 -14.5376 -13.2097 -3.7075 -3.3155 -8.5425 -6.5685 -5.3675 -6.2375 -3.1915 -4.581 -4.8035 -2.4195 -5.73 -6.27 -3.0405 -5.087501 -5.6555 -3.751 -6.838 -6.3085 -6.044 -5.6845 -5.9775 -5.3065 -3.277 
-10.61 -5.919 -5.907001 -7.187 -9.781 -13.3596 -9.2445 -5.689001 -6.393001 -14.5376 -18.4273 -13.2097 -6.8955 -8.5425 -10.1855 -8.3545 -7.718 -6.7035 -5.5535 -5.081501 -5.2765 -6.5845 -6.994 -6.983 -7.0735 -6.188001 -7.646 -7.523 -8.419001 -8.09 -7.8785 -7.104 -8.116501 -5.3065 
-11.188 -6.6355 -10.523 -10.5855 -14.265 -15.2176 -9.2445 -10.6215 -17.3912 -18.4273 -18.4273 -16.3977 -12.3139 -10.1855 -11.9715 -9.981001 -8.168501 -9.254001 -5.835001 -5.3855 -9.297501 -7.6525 -7.762 -10.4945 -8.4075 -8.305 -12.109 -9.056001 -10.025 -9.9375 -9.740001 -9.4075 -8.116501 
-11.9045 -11.6965 -13.9215 -15.0695 -16.123 -15.2176 -14.4264 -21.6197 -21.2809 -18.4273 -21.6153 -21.8161 -13.9569 -11.9715 -13.598 -10.2805 -10.5975 -9.465 -6.182001 -9.34 -10.3235 -8.441501 -11.4727 -11.8285 -10.8161 -13.1096 -13.642 -10.533 -12.0965 -11.8098 -12.2399 -9.4075 
-12.16972 -7.359 -8.013 -2.7415 -1.8085 -3.383 -5.1795 0 -5.3265 -4.983 -3.9725 0 -3.0695 -4.1085 -1.7695 -4.3315 -7.041501 -1.4985 -7.4885 
-19.52872 -9.689 -10.575 -3.891 -4.1695 -6.8975 -5.1795 -5.3265 -9.553 -7.412001 -3.9725 -3.0695 -5.8745 -4.428 -5.820001 -9.411501 -7.674001 -8.1875 
-21.85872 -12.2956 -11.7245 -5.557 -7.462 -6.8975 -9.4235 -9.553 -10.7195 -7.412001 -6.484 -5.8745 -6.035 -8.479501 -9.573001 -9.919001 -14.8176 
-24.46532 -13.4451 -13.3905 -8.278501 -7.462 -11.5317 -13.9088 -10.7195 -10.7195 -8.928 -8.713 -6.035 -9.8985 -12.4025 -10.0795 -17.0626 
-25.61482 -15.1111 -16.112 -8.278501 -12.677 -16.017 -15.0753 -10.7195 -12.2355 -11.3274 -8.856 -9.8985 -13.8691 -12.909 -17.2231 
-1.4985 -5.1875 -3.2875 -3.2 -1.7565 0 -4.197 -4.0165 -3.2 0 -2.356 -4.677 -1.756 -3.9725 -2.229 -4.806 -1.934 -1.4985 -3.307 -1.756 -4.6615 -1.756 -4.4705 -4.6465 -2.4265 -2.7415 -4.3895 0 
-5.496 -8.944 -7.712501 -4.722 -1.7565 -4.197 -8.63 -7.226 -3.2 -2.356 -7.538 -6.0955 -6.0275 -5.125 -6.125 -6.3465 -2.6125 -4.581 -5.071 -6.2335 -5.6555 -6.04 -8.414001 -6.5795 -3.681 -5.8165 -4.3895 
-9.781 -13.6856 -9.318001 -4.722 -6.393001 -8.63 -12.5639 -7.226 -5.0845 -7.538 -9.081 -9.8675 -7.226 -7.4915 -7.452 -7.1145 -5.476501 -6.2515 -10.0225 -7.7275 -8.005001 -9.995001 -9.2875 -8.59 -6.975 -5.8165 
-14.591 -15.2911 -9.318001 -9.6435 -11.4836 -12.5639 -12.5639 -9.324 -10.9317 -9.081 -12.8786 -10.5075 -9.795 -8.849 -8.437 -8.7305 -6.888 -11.6356 -11.5165 -10.01 -11.9428 -10.9453 -11.5418 -11.9078 -6.975 
-16.1965 -15.2911 -14.4237 -14.8347 -15.4175 -12.5639 -14.6619 -15.1978 -12.4747 -12.8786 -13.5186 -13.0765 -11.2793 -9.628 -10.147 -10.8488 -12.4427 -13.1296 -13.799 -14.1394 -12.8931 -13.1996 -14.8596 -11.9078 
