-4.759 
n/a 
n/a 
n/a 
n/a 
-4.759 
n/a 
n/a 
n/a 
n/a 
-4.759 
n/a 
n/a 
n/a 
n/a 
-4.759 
n/a 
n/a 
n/a 
n/a 
-2.3615 -4.179 -2.186 -5.1805 -2.3345 -3.818 -3.6705 -3.1385 -4.1645 -4.2315 -1.756 -3.335 -4.3065 -1.7695 -1.4985 -3.9745 -1.756 -4.9715 -4.254 -4.2225 
-6.583 -5.982 -6.3525 -6.612 -6.6665 -5.821 -6.204 -7.9255 -9.021 -5.332 -5.317 -8.0635 -6.175001 -2.7955 -4.7475 -5.1055 -6.5975 -8.5825 -10.0285 
-7.387001 -7.861001 -7.5375 -11.637 -8.091001 -6.971 -11.4376 -13.0404 -10.1075 -8.426001 -9.6075 -10.0215 -7.257 -5.8925 -5.687 -9.714001 -9.6745 -14.4194 
-8.6085 -8.942 -12.9013 -13.0615 -9.2165 -12.4782 -16.5525 -14.1269 -13.2215 -13.0257 -11.9951 -11.1969 -10.7496 -6.985001 -11.3495 -12.8368 -15.8626 
-9.6225 -14.579 -14.3258 -14.187 -14.8765 -17.5931 -17.639 -17.2409 -17.8212 -15.4133 -13.1705 -14.6895 -11.8421 -12.8667 -14.4723 -19.0249 
-1.4985 -3.9745 -1.756 -4.4095 -2.4945 -4.2635 0 -3.321 -4.7425 -2.3615 -4.179 0 
-4.7475 -5.1055 -5.7315 -7.096 -8.0035 -4.2635 -3.321 -7.9615 -6.489501 -6.583 -4.179 
-5.687 -8.179001 -7.7675 -12.977 -8.0035 -8.4175 -7.9615 -9.887501 -8.5635 -6.583 
-8.271 -11.352 -13.7635 -12.977 -12.3257 -13.0866 -9.887501 -12.0475 -8.5635 
-12.4114 -17.348 -13.7635 -17.2992 -16.9948 -15.0126 -12.0475 -12.0475 
-1.4985 -3.6705 -5.1845 -3.1385 -2.742 -3.197 -3.45 -4.523 -2.0935 -3.277 -1.756 -2.742 -3.6785 -3.7935 -1.7695 -1.4985 -3.9745 -1.756 -1.4985 -4.332 -4.523 -2.0935 -2.985 -5.147 -2.3335 -4.179 0 
-5.144 -9.275501 -7.4095 -5.1415 -4.7825 -6.420501 -8.345 -7.537001 -4.694 -4.6335 -4.2795 -5.549 -6.127 -4.559 -2.7955 -4.7475 -5.1055 -3.0405 -6.5705 -9.443001 -7.537001 -4.3315 -6.3755 -6.8715 -7.6455 -4.179 
-11.5548 -12.5335 -9.443001 -6.942 -7.8295 -11.5755 -11.63 -9.9755 -5.876 -6.945 -7.4395 -8.542 -6.863 -5.2825 -5.8925 -5.687 -6.267 -8.115 -12.3933 -12.6952 -9.6595 -7.3935 -8.674001 -11.6905 -7.6455 
-14.8128 -14.567 -11.3345 -9.753 -13.1739 -14.8605 -14.0685 -11.4345 -8.016001 -9.572001 -10.3285 -9.3535 -7.706 -8.7255 -6.985001 -7.219 -11.9111 -14.207 -15.6455 -14.8177 -12.4966 -9.6 -14.1552 -12.1277 
-16.8463 -16.4585 -14.1455 -15.1756 -16.4589 -17.299 -15.5275 -13.5745 -10.8336 -12.7214 -10.5435 -10.177 -11.4756 -10.0266 -8.475 -13.3441 -18.0031 -17.4592 -17.768 -17.6548 -15.2461 -15.2623 -14.2668 
-5.5225 -3.585 
-8.226 
n/a 
n/a 
n/a 
