-4.759 
n/a 
n/a 
n/a 
n/a 
-4.759 
n/a 
n/a 
n/a 
n/a 
-4.759 
n/a 
n/a 
n/a 
n/a 
-4.759 
n/a 
n/a 
n/a 
n/a 
-4.399 -1.7565 -5.1875 -4.3705 -3.423 -2.6165 -4.1605 0 
-4.831 -6.68 -7.598001 -8.893 -4.4935 -5.1825 -4.1605 
-9.749001 -8.5755 -12.6699 -9.5605 -8.6279 -5.1825 
-11.8743 -13.8942 -13.3374 -13.9131 -8.6279 
-17.193 -14.5617 -17.69 -13.9131 
-3.9225 -2.3615 -1.4985 -4.454 -1.7565 -5.1875 -4.2655 -2.7765 -2.6165 -2.489 -7.897 -4.4175 0 
-6.6375 -4.913 -5.245501 -5.044 -6.68 -7.408 -7.0115 -4.9255 -3.82 -10.4345 -12.8967 -4.4175 
-9.372001 -8.937 -5.3135 -9.536 -8.396501 -10.0715 -9.001 -5.4595 -12.4739 -15.4342 -12.8967 
-13.5344 -9.052 -9.8625 -11.4727 -11.2056 -12.131 -9.402 -14.602 -17.4736 -15.4342 
-13.6494 -13.608 -11.979 -14.2818 -13.2651 -12.532 -18.6237 -19.6017 -17.4736 
-2.7835 -3.7905 -1.7695 -3.8735 -2.229 -3.288 -4.129 -3.013 -5.651501 -3.3785 -3.9555 0 
-8.669001 -6.848001 -5.578001 -5.3655 -5.5905 -6.79 -8.408001 -8.529501 -6.4335 -6.2955 -3.9555 
-11.6933 -10.9533 -6.952001 -9.627001 -9.833301 -12.6584 -13.5823 -11.0545 -10.6005 -6.2955 
-15.7986 -12.3273 -11.4321 -14.0946 -15.7017 -17.8327 -14.7028 -11.3063 -10.5773 
-17.1726 -16.8074 -15.8997 -19.963 -20.876 -18.9532 -17.2379 -11.4121 
-3.1435 -5.1875 -4.2655 -4.305 -2.186 -2.6165 -9.09 0 
-8.506001 -7.408 -8.5215 -7.191501 -3.5105 -13.2173 -9.09 
-10.543 -10.575 -10.634 -8.530001 -14.8331 -13.2173 
-13.71 -12.8223 -11.9725 -20.0856 -14.8331 
-15.9573 -14.1608 -23.5281 -20.0856 
