-4.759 
n/a 
n/a 
n/a 
n/a 
-4.759 
n/a 
n/a 
n/a 
n/a 
-4.759 
n/a 
n/a 
n/a 
n/a 
-4.759 
n/a 
n/a 
n/a 
n/a 
-5.147 -8.1485 -4.4975 -2.186 -4.287 
-13.9049 -13.0066 -6.086501 -5.655 
-18.763 -14.5956 -9.522501 
-20.352 -18.0316 
-23.788 
-6.5435 -8.27 -2.4945 -6.761 0 
-15.6651 -9.5465 -8.3195 -6.761 
-16.9416 -15.4049 -8.3195 
-22.8 -15.4049 
-22.8 
-5.209 -2.5195 -8.1485 -4.352 
-5.6335 -10.2705 -12.8611 
-14.0193 -15.3131 
-19.0619 
n/a 
-2.4265 -4.066 -2.5195 -1.4985 -3.3435 -3.6835 -1.7565 -6.437 -1.7565 -5.1845 -3.1385 0 
-4.728 -4.976 -3.1695 -4.6745 -5.2295 -5.1885 -7.548 -7.004 -6.580501 -7.4095 -3.1385 
-6.1405 -5.5295 -6.661 -7.422 -7.503 -11.5686 -9.120501 -12.7308 -8.684001 -7.4095 
-6.7685 -9.048 -9.345 -7.901 -14.2867 -13.1411 -14.9581 -14.8343 -8.684001 
-10.286 -11.6926 -9.9655 -14.9101 -15.8592 -18.9787 -17.0616 -14.8343 
