-4.759 
n/a 
n/a 
n/a 
n/a 
-4.759 
n/a 
n/a 
n/a 
n/a 
-4.759 
n/a 
n/a 
n/a 
n/a 
-4.759 
n/a 
n/a 
n/a 
n/a 
-3.997 -1.7565 -4.176 -1.7565 -3.188 -8.35 -4.0375 0 
-4.925 -6.7555 -5.828 -5.13 -12.6754 -12.9031 -4.0375 
-9.2615 -8.189 -8.928 -15.514 -17.2285 -12.9031 
-10.276 -11.5996 -20.242 -20.0671 -17.2285 
-13.6866 -22.9136 -24.7951 -20.0671 
-3.188 -5.1845 -3.9235 -2.229 -4.176 
-8.0565 -9.6845 -5.252 -6.2655 
-10.688 -11.116 -9.617001 
-12.1195 -15.481 
-16.4845 
-12.16972 -4.7615 -4.176 -1.7565 -2.5685 -3.6215 -9.6365 -1.934 -1.4985 -3.188 
-16.93122 -10.2185 -5.828 -3.938 -5.2175 -14.2664 -10.985 -2.6125 -3.619 
-22.38822 -11.8705 -8.740001 -7.709001 -16.2468 -15.6149 -11.6635 -4.377 
-24.04022 -14.7825 -12.7984 -18.9571 -17.5953 -16.2934 -13.428 
-26.95222 -18.8409 -24.0465 -20.3056 -18.2738 -18.0579 
-17.535 -8.1485 -3.9235 -4.176 
-27.9722 -12.4326 -8.863501 
-29.0928 -17.3726 
-34.0328 
n/a 
