-4.759 
n/a 
n/a 
n/a 
n/a 
-4.759 
n/a 
n/a 
n/a 
n/a 
-4.759 
n/a 
n/a 
n/a 
n/a 
-4.759 
n/a 
n/a 
n/a 
n/a 
-3.17 -1.7565 -1.4985 -4.2115 -2.4945 -1.7695 -4.99 -1.4985 -4.31 
-4.179 -2.4195 -5.954 -5.9955 -4.6835 -5.2645 -6.066 -5.7285 
-4.497 -6.698501 -7.537 -8.4045 -8.009501 -6.3155 -8.9265 
-8 -8.375501 -10.074 -12.1949 -8.9685 -9.3175 
-9.119 -11.0731 -13.818 -13.1539 -12.1229 
-3.17 -1.7565 -1.4985 -4.2115 -2.4945 -5.457 -2.5045 -4.31 0 
-4.179 -2.4195 -5.954 -5.9955 -6.622 -6.190001 -7.842501 -4.31 
-4.497 -6.698501 -7.537 -10.168 -7.444 -10.634 -7.842501 
-8 -8.375501 -11.8259 -11.1854 -12.0944 -10.634 
-9.119 -12.825 -12.8433 -15.8358 -12.0944 
-3.17 -1.7565 -4.2115 -3.535 -3.983 -2.186 -4.8875 
-4.179 -5.9335 -7.762 -6.8175 -5.897 -8.982 
-9.139501 -10.564 -11.8533 -7.863 -12.9956 
-14.108 -14.6553 -12.8988 -15.3438 
-18.1993 -15.7008 -20.3796 
-3.17 -1.7565 -3.308 -4.7925 -2.4945 -4.4905 -3.098 -1.4985 -5.028 0 
-4.179 -6.083001 -8.1195 -6.338 -8.227 -8.011001 -4.514 -6.3275 -5.028 
-9.356 -10.4505 -10.3885 -12.6623 -11.9519 -9.5565 -9.315001 -6.3275 
-13.7883 -12.7195 -16.7128 -16.3872 -13.4974 -14.5307 -9.315001 
-16.0573 -19.0438 -20.4377 -17.9327 -18.4716 -14.5307 
