-4.759 
n/a 
n/a 
n/a 
n/a 
-4.759 
n/a 
n/a 
n/a 
n/a 
-4.759 
n/a 
n/a 
n/a 
n/a 
-4.759 
n/a 
n/a 
n/a 
n/a 
-3.4465 -1.756 -3.6845 -4.009 0 
-4.973 -5.0105 -7.085501 -4.009 
-8.2635 -8.488501 -7.085501 
-11.8561 -8.488501 
-11.8561 
-3.6845 -4.009 -1.756 -4.118 
-7.085501 -5.4255 -4.9615 
-8.467501 -8.875501 
-12.2145 
n/a 
-3.815 -2.742 -2.489 -3.7855 -1.756 -4.7425 -2.356 -4.065 -4.8515 
-6.4185 -3.301 -4.789001 -5.972 -6.0415 -6.397 -6.8415 -7.6705 
-6.739501 -5.34 -6.876 -11.0937 -7.4165 -10.3745 -10.2755 
-8.823001 -7.542 -12.2817 -12.4687 -11.764 -13.8085 
-11.515 -13.1635 -13.6567 -16.8162 -15.198 
-2.925 -5.2625 -2.3345 -4.1685 -4.009 0 
-9.422501 -8.5845 -5.522 -6.882 -4.009 
-12.9831 -12.034 -8.51 -6.882 
-16.4326 -15.022 -8.51 
-19.4206 -15.022 
