-4.759 
n/a 
n/a 
n/a 
n/a 
-4.759 
n/a 
n/a 
n/a 
n/a 
-4.759 
n/a 
n/a 
n/a 
n/a 
-4.759 
n/a 
n/a 
n/a 
n/a 
-6.3355 -5.171 0 -8.48 -4.3625 -1.756 -4.681 
-10.304 -5.171 -8.48 -13.0221 -5.5745 -6.4275 
-10.304 -14.3754 -13.0221 -14.2341 -7.85 
-19.5084 -18.9175 -14.2341 -16.5096 
-24.0505 -20.1295 -16.5096 
-6.3355 -5.171 0 -4.628 -5.939 -4.3625 0 -4.681 
-10.304 -5.171 -4.628 -5.9615 -9.148001 -4.3625 -4.681 
-10.304 -8.870501 -5.9615 -9.162001 -9.148001 -7.104 
-14.0035 -9.801001 -9.162001 -9.162001 -12.2883 
-14.934 -13.0015 -9.162001 -12.3279 
-6.1815 -5.171 -2.186 -1.4985 -5.1845 -4.3625 -1.756 -4.681 
-8.477501 -7.490001 -3.339 -6.5205 -9.047001 -5.5745 -6.4275 
-10.389 -8.538 -8.8085 -10.1425 -10.0255 -7.85 
-11.437 -14.3283 -12.4551 -11.2318 -12.3924 
-17.2273 -17.9749 -13.5444 -13.5987 
-6.1815 -5.171 0 -6.844 -4.3625 0 -4.681 
-8.477501 -5.171 -6.844 -12.1451 -4.3625 -4.681 
-8.477501 -12.7394 -12.1451 -12.1451 -7.104 
-16.3645 -18.0405 -12.1451 -14.8866 
-21.6656 -18.0405 -14.8866 
