-4.759 
n/a 
n/a 
n/a 
n/a 
-4.759 
n/a 
n/a 
n/a 
n/a 
-4.759 
n/a 
n/a 
n/a 
n/a 
-4.759 
n/a 
n/a 
n/a 
n/a 
-3.135 -3.1385 -3.5095 -3.188 -3.17 -3.5015 -1.7565 -3.9355 -3.193 -1.934 -6.6585 -3.098 0 
-4.8745 -5.482 -7.971001 -6.3405 -8.273001 -4.783 -6.398 -7.9475 -4.837 -7.809 -9.8265 -3.098 
-6.496 -10.0815 -11.6141 -10.2985 -9.8505 -9.795 -10.3345 -9.7655 -11.452 -11.4342 -9.8265 
-11.2003 -13.7786 -15.5721 -12.9248 -15.0313 -13.8873 -12.3531 -16.3353 -15.0772 -11.4342 
-14.8974 -17.7366 -18.1984 -18.1056 -19.1236 -15.9059 -18.9229 -19.9605 -15.0772 
-3.135 -3.9335 -6.6585 -2.674 -3.17 -4.375 -1.934 -1.4985 -3.188 
-6.941 -12.1054 -9.7375 -6.334 -7.801 -5.759 -2.6125 -3.619 
-15.3681 -15.1844 -13.4277 -11.5196 -9.4915 -6.5955 -4.377 
-18.4471 -18.8746 -18.6133 -13.2101 -10.0765 -8.8625 
-22.1373 -24.0602 -20.3038 -13.7951 -12.4661 
-3.7375 -3.1385 -4.115 -2.3335 -6.6585 -2.8645 -3.3715 -4.375 -1.934 -1.4985 -3.188 0 
-5.52 -6.66 -5.623 -9.776001 -9.455501 -5.473001 -7.7665 -5.759 -2.6125 -3.619 -3.188 
-8.4975 -8.011001 -13.5045 -10.663 -12.034 -9.932501 -8.849 -6.5955 -4.377 -3.619 
-9.9455 -16.0213 -14.3915 -13.2415 -16.4935 -11.1118 -9.466001 -8.8625 -4.377 
-17.9558 -16.9083 -16.97 -17.701 -17.6728 -11.7288 -11.8162 -8.8625 
-3.135 -3.1385 -3.5095 -2.3335 -6.6585 -2.8645 -3.3715 -4.375 -1.934 -1.4985 -3.188 -3.959 
-4.8745 -5.482 -4.5055 -9.776001 -9.455501 -5.473001 -7.7665 -5.759 -2.6125 -3.619 -6.2425 
-6.496 -6.353001 -12.4158 -10.663 -12.034 -9.932501 -8.849 -6.5955 -4.377 -7.77 
-7.049 -14.3217 -13.3028 -13.2415 -16.4935 -11.1118 -9.466001 -8.8625 -8.574501 
-15.0909 -15.2087 -15.8813 -17.701 -17.6728 -11.7288 -11.8162 -13.2678 
