-4.759 
n/a 
n/a 
n/a 
n/a 
-4.759 
n/a 
n/a 
n/a 
n/a 
-4.759 
n/a 
n/a 
n/a 
n/a 
-4.759 
n/a 
n/a 
n/a 
n/a 
-9.584001 -4.147 -4.9635 -1.4985 -3.1385 -1.7695 -2.489 -3.9355 -1.4985 -7.9135 -5.213 -2.5045 -3.5315 -2.846 
-13.8194 -9.995001 -6.606 -4.2575 -4.6115 -3.1405 -7.7095 -4.938 -9.432501 -13.4883 -7.567 -6.109 -5.5435 
-19.6674 -11.6375 -9.7705 -6.0865 -6.028501 -8.333501 -8.745001 -13.3558 -15.3411 -15.8423 -11.6737 -7.68 
-21.3099 -14.802 -11.5753 -7.2015 -11.7391 -9.261001 -17.359 -19.2644 -17.6951 -19.949 -13.2447 
-24.4744 -16.6068 -12.6903 -13.3221 -12.6666 -18.0362 -23.2676 -21.6184 -21.8018 -21.52 
-8.254001 0 -3.1385 -2.674 -3.1125 -5.883 -2.5195 -9.7805 -3.8375 -1.934 -4.3185 -3.4635 -1.8085 -4.9635 -1.934 -1.4985 -4.686 0 
-8.254001 -3.1385 -4.8995 -3.6315 -7.1055 -6.8535 -12.9736 -14.0146 -5.7375 -5.6425 -8.419001 -5.0785 -7.997001 -6.2305 -2.6125 -5.404 -4.686 
-11.9525 -4.8995 -5.7865 -7.451 -7.8225 -18.0138 -17.2077 -15.9146 -8.323501 -9.222 -9.5365 -10.238 -9.103001 -6.7675 -5.916 -5.404 
-13.7135 -5.7865 -8.106001 -8.0695 -19.2502 -22.2479 -19.1077 -18.5006 -12.1638 -9.828501 -14.8566 -11.6568 -9.554001 -10.586 -5.916 
-14.6005 -8.106001 -8.4855 -19.6406 -23.4843 -24.1479 -21.6937 -22.3409 -12.7703 -15.389 -16.2754 -12.1078 -13.5423 -10.586 
-3.5315 -2.846 -1.934 -4.3185 -3.8375 -6.7805 -4.147 -5.764 -1.756 -2.3335 -3.8375 -3.75 -3.355 -3.1385 -4.101 -2.9905 
-5.5435 -5.429 -5.6425 -8.6015 -10.9855 -13.0975 -7.7735 -7.641001 -4.016 -6.9785 -7.1055 -7.194 -7.352 -6.7025 -5.48 
-8.138 -9.880501 -10.419 -16.2583 -17.3025 -16.724 -12.1663 -10.1505 -9.0245 -10.8023 -10.6095 -11.7444 -10.6215 -7.8865 
-12.8477 -14.657 -18.0758 -22.5753 -20.929 -21.1168 -14.6758 -15.159 -13.0185 -14.3063 -15.1599 -15.0139 -11.8055 
-17.6242 -22.3138 -24.3928 -26.2018 -25.3218 -23.6263 -19.6843 -19.153 -16.5225 -18.8567 -18.4294 -16.1979 
-10.7585 -1.4985 -6.7805 -4.0685 -2.5045 -7.467 -3.8375 -1.934 -4.3185 -3.251 -5.145 0 -1.4985 -3.1385 -1.7565 -1.4985 -4.2775 -3.355 -1.7565 -1.4985 -3.8375 -6.6425 0 
-12.397 -8.777 -13.019 -6.578 -9.709001 -7.575 -5.7375 -5.6425 -7.8625 -7.479 -5.145 -1.4985 -4.2575 -4.861 -2.4195 -5.1745 -6.445 -3.725 -2.4195 -5.0225 -11.0145 -6.6425 
-19.8475 -16.3587 -15.5285 -14.0027 -10.4055 -8.503501 -8.323501 -8.804501 -12.2805 -7.479 -6.873501 -4.2575 -5.1835 -5.5655 -6.0265 -6.5885 -6.5025 -4.0515 -5.7285 -13.0365 -11.0145 
-27.4292 -18.8682 -22.9532 -14.6992 -11.334 -10.485 -11.7463 -13.1283 -12.2805 -8.8195 -10.1265 -5.1835 -5.8365 -8.443501 -7.8155 -6.6235 -6.7205 -6.897 -13.8873 -13.0365 
-29.9387 -26.2929 -23.6497 -15.6277 -13.3155 -13.9078 -16.0701 -13.1283 -13.621 -12.0991 -11.0525 -5.8365 -8.632501 -10.176 -7.845 -6.815 -8.178 -15.2538 -13.8873 
