-4.759 
n/a 
n/a 
n/a 
n/a 
-4.759 
n/a 
n/a 
n/a 
n/a 
-4.759 
n/a 
n/a 
n/a 
n/a 
-4.759 
n/a 
n/a 
n/a 
n/a 
-3.3715 -2.645 -4.073 -4.6205 -1.7565 -5.601 -1.8085 -3.776 -2.9775 0 -4.3905 -2.3615 -2.186 -3.383 -5.7895 -2.0935 -2.3615 -7.4525 -3.807 -2.871 -2.4285 -2.645 -4.029 -1.7695 -4.304 -2.3615 -2.9775 -3.913 -1.756 -4.87 0 
-5.0265 -6.6365 -9.658501 -8.378 -8.830501 -7.122 -4.59 -6.533501 -2.9775 -4.3905 -6.5305 -3.5005 -4.438 -7.2165 -7.672501 -3.854 -10.575 -11.5953 -6.400001 -4.4275 -4.1105 -5.694 -4.395 -4.9335 -6.0315 -3.809 -7.648001 -5.1355 -6.321 -4.87 
-8.993501 -13.2278 -13.6178 -15.649 -10.703 -9.85 -6.7705 -6.533501 -7.826 -6.5305 -7.831 -5.7175 -8.021501 -8.814 -9.6385 -12.5103 -14.7178 -14.1883 -7.785 -4.587 -7.877501 -5.809501 -7.0395 -6.3765 -9.398001 -9.289001 -9.121 -9.182 -6.321 
-15.8238 -17.1871 -20.8888 -17.5215 -13.431 -12.2537 -6.7705 -12.357 -10.1635 -7.831 -9.9125 -8.936 -9.239 -11.0072 -18.5538 -16.6531 -17.3108 -15.5733 -7.837 -8.123 -8.4265 -9.495501 -7.993001 -9.955501 -15.1058 -11.2978 -13.3781 -9.182 
-19.7831 -24.4581 -22.7613 -20.2495 -15.8347 -12.2537 -13.347 -14.6945 -10.725 -9.9125 -13.2852 -10.275 -11.7154 -19.9225 -22.6966 -19.2461 -18.6958 -15.6253 -11.6884 -8.8855 -10.238 -10.2345 -11.8992 -15.6633 -17.1146 -15.5549 -13.3781 
-4.0725 -3.737 -4.2 -1.7695 -3.776 -1.4985 -1.756 -4.224 -1.4985 -4.972 -1.7565 -3.383 -4.152 -1.756 -4.3455 -1.7695 -4.5605 -1.7565 -3.64 -3.5795 -1.4985 -4.1145 -2.229 -3.866 0 
-9.975 -8.179501 -5.7085 -5.4185 -6.563001 -5.752501 -5.6915 -5.3515 -7.978001 -8.3835 -5.5535 -8.7095 -5.739501 -5.1205 -7.361 -7.535 -5.554 -5.468 -6.8075 -4.5845 -5.3525 -6.818501 -6.225 -3.866 
-14.5441 -10.041 -9.527 -8.623 -10.181 -9.6575 -6.5075 -12.7356 -10.442 -12.7443 -11.404 -9.995501 -9.548501 -8.2495 -13.6001 -8.953 -10.3429 -9.3985 -8.177501 -9.075001 -7.6675 -9.951 -6.225 
-16.4056 -13.8595 -12.9527 -12.4186 -14.086 -10.33 -14.1544 -15.1996 -15.1304 -18.5948 -12.69 -13.8045 -12.8379 -14.6842 -15.0181 -14.1049 -14.2734 -10.3295 -12.9048 -11.9032 -11.186 -9.951 
-20.2241 -17.2852 -16.7483 -16.3236 -14.7585 -17.9769 -16.6184 -19.888 -20.9809 -19.8808 -16.499 -17.0939 -19.2726 -16.1022 -20.17 -18.0354 -15.2044 -15.2544 -15.733 -15.4217 -11.186 
-3.135 -1.7565 -1.4985 -4.2 -2.674 -3.64 -3.135 -7.743001 -4.3905 -1.4985 -4.221 0 -1.756 -3.135 -3.64 -2.4285 -3.429 -5.3585 -2.871 -2.4285 -2.645 -4.763 -2.4945 -4.3905 -1.756 -3.7855 0 
-3.9195 -2.4195 -5.5745 -6.204 -7.355 -7.13 -9.830501 -12.5485 -5.7895 -5.1565 -4.221 -1.756 -4.5755 -6.3325 -5.851 -5.4465 -9.46 -8.966001 -4.4275 -4.1105 -7.5495 -6.6715 -6.9045 -5.5925 -5.6055 -3.7855 
-4.168 -6.4005 -7.35 -10.6465 -10.7565 -14.2445 -14.636 -13.9475 -9.443501 -5.1565 -5.442 -4.5755 -8.019001 -8.559501 -9.4025 -11.9311 -13.5595 -10.7083 -4.587 -7.885 -9.187 -11.4219 -8.789001 -10.228 -5.6055 
-7.6 -8.243501 -11.9327 -14.048 -17.871 -19.05 -16.035 -17.6015 -9.443501 -6.3535 -8.344501 -8.019001 -10.403 -12.5542 -16.0097 -16.0306 -15.3018 -10.8678 -8.1315 -9.617001 -14.2676 -13.3064 -13.5965 -10.228 
-9.1265 -12.9216 -15.3342 -21.1625 -22.6765 -20.449 -19.689 -17.6015 -10.7843 -9.193501 -11.868 -10.403 -15.0285 -19.1614 -20.1092 -17.7729 -15.4613 -14.4123 -10.0855 -14.8482 -16.1521 -18.1139 -13.5965 
-3.5065 -3.3715 -4.683 -3.4265 -3.64 -1.934 -1.8085 -4.015 -3.3755 -2.356 -2.9705 -2.7295 -4.224 -2.4285 -3.1715 -7.8745 -2.3615 -2.186 -2.6165 -3.4915 -3.2945 -7.1355 -2.0935 -4.7155 -3.2775 -3.64 -2.4285 -4.243 -3.2775 -3.64 -4.1145 -3.807 -2.871 -2.4285 -2.645 -4.029 
-6.099 -7.146 -7.253 -7.438001 -5.4425 -3.2685 -4.5105 -6.5915 -5.548 -5.069 -4.8125 -7.0745 -5.695 -5.392 -11.1765 -9.470501 -3.5005 -3.5105 -5.27 -7.597501 -8.365001 -9.472 -5.7005 -7.278501 -7.259 -5.851 -6.593 -7.268 -7.259 -7.400001 -7.84 -6.400001 -4.4275 -4.1105 -5.694 
-9.799001 -10.0475 -10.674 -9.343 -6.7105 -5.544 -6.772 -8.635501 -8.2145 -6.306 -9.288501 -8.924001 -7.749 -13.6034 -13.6449 -10.4285 -4.744 -6.1255 -9.3655 -11.279 -10.3005 -14.2985 -8.163 -11.5366 -8.955501 -10.281 -8.953001 -10.586 -11.883 -12.1629 -11.2402 -7.785 -4.587 -7.877501 
-12.7477 -13.4685 -12.579 -10.5875 -9.078501 -6.933001 -8.876 -10.523 -9.361501 -11.2772 -11.4066 -10.9748 -15.9908 -16.0218 -14.5884 -11.2925 -7.692 -10.0995 -13.0543 -14.2058 -15.2935 -17.1142 -12.7073 -13.2331 -13.9627 -13.2426 -12.4974 -15.21 -16.6459 -15.5631 -12.6252 -7.837 -8.123 
-16.1687 -15.3735 -13.8235 -12.9555 -10.8503 -8.9425 -10.6875 -10.75 -14.4357 -13.3953 -13.4574 -19.0012 -17.5274 -16.9653 -15.5574 -14.5219 -12.355 -13.5113 -15.7223 -19.0053 -17.9872 -21.6585 -14.4038 -18.2403 -16.9243 -16.787 -17.1214 -19.9729 -20.0461 -16.9481 -12.6772 -11.6884 
