-4.759 
n/a 
n/a 
n/a 
n/a 
-4.759 
n/a 
n/a 
n/a 
n/a 
-4.759 
n/a 
n/a 
n/a 
n/a 
-4.759 
n/a 
n/a 
n/a 
n/a 
-1.934 -3.9415 0 -1.4985 -3.4605 -5.563 -4.2755 -1.4985 -3.1335 -1.7565 -4.7145 0 
-5.2535 -3.9415 -1.4985 -4.652 -9.4925 -11.4163 -5.767 -4.5045 -5.0585 -6.281001 -4.7145 
-5.2535 -5.4665 -4.652 -10.7595 -15.5484 -12.9078 -8.275001 -5.7615 -10.4058 -6.281001 
-6.2755 -9.403501 -10.7595 -16.8154 -17.0399 -15.4158 -9.3295 -11.6644 -10.4058 
-9.878501 -15.7268 -16.8154 -18.3069 -19.5479 -16.4703 -15.1698 -11.6644 
-1.934 -3.9415 0 -1.8085 -3.4605 -3.849 -5.563 -4.129 -4.1685 -1.4985 -3.1335 -1.7565 -3.308 0 
-5.2535 -3.9415 -1.8085 -4.9875 -6.779 -10.1815 -11.2698 -8.745001 -5.337501 -4.5045 -5.0585 -6.083001 -3.308 
-5.2535 -6.0835 -4.9875 -7.114 -13.1147 -15.8883 -15.8858 -10.1945 -8.4925 -5.7615 -8.796 -6.083001 
-7.0645 -10.01 -7.114 -13.4875 -18.8215 -20.5043 -17.3353 -13.3495 -10.204 -10.0546 -8.796 
-10.151 -10.723 -13.4875 -19.1943 -23.4375 -21.9538 -20.4903 -15.061 -14.4971 -10.0546 
-1.934 -3.9415 0 -5.563 -8.8205 -3.1435 -3.0835 -3.16 -2.9775 -2.9645 
-5.2535 -3.9415 -5.563 -15.9613 -12.2826 -5.1475 -6.290501 -4.6715 -6.282001 
-5.2535 -9.966901 -15.9613 -19.4234 -14.2866 -8.428 -7.2555 -7.711 
-11.7875 -20.3652 -19.4234 -21.4274 -17.5671 -9.599001 -11.0526 
-22.1858 -23.8273 -21.4274 -24.7079 -18.7381 -13.6879 
-1.934 -3.9415 -5.563 -3.9535 -2.985 -3.1335 
-5.2535 -9.966901 -10.7025 -6.503 -5.868 
-11.7875 -15.1064 -13.252 -9.290001 
-16.927 -17.6559 -16.039 
-19.4765 -20.4429 
