-4.759 
n/a 
n/a 
n/a 
n/a 
-4.759 
n/a 
n/a 
n/a 
n/a 
-4.759 
n/a 
n/a 
n/a 
n/a 
-4.759 
n/a 
n/a 
n/a 
n/a 
-2.3615 -4.397 -3.8935 -3.915 -4.0005 -5.936 -4.1665 0 
-6.016 -8.484001 -7.499001 -9.157001 -10.5035 -11.0559 -4.1665 
-9.786501 -12.2085 -13.4908 -16.2012 -15.988 -11.0559 
-13.7088 -18.2003 -20.535 -21.6857 -15.988 
-19.7006 -25.2445 -26.0195 -21.6857 
-2.3615 -3.6205 -2.8645 -3.7555 -3.17 -4.377 -4.8565 
-5.509501 -6.0125 -5.647 -6.96 -5.395 -8.149501 
-7.2985 -9.165501 -8.9385 -10.2108 -9.108 
-10.103 -12.6942 -11.9631 -13.9238 
-13.6577 -15.7188 -15.6761 
-4.127 -3.9655 -3.5855 -2.8645 -5.352 -3.8105 -3.784 -4.449 -2.674 -4.5855 -3.9655 -2.915 -1.7695 -4.273 -4.9845 -4.1855 0 
-6.9775 -5.2365 -6.279 -7.216 -6.484 -8.631001 -7.265 -6.4215 -5.91 -7.8905 -7.018001 -4.548 -5.781001 -9.679001 -9.408501 -4.1855 
-8.675501 -8.12 -10.13 -8.1005 -10.553 -10.276 -8.998501 -9.671501 -9.0505 -10.674 -8.860001 -9.325001 -9.948001 -9.9805 -9.408501 
-10.427 -12.0832 -10.539 -12.1891 -12.198 -12.0095 -12.2909 -12.8456 -11.8416 -10.773 -13.8014 -13.7018 -10.1985 -9.9805 
-14.3902 -12.4922 -14.6276 -13.8341 -13.9315 -15.3019 -15.465 -15.6367 -11.9406 -15.7144 -18.1782 -13.9523 -10.1985 
-2.3615 -3.6205 -3.7555 -4.0005 -12.16972 -3.915 -4.612 
-5.509501 -7.8915 -8.146 -17.35362 -16.08472 -7.995501 
-9.767 -12.5962 -21.94632 -21.26862 -20.16522 
-14.4717 -26.39652 -25.86132 -25.34912 
-28.27202 -30.31152 -29.94182 
