-4.759 
n/a 
n/a 
n/a 
n/a 
-4.759 
n/a 
n/a 
n/a 
n/a 
-4.759 
n/a 
n/a 
n/a 
n/a 
-4.759 
n/a 
n/a 
n/a 
n/a 
-4.617 0 -10.3 0 -5.943501 0 
-4.617 -10.3 -10.3 -5.943501 -5.943501 
-15.3112 -10.3 -16.6395 -5.943501 
-15.3112 -16.6395 -16.6395 
-21.6507 -16.6395 
-4.617 0 -8.2285 0 -5.943501 0 
-4.617 -8.2285 -8.2285 -5.943501 -5.943501 
-13.2397 -8.2285 -14.6932 -5.943501 
-13.2397 -14.6932 -14.6932 
-19.7044 -14.6932 
-9.894001 0 -5.943501 0 
-11.0805 -5.943501 -5.943501 
-17.9792 -5.943501 
-17.9792 
n/a 
-4.617 -12.16972 0 -5.943501 0 
-17.18092 -12.16972 -5.943501 -5.943501 
-17.18092 -18.11322 -5.943501 
-23.12442 -18.11322 
-23.12442 
