-4.759 
n/a 
n/a 
n/a 
n/a 
-4.759 
n/a 
n/a 
n/a 
n/a 
-4.759 
n/a 
n/a 
n/a 
n/a 
-4.759 
n/a 
n/a 
n/a 
n/a 
-3.5195 -3.1475 -4.7645 -6.9285 0 -4.9105 -4.5515 -4.389 -3.6085 -4.3625 
-5.6965 -9.4455 -12.8856 -6.9285 -4.9105 -7.6325 -6.055 -8.0625 -7.294001 
-13.2027 -17.7188 -12.8856 -12.5342 -7.6325 -8.731 -9.285501 -10.4265 
-21.476 -17.7188 -18.4913 -15.2562 -8.731 -12.2891 -11.9763 
-21.476 -23.3245 -21.2133 -16.3547 -12.2891 -14.9799 
-3.5195 -15.31722 -6.276 0 -5.2655 -4.5515 -5.8995 
-18.39682 -22.12382 -6.276 -5.2655 -5.723 -7.066501 
-25.88102 -22.12382 -8.876 -5.723 -7.4835 
-25.88102 -24.72382 -9.144501 -7.4835 
-28.48102 -24.99232 -11.7332 
-3.5195 -3.1475 0 -5.043 -6.276 0 -3.6085 -4.3625 -3.0695 -2.8645 -3.7555 -4.9105 -4.5515 0 
-5.6965 -3.1475 -5.043 -7.0125 -6.276 -3.6085 -7.294001 -6.2215 -4.5495 -5.647 -9.754001 -7.6325 -4.5515 
-5.6965 -8.501 -7.0125 -7.0125 -9.8465 -7.294001 -8.816 -7.0915 -7.446 -12.1837 -10.4535 -7.6325 
-10.647 -10.609 -7.0125 -9.9455 -13.8434 -8.816 -9.8225 -10.7025 -14.0307 -12.8832 -10.4535 
-12.755 -10.609 -9.9455 -14.07 -15.3654 -9.8225 -13.4335 -17.2872 -14.7302 -12.8832 
-4.9105 -4.5515 -3.0015 
-7.6325 -8.2165 
-11.7605 
n/a 
n/a 
