-4.759 
n/a 
n/a 
n/a 
n/a 
-4.759 
n/a 
n/a 
n/a 
n/a 
-4.759 
n/a 
n/a 
n/a 
n/a 
-4.759 
n/a 
n/a 
n/a 
n/a 
-14.024 -7.2955 -3.4185 -3.2785 0 
-23.0195 -9.8325 -7.914001 -3.2785 
-25.5565 -14.436 -7.914001 
-30.16 -14.436 
-30.16 
-3.3985 0 -13.053 -3.4185 -1.7565 -6.899 -4.698 
-3.3985 -13.3646 -17.1847 -4.2475 -8.5275 -10.523 
-18.6461 -17.1847 -18.0137 -11.8311 -12.3411 
-22.4662 -18.0137 -25.5973 -15.6447 
-23.2952 -25.5973 -29.4109 
-8.045501 -2.871 -1.7565 -1.4985 -4.031 
-10.647 -3.5385 -2.4195 -5.8035 
-10.779 -3.7675 -6.703001 
-10.7985 -7.7885 
-14.8195 
-3.3985 0 -4.628 -5.939 -4.698 -3.4185 -3.2785 0 
-3.3985 -4.628 -5.9615 -7.812 -7.448001 -7.914001 -3.2785 
-9.2795 -5.9615 -7.8475 -11.4662 -12.3575 -7.914001 
-10.39 -7.8475 -11.7611 -16.3757 -12.3575 
-12.276 -11.7611 -16.6706 -16.3757 
