-4.759 
n/a 
n/a 
n/a 
n/a 
-4.759 
n/a 
n/a 
n/a 
n/a 
-4.759 
n/a 
n/a 
n/a 
n/a 
-4.759 
n/a 
n/a 
n/a 
n/a 
-4.1735 0 -12.16972 0 -2.701 0 
-4.1735 -12.16972 -12.16972 -2.701 -2.701 
-16.72082 -12.16972 -14.87072 -2.701 
-16.72082 -14.87072 -14.87072 
-19.42182 -14.87072 
-4.1735 0 -9.985001 0 -5.3565 0 
-4.1735 -9.985001 -9.985001 -5.3565 -5.3565 
-10.958 -9.985001 -15.5241 -5.3565 
-10.958 -15.5241 -15.5241 
-16.4971 -15.5241 
-4.1735 -9.985001 0 -2.701 0 
-10.958 -9.985001 -2.701 -2.701 
-10.958 -12.8686 -2.701 
-13.8416 -12.8686 
-13.8416 
-14.1585 0 -2.701 0 
-10.958 -2.701 -2.701 
-13.8416 -2.701 
-13.8416 
n/a 
