-4.759 
n/a 
n/a 
n/a 
n/a 
-4.759 
n/a 
n/a 
n/a 
n/a 
-4.759 
n/a 
n/a 
n/a 
n/a 
-4.759 
n/a 
n/a 
n/a 
n/a 
-19.8525 -4.0005 -4.753 -4.1365 0 -6.8505 
-22.3652 -9.207001 -6.777 -4.1365 -6.8505 
-27.7097 -11.5636 -6.777 -11.9994 
-30.0663 -11.5636 -15.3491 
-30.0663 -20.1357 
-5.1375 -4.0005 -4.753 -3.873 0 -5.802 
-7.914001 -9.207001 -10.143 -3.873 -5.802 
-13.6545 -14.9296 -10.143 -10.523 
-19.3771 -14.9296 -16.793 
-19.3771 -21.5796 
-18.7955 -4.0005 -4.753 -4.6715 0 -6.8505 0 
-22.2172 -9.207001 -7.403501 -4.6715 -6.8505 -6.8505 
-27.5617 -12.1901 -7.403501 -12.621 -6.8505 
-30.5448 -12.1901 -15.9682 -12.621 
-30.5448 -20.7548 -15.9682 
-11.7705 -7.025 -4.0005 -4.753 -4.6715 0 -6.8505 0 
-18.3102 -10.932 -9.207001 -7.403501 -4.6715 -6.8505 -6.8505 
-22.3552 -16.1385 -12.1901 -7.403501 -12.621 -6.8505 
-27.5617 -19.1216 -12.1901 -15.9682 -12.621 
-30.5448 -19.1216 -20.7548 -15.9682 
