-4.759 
n/a 
n/a 
n/a 
n/a 
-4.759 
n/a 
n/a 
n/a 
n/a 
-4.759 
n/a 
n/a 
n/a 
n/a 
-4.759 
n/a 
n/a 
n/a 
n/a 
-1.934 -3.1495 -4.983 -2.7295 -4.1205 -2.5045 -1.8085 -3.7075 -3.7805 -1.756 -4.3245 -4.237 0 
-4.5395 -7.6815 -7.626 -6.2825 -5.3175 -3.3625 -5.797 -6.981 -5.1485 -5.705 -7.309 -4.237 
-9.980501 -10.078 -11.43 -8.474501 -5.9545 -7.576 -9.0595 -8.0775 -8.7755 -8.849501 -7.309 
-12.377 -13.882 -13.622 -9.445001 -10.6358 -10.66 -10.375 -11.9439 -12.165 -8.849501 
-16.181 -16.074 -14.5925 -14.1263 -13.7198 -11.9755 -14.2414 -15.3334 -12.165 
-1.934 -2.3615 -3.638 -2.7295 -3.0465 -3.7805 -1.756 -4.237 
-3.539 -6.394 -6.4585 -4.932 -7.574 -5.1485 -5.738 
-7.882 -8.6905 -8.5255 -9.228001 -8.83 -7.1975 
-10.5745 -10.5035 -13.2257 -10.2545 -10.361 
-12.3875 -15.8877 -14.2522 -11.7855 
-2.7295 -3.581 -3.0465 -3.7805 -1.756 -4.237 -3.638 -2.5195 -3.7075 0 
-7.683001 -6.2905 -7.574 -5.1485 -5.738 -6.6705 -5.8435 -6.1755 -3.7075 
-10.004 -12.3074 -8.83 -7.1975 -8.083 -7.893 -8.543 -6.1755 
-16.0209 -13.5634 -10.361 -8.8795 -9.524 -11.0225 -8.543 
-17.2769 -15.0944 -12.043 -10.078 -12.7231 -11.0225 
-2.7295 -2.4945 -3.8255 -2.3615 -3.638 -2.5045 -4.237 -1.756 -3.7805 -2.5195 -1.4985 -3.7075 0 
-3.7725 -5.2 -5.8225 -6.394 -6.191501 -6.692 -5.4575 -5.31 -5.948 -3.1695 -4.6235 -3.7075 
-6.1505 -7.309 -9.790001 -8.434501 -8.142 -7.7505 -7.0385 -7.8 -6.3635 -5.905 -4.6235 
-8.279 -11.5213 -12.0325 -9.760501 -9.075001 -8.8385 -8.6815 -8.227 -7.45 -5.905 
-12.5343 -13.7638 -13.3585 -10.65 -9.937501 -9.928 -8.8345 -8.837501 -7.45 
