-4.759 
n/a 
n/a 
n/a 
n/a 
-4.759 
n/a 
n/a 
n/a 
n/a 
-4.759 
n/a 
n/a 
n/a 
n/a 
-4.759 
n/a 
n/a 
n/a 
n/a 
-3.299 -3.871 -6.1865 -3.972 0 
-7.766 -9.4165 -11.1321 -3.972 
-13.8737 -14.4895 -11.1321 
-18.9467 -14.4895 
-18.9467 
-3.299 -4.541 -2.356 -4.3305 0 -4.02 -2.3085 0 
-8.036 -6.9315 -7.145 -4.3305 -4.02 -6.772 -2.3085 
-10.9681 -12.3161 -7.145 -8.7635 -6.772 -6.772 
-16.3527 -12.3161 -12.294 -10.7495 -6.772 
-16.3527 -17.4651 -14.28 -10.7495 
-3.299 -4.1835 -4.625 -3.972 -4.02 -2.3085 
-7.6575 -8.570001 -9.458 -8.712501 -6.772 
-10.3815 -13.5914 -14.2421 -9.762001 
-15.4029 -18.3755 -15.2916 
-20.187 -19.425 
-3.299 -4.1835 -3.972 0 -4.02 -2.3085 0 
-7.6575 -8.1425 -3.972 -4.02 -6.772 -2.3085 
-12.1147 -8.1425 -8.712501 -6.772 -6.772 
-12.1147 -13.3418 -9.762001 -6.772 
-17.314 -14.3913 -9.762001 
