-4.759 
n/a 
n/a 
n/a 
n/a 
-4.759 
n/a 
n/a 
n/a 
n/a 
-4.759 
n/a 
n/a 
n/a 
n/a 
-4.759 
n/a 
n/a 
n/a 
n/a 
-8.8605 -1.756 -10.5675 0 -2.9805 -5.1805 -1.4985 -3.7455 0 
-10.1635 -13.3321 -10.5675 -2.9805 -7.329 -6.208 -5.021501 -3.7455 
-21.7396 -13.3321 -13.6824 -7.329 -8.088501 -10.674 -5.021501 
-21.7396 -16.447 -18.0309 -8.088501 -12.6979 -10.674 
-24.8545 -20.7955 -18.7904 -12.6979 -12.6979 
-8.8605 0 -9.653501 -2.7415 -5.1805 -2.3345 -3.595 0 
-8.8605 -9.653501 -12.4772 -6.6155 -6.612 -5.597 -3.595 
-18.8774 -12.4772 -16.3512 -7.537 -9.6425 -5.597 
-21.7011 -16.3512 -17.2727 -10.4425 -9.6425 
-25.5751 -17.2727 -20.1782 -10.4425 
-12.16972 -1.756 -8.9235 
-13.92572 -11.08 
-23.24972 
n/a 
n/a 
-10.2945 0 -12.16972 -4.7425 0 
-10.2945 -12.16972 -16.91222 -4.7425 
-22.84182 -16.91222 -16.91222 
-27.58432 -16.91222 
-27.58432 
