-4.759 
n/a 
n/a 
n/a 
n/a 
-4.759 
n/a 
n/a 
n/a 
n/a 
-4.759 
n/a 
n/a 
n/a 
n/a 
-4.759 
n/a 
n/a 
n/a 
n/a 
-3.539 -2.1715 -5.2985 -5.5035 -2.5195 -4.4935 -4.1115 -4.493 -4.4125 -4.732 -3.1015 -3.1435 -4.339 -1.7695 -4.8815 0 
-5.148 -7.427001 -11.514 -8.531501 -6.841001 -7.4805 -9.1675 -9.039 -10.0855 -6.285501 -6.089 -8.492001 -4.8945 -6.9655 -4.8815 
-10.733 -14.2299 -14.542 -12.99 -10.1595 -13.2611 -13.9443 -15.1086 -11.639 -8.918 -9.72 -9.1405 -9.0835 -6.9655 
-17.5359 -17.2579 -19.0005 -16.3085 -15.9401 -18.0379 -20.0139 -16.6621 -14.2715 -12.6968 -10.202 -13.5221 -9.0835 
-20.5639 -21.7164 -22.319 -22.0891 -20.7169 -24.1075 -21.5674 -19.2946 -18.0503 -13.1788 -14.8434 -13.5221 
-3.539 -4.1055 -4.4935 -4.3355 -5.5035 -5.2985 -4.5485 -1.756 -4.493 -4.4125 -7.1645 -3.321 -4.339 -1.7695 -4.8815 0 
-7.6495 -8.909 -5.761 -8.485001 -10.2925 -10.0715 -6.1455 -5.8105 -9.039 -11.9562 -10.5865 -6.196 -4.8945 -6.9655 -4.8815 
-12.493 -11.006 -10.647 -14.1962 -15.0655 -11.6685 -10.5635 -10.634 -16.9793 -15.3782 -13.4615 -6.527 -9.0835 -6.9655 
-14.8165 -16.516 -16.3582 -18.9692 -16.6625 -16.0865 -15.387 -18.5743 -20.4013 -18.2532 -13.7925 -10.6465 -9.0835 
-20.1485 -22.2272 -21.1312 -20.5662 -21.0805 -20.91 -23.3273 -21.9963 -23.2763 -18.5842 -17.912 -10.6465 
-3.539 -2.1715 -4.7525 -4.5485 -2.264 -4.4935 -3.892 -2.9705 -4.493 -4.3435 -4.4125 -3.6765 -1.756 -4.339 -4.846 -1.7695 -4.8815 0 
-5.148 -6.9345 -9.1695 -5.9705 -6.9305 -6.299 -6.314 -6.708 -7.3975 -8.587 -8.9895 -5.2955 -5.7075 -7.2255 -6.5085 -6.9655 -4.8815 
-10.1385 -12.0209 -10.7575 -11.669 -10.4675 -8.717501 -9.759001 -8.444 -12.6964 -13.9922 -10.8259 -9.6195 -8.415001 -8.486 -12.2097 -6.9655 
-15.9293 -13.6089 -16.456 -15.206 -12.886 -12.4115 -11.626 -14.0895 -18.1016 -15.8286 -15.1499 -12.303 -9.5585 -14.4494 -12.2097 
-17.5173 -19.3074 -19.993 -17.6245 -16.58 -14.2785 -17.2715 -19.4947 -19.938 -20.1526 -17.8334 -13.4465 -15.7013 -14.4494 
-3.539 -2.1715 -4.4465 -4.7 -8.3725 -4.433 -1.934 -4.4935 -4.3355 -4.493 -2.7455 -4.4125 -4.9225 -1.756 -3.1435 -4.1655 -1.7695 -4.8815 -3.7575 0 
-5.148 -7.349 -8.2015 -14.5719 -13.6475 -6.229 -6.17 -5.761 -9.487 -7.2535 -7.7455 -9.630001 -6.156 -4.1365 -7.570001 -5.249 -6.9655 -9.389501 -3.7575 
-11.6075 -11.6634 -19.5682 -19.8469 -15.4435 -9.6245 -8.0165 -10.6215 -12.4655 -13.3033 -13.3832 -11.3859 -8.663 -8.665 -9.0605 -9.18 -12.1901 -9.389501 
-15.9219 -23.0301 -24.8432 -21.6429 -18.839 -10.6485 -13.323 -14.5654 -18.5153 -18.941 -15.1391 -13.8929 -13.3047 -10.304 -13.2457 -14.634 -12.1901 
-27.2886 -28.3051 -26.6392 -25.0384 -19.863 -16.5276 -17.2669 -20.6152 -24.153 -20.6969 -17.6461 -18.5346 -14.9437 -14.4892 -18.6997 -14.634 
