-4.759 
n/a 
n/a 
n/a 
n/a 
-4.759 
n/a 
n/a 
n/a 
n/a 
-4.759 
n/a 
n/a 
n/a 
n/a 
-4.759 
n/a 
n/a 
n/a 
n/a 
-3.5155 -3.5215 -2.925 -2.674 -7.714 -4.299 
-6.436501 -5.9825 -4.1785 -11.9298 -12.4828 
-7.9525 -7.179 -13.7085 -16.6986 
-9.0185 -16.9162 -18.4773 
-18.9505 -21.685 
-1.934 -3.5155 -3.1495 -3.371 -2.925 -5.198 -3.3425 -4.803 -5.6165 
-4.6585 -5.9985 -5.6625 -6.5885 -7.008 -8.290501 -8.443501 -6.263 
-6.993001 -8.239 -8.0845 -11.0045 -10.4855 -13.6141 -8.936501 
-9.606501 -10.7752 -12.6835 -14.482 -15.8091 -14.1071 
-12.2093 -15.3742 -16.161 -19.8056 -16.3021 
-4.803 -5.362 -3.2955 -1.934 -3.1495 -3.2495 -4.5115 0 
-6.565001 -9.508001 -4.2285 -4.5395 -4.8975 -7.435 -4.5115 
-10.2135 -10.6895 -6.4035 -6.302501 -8.725 -7.435 
-11.6146 -12.8645 -8.443 -10.0925 -8.725 
-13.7896 -14.904 -12.3986 -10.0925 
-3.5155 -3.1495 -7.862 -2.7415 -4.504 -2.9905 -2.3345 -4.803 -5.6165 
-5.9985 -10.396 -10.7025 -5.676001 -4.8085 -5.014501 -6.795 -6.263 
-13.5758 -13.2365 -13.637 -5.7935 -5.5545 -8.906 -7.9335 
-16.4163 -16.171 -13.7545 -6.591001 -8.9375 -8.9905 
-19.3508 -16.2885 -14.552 -10.4425 -8.994 
