-4.759 
n/a 
n/a 
n/a 
n/a 
-4.759 
n/a 
n/a 
n/a 
n/a 
-4.759 
n/a 
n/a 
n/a 
n/a 
-4.759 
n/a 
n/a 
n/a 
n/a 
-4.2495 -5.1405 -2.4945 -3.2955 -1.7695 -3.42 -2.9905 -3.345 -3.824 -2.356 -4.4265 -4.0395 -1.7695 -3.6845 -3.135 -4.1495 -4.0395 0 
-9.181001 -7.0055 -4.6305 -3.9425 -5.853001 -6.2795 -6.3605 -8.304501 -6.018 -5.8925 -7.763 -5.765 -4.2695 -5.901 -6.5395 -7.9215 -4.0395 
-10.758 -8.5515 -5.1225 -7.6425 -8.125501 -9.5755 -11.805 -10.7763 -9.679001 -9.334001 -8.914001 -8.2115 -6.389 -10.1035 -10.7109 -7.9215 
-12.304 -9.02 -8.797501 -10.163 -11.7071 -15.5548 -14.2768 -14.4373 -13.2831 -10.6614 -11.6283 -8.863501 -10.688 -14.2749 -10.7109 
-12.7725 -12.8414 -11.6086 -14.296 -17.6864 -18.0266 -17.9378 -18.0414 -14.6105 -13.3757 -12.2803 -14.6555 -14.8594 -14.2749 
-3.9395 -12.16972 -4.6805 -1.7565 -3.8935 -3.6185 -4.723 -4.8275 0 -1.756 -3.0465 -1.8085 -4.116 -3.981 
-17.24562 -16.85022 -4.722 -5.803 -7.212 -6.8275 -9.2435 -4.8275 -1.756 -4.477 -4.1205 -5.002 -7.869 
-21.92612 -16.89172 -8.065001 -8.788 -10.3815 -12.2758 -9.2435 -6.4635 -4.477 -5.5125 -7.2535 -8.4685 
-21.96762 -20.23472 -10.733 -12.0327 -16.033 -12.2758 -10.5645 -9.419001 -5.5125 -8.741501 -10.044 
-25.31062 -22.90272 -13.9777 -17.6842 -16.033 -13.5968 -13.52 -10.7345 -8.741501 -11.5754 
-3.42 -7.3885 -2.186 -4.5485 -2.3345 -3.8935 -4.858 -1.7565 -3.6185 -1.934 -1.8085 -4.6225 -4.412 -1.7695 -3.519 -4.8915 -2.356 -4.1215 0 
-11.7215 -9.030001 -5.5785 -5.4845 -6.2825 -9.066501 -7.056001 -5.791 -5.537 -3.2685 -7.709001 -7.265501 -5.9465 -4.951 -8.0515 -6.8695 -6.759501 -4.1215 
-13.363 -12.7675 -6.275 -9.0435 -11.8989 -11.4911 -11.4461 -6.971 -6.778 -8.743501 -9.4445 -8.573501 -8.3725 -8.8175 -9.599 -11.7094 -6.759501 
-17.1005 -13.464 -9.9805 -14.7241 -14.3235 -15.8812 -12.6261 -7.864 -12.6398 -9.448501 -11.0399 -11.2429 -12.5186 -10.523 -14.5495 -11.7094 
-17.797 -17.1695 -15.6611 -17.1487 -18.7136 -17.0612 -13.5191 -14.1316 -13.3448 -11.0483 -13.7093 -15.389 -14.2241 -15.4735 -14.5495 
-4.3655 -7.6445 -2.7415 -3.8935 -4.3615 -1.756 -3.0465 -1.4985 -4.1215 -1.756 -4.6745 -4.8915 
-13.164 -10.281 -6.3385 -6.8625 -5.9605 -4.477 -4.046 -5.306 -5.305 -6.2605 -9.2195 
-15.8005 -13.878 -10.0467 -9.040501 -9.227501 -5.5235 -8.555 -6.245 -9.585 -9.896501 
-19.3975 -17.5862 -12.2247 -12.3689 -10.412 -9.986501 -9.543 -11.0034 -13.6218 
-23.1057 -19.7642 -15.5531 -13.5534 -14.875 -11.1385 -14.455 -15.0402 
