-4.759 
n/a 
n/a 
n/a 
n/a 
-4.759 
n/a 
n/a 
n/a 
n/a 
-4.759 
n/a 
n/a 
n/a 
n/a 
-4.759 
n/a 
n/a 
n/a 
n/a 
-3.4775 0 -8.27 -3.564 -4.414 -1.756 -1.4985 -3.3755 -3.3755 -2.925 -3.511 -2.186 -3.402 -2.264 -4.9735 -1.4985 -8.283501 -2.5045 -3.8225 -4.1835 0 -4.9735 -4.8135 -2.264 -3.8905 0 -3.7875 -1.4985 -3.301 -5.1735 -1.7565 -4.1685 -3.5015 -2.0935 -2.5685 -1.4985 -5.2835 0 
-3.4775 -8.27 -12.2608 -8.533501 -5.3535 -3.0405 -4.057 -6.396 -5.296 -5.669001 -6.2105 -4.6135 -3.793 -7.238001 -5.8595 -9.5015 -10.495 -6.269 -6.525001 -4.1835 -4.9735 -9.470501 -7.152501 -6.1735 -3.8905 -3.7875 -5.007 -4.6235 -7.3105 -5.7375 -5.5755 -8.009501 -4.7905 -3.987 -3.7015 -6.733001 -5.2835 
-12.7135 -12.2608 -17.2303 -9.519 -7.3645 -5.713 -8.1595 -9.684501 -7.5605 -7.919001 -9.048 -4.731 -8.901001 -7.971501 -14.4689 -11.7854 -14.5479 -9.998501 -6.525001 -9.953501 -9.470501 -12.4331 -9.637001 -6.1735 -7.397 -5.007 -8.0465 -8.613501 -8.358 -7.8685 -9.889501 -9.7735 -6.495 -5.0335 -7.672 -6.733001 
-16.7043 -17.2303 -18.2158 -11.6326 -9.125501 -10.1895 -9.887 -12.1986 -9.4195 -10.7025 -9.184501 -9.388 -9.441501 -16.7385 -16.7528 -15.8383 -18.2774 -9.998501 -13.1248 -14.4775 -12.4331 -14.9176 -9.637001 -9.797001 -8.688001 -8.0465 -12.4695 -8.781 -10.533 -12.4037 -11.5157 -11.558 -7.6515 -9.297501 -7.672 
-21.6738 -18.2158 -20.3294 -13.3936 -13.9638 -11.917 -12.5229 -14.0576 -12.2984 -10.839 -13.8895 -9.87 -18.3379 -19.0224 -20.8057 -19.5678 -18.2774 -16.7339 -17.6488 -17.4401 -14.9176 -14.9176 -13.3893 -11.102 -12.1053 -12.4695 -12.637 -11.0146 -15.0682 -14.0299 -13.3002 -12.7145 -12.1145 -9.297501 
-3.4775 -8.283501 -4.3195 -3.8225 -3.301 -5.2835 -3.452 0 -1.4985 -4.598 -1.7565 -3.8905 0 -4.1685 -3.3755 -2.0935 -2.5685 -5.2835 -2.4945 -1.4985 -3.9675 -1.7565 -6.4735 
-12.727 -13.1248 -7.2385 -6.0705 -6.3795 -8.1455 -3.452 -1.4985 -5.8625 -4.855 -4.622 -3.8905 -4.1685 -6.498001 -4.9855 -3.987 -6.471 -6.769 -3.9315 -5.356501 -5.258 -7.466001 
-17.5683 -16.0438 -10.2287 -9.786401 -9.064501 -8.1455 -5.1735 -5.8625 -6.0925 -8.174001 -4.622 -7.6695 -6.498001 -8.713001 -7.089001 -7.6675 -7.419 -7.969 -8.543 -5.832 -10.3815 
-20.4873 -19.034 -13.9446 -12.4714 -9.064501 -10.194 -10.2755 -6.0925 -8.868 -8.174001 -8.371501 -10.5425 -8.713001 -11.0239 -10.718 -9.989 -8.54 -13.2293 -9.1245 -11.1703 
-23.4775 -22.7499 -16.6296 -12.4714 -12.2308 -15.296 -10.477 -8.868 -8.868 -12.5861 -11.4525 -13.1159 -11.0239 -14.6529 -13.0395 -11.11 -14.6649 -13.8108 -14.6038 
-3.4775 -2.5685 -2.4945 -4.4635 -8.283501 -2.5045 -9.735001 0 -1.756 -5.547 0 -5.891 0 -3.321 -3.301 -3.9675 -3.1495 -2.4945 -8.27 -4.414 
-6.21 -5.3665 -6.735 -14.112 -10.495 -13.1569 -9.735001 -1.756 -6.4775 -5.547 -5.891 -5.891 -3.321 -6.8835 -8.0705 -7.2085 -4.459 -10.035 -13.1108 
-8.4385 -8.383 -16.7981 -16.3235 -21.4358 -13.1569 -11.575 -6.4775 -6.4775 -12.4766 -5.891 -9.188001 -6.8835 -12.2028 -11.6209 -8.190001 -12.3323 -14.8758 
-10.7575 -18.8041 -19.0096 -27.2643 -21.4358 -14.9969 -16.2965 -6.4775 -13.8363 -12.4766 -9.188001 -12.8393 -12.2028 -15.7532 -12.6024 -16.2273 -17.1731 
-22.152 -21.0156 -29.9504 -27.2643 -23.2758 -19.7184 -16.2965 -13.8363 -13.8363 -15.7736 -12.8393 -18.1586 -15.7532 -16.7347 -20.6397 -21.0681 
-3.4775 -8.8655 -2.186 -1.4985 -3.8225 -5.283 0 -3.402 -2.264 -2.3615 -3.098 -1.4985 -5.1845 -3.1385 -2.229 -3.9745 -1.7565 -4.9735 -4.6335 -4.3065 0 -6.6215 -1.7565 -2.5685 -4.418 0 -1.756 -1.4985 -4.807 -2.4285 -6.19 -2.4945 -2.264 -1.4985 -3.3755 0 
-13.309 -10.622 -3.339 -4.887 -9.522501 -5.283 -3.402 -3.793 -3.8255 -5.7725 -4.514 -6.5205 -7.4095 -4.6125 -6.397 -4.5865 -6.3795 -9.6175 -7.6145 -4.3065 -6.6215 -8.748001 -3.938 -5.742 -4.418 -1.756 -3.0405 -5.9145 -6.9705 -8.2355 -8.429 -4.634 -2.9195 -4.057 -3.3755 
-15.0655 -11.775 -6.5005 -10.2135 -9.522501 -7.920501 -3.793 -5.686501 -8.138 -7.7635 -9.615001 -7.6315 -9.0015 -8.846001 -7.914001 -9.779501 -10.5745 -12.6427 -7.6145 -12.0956 -8.748001 -11.1619 -7.560501 -5.742 -5.694 -3.0405 -7.235 -8.2145 -13.3979 -10.389 -10.8803 -5.231 -5.120501 -4.057 
-16.2185 -14.9365 -10.5325 -10.2135 -12.233 -8.954 -5.686501 -9.675501 -9.4385 -13.0049 -10.676 -9.2235 -13.5332 -10.6888 -13.3804 -14.1201 -13.5997 -12.6427 -15.909 -14.2221 -11.1619 -14.7844 -7.560501 -7.362 -6.784 -7.235 -9.8935 -14.9179 -15.5514 -12.8403 -11.4773 -6.635 -5.120501 
-19.38 -18.9685 -10.5325 -13.1402 -13.2665 -11.0117 -9.675501 -10.5055 -14.8169 -14.0659 -12.268 -13.8048 -15.376 -16.1552 -17.721 -17.1453 -13.5997 -20.9372 -18.0355 -16.636 -14.7844 -14.7844 -8.692501 -8.8335 -11.3187 -9.8935 -16.7729 -17.0714 -18.0027 -13.4373 -12.8813 -6.635 
