-4.759 
n/a 
n/a 
n/a 
n/a 
-4.759 
n/a 
n/a 
n/a 
n/a 
-4.759 
n/a 
n/a 
n/a 
n/a 
-4.759 
n/a 
n/a 
n/a 
n/a 
-3.995 -6.04 -4.179 -2.5045 -3.976 -13.2845 
-7.666 -9.495501 -6.455501 -6.67 -18.3777 
-11.5245 -11.889 -10.328 -21.5993 
-13.918 -15.7615 -25.2573 
-17.7905 -30.6908 
-3.995 -6.054 -3.6215 -4.2315 -1.934 -6.5995 -3.543 -3.6115 
-7.833 -6.107501 -7.6315 -5.4105 -9.755501 -9.25 -5.4165 
-7.948501 -9.790001 -8.908501 -13.8638 -12.448 -11.7701 
-12.9152 -11.219 -17.5454 -16.5563 -14.9681 
-14.3442 -19.8559 -20.2379 -19.0764 
-3.995 -4.179 -6.5995 -3.543 -4.3365 
-7.1765 -11.7281 -9.25 -7.521 
-14.845 -14.3786 -13.8746 
-17.4955 -19.0032 
-22.1201 
-1.4985 -3.995 -6.054 -2.0935 -1.8085 -6.6715 -4.323 
-4.712 -7.833 -8.966001 -3.385 -8.434 -10.882 
-7.9005 -10.8744 -10.131 -9.6645 -12.3996 
-11.0941 -12.0394 -16.4973 -13.6323 
-12.2591 -18.4057 -20.7599 
