-4.759 
n/a 
n/a 
n/a 
n/a 
-4.759 
n/a 
n/a 
n/a 
n/a 
-4.759 
n/a 
n/a 
n/a 
n/a 
-4.759 
n/a 
n/a 
n/a 
n/a 
-3.288 -2.9965 0 -3.5455 -3.75 -3.6835 -3.2895 -3.9955 -2.229 -4.259 
-4.8765 -2.9965 -3.5455 -5.228001 -8.201 -4.478 -5.96 -5.32 -6.0325 
-4.8765 -6.833 -5.228001 -9.792001 -8.5515 -6.0265 -7.6745 -8.226501 
-8.811501 -8.763 -9.792001 -10.307 -10.4422 -7.8725 -10.9678 
-11.5799 -13.5416 -10.307 -12.3767 -12.2882 -11.3826 
-3.288 -2.9965 -4.8115 -3.6835 -3.2895 -4.156 
-4.8765 -8.274 -8.58 -4.478 -7.573 
-10.259 -12.2779 -10.1595 -8.052501 
-14.4419 -13.8574 -13.734 
-16.0214 -17.4319 
-3.288 -2.9965 0 -7.252 -3.6835 -3.2895 -5.11 -4.1445 -6.686 0 
-4.8765 -2.9965 -5.0795 -9.5305 -4.478 -8.650001 -9.0905 -10.884 -6.686 
-4.8765 -8.726001 -9.673 -10.0235 -8.7215 -13.0049 -15.8904 -10.884 
-11.4968 -13.4245 -10.6893 -15.275 -13.1744 -19.8048 -15.8904 
-16.1953 -14.4408 -15.275 -19.7279 -19.9743 -19.8048 
-3.288 0 -7.295501 -3.6835 -3.2895 -5.8525 -3.664 0 
-3.288 -5.228001 -9.679001 -4.478 -10.8415 -7.653 -3.664 
-9.191001 -9.792001 -10.1425 -12.3334 -12.642 -7.653 
-14.315 -10.307 -18.5046 -14.1339 -12.642 
-14.83 -18.6836 -20.4841 -14.1339 
