-4.759 
n/a 
n/a 
n/a 
n/a 
-4.759 
n/a 
n/a 
n/a 
n/a 
-4.759 
n/a 
n/a 
n/a 
n/a 
-4.759 
n/a 
n/a 
n/a 
n/a 
-5.1845 -3.3195 -2.186 -4.6365 -3.3195 
-7.8665 -5.3525 -7.927501 -8.0325 
-10.238 -11.6568 -10.443 
-16.5423 -14.1723 
-19.0578 
-5.1845 -3.3195 -2.186 -3.383 -3.5905 0 
-7.8665 -5.3525 -4.438 -5.951 -3.5905 
-10.238 -7.2445 -7.0905 -5.951 
-12.13 -10.096 -7.0905 
-14.9815 -10.096 
-5.1845 -3.3195 -2.186 -3.383 -4.5735 
-7.8665 -5.3525 -4.438 -6.971 
-10.238 -7.2445 -8.143001 
-12.13 -11.2281 
-16.1136 
-5.1845 -3.3195 -2.186 -3.383 -3.5905 0 
-7.8665 -5.3525 -4.438 -5.951 -3.5905 
-10.238 -7.2445 -7.0905 -5.951 
-12.13 -10.096 -7.0905 
-14.9815 -10.096 
