-4.759 
n/a 
n/a 
n/a 
n/a 
-4.759 
n/a 
n/a 
n/a 
n/a 
-4.759 
n/a 
n/a 
n/a 
n/a 
-4.759 
n/a 
n/a 
n/a 
n/a 
-1.756 -3.074 -2.4265 -5.0655 -1.7565 -4.278 -3.2945 -4.3725 
-4.566 -5.653 -7.587 -5.119 -6.515 -7.710501 -7.909 
-6.903501 -10.7495 -7.704 -10.5007 -9.7515 -12.7232 
-12.067 -10.8665 -13.2307 -13.7372 -14.7642 
-12.184 -16.3932 -16.4672 -18.7499 
-3.4865 -8.3935 -2.8645 -3.1125 -3.9595 -1.7695 -5.3045 -2.7455 -9.8555 -1.934 -2.5685 -3.2295 -1.4985 -3.188 
-13.2216 -11.9766 -3.5345 -5.4645 -4.9785 -7.134 -8.06 -13.5596 -11.9887 -4.244 -4.661 -3.844 -3.619 
-16.8047 -12.6466 -5.921 -6.261 -11.0672 -9.611 -19.4003 -15.6928 -14.2987 -7.26 -4.894 -5.1895 
-17.4747 -15.0331 -6.67 -12.6747 -13.5442 -21.1319 -21.5335 -18.0028 -17.3147 -7.674 -5.231 
-19.8612 -15.7821 -13.3161 -15.1517 -25.0651 -23.2651 -23.8435 -21.0188 -17.7287 -7.909 
-1.756 -4.278 -2.229 -3.188 -4.196 -3.664 -3.511 -3.4865 -4.3725 0 
-6.4635 -6.414001 -4.928 -7.87 -9.654501 -7.394501 -7.45 -7.9045 -4.3725 
-8.565001 -10.041 -10.368 -13.6879 -13.385 -12.2271 -12.4922 -7.9045 
-12.472 -15.648 -16.1859 -17.4184 -18.2176 -17.2693 -12.4922 
-18.079 -21.4659 -19.9164 -22.251 -23.2598 -17.2693 
-3.074 -2.4265 -4.0935 -1.4985 -3.4865 -4.1595 -1.7565 -3.1435 -3.188 -4.0005 -3.664 0 
-5.653 -5.351 -4.916 -4.9305 -7.3005 -6.322001 -4.124 -6.394 -4.969501 -8.521501 -3.664 
-8.3335 -6.268001 -8.2495 -9.2915 -9.23 -9.6175 -7.554 -7.697001 -8.8555 -8.521501 
-8.932 -9.668501 -12.9707 -10.718 -12.7177 -13.1653 -8.7775 -11.8684 -8.8555 
-12.8139 -14.4383 -14.3972 -14.2057 -16.2655 -14.3888 -12.9775 -11.8684 
