-4.759 
n/a 
n/a 
n/a 
n/a 
-4.759 
n/a 
n/a 
n/a 
n/a 
-4.759 
n/a 
n/a 
n/a 
n/a 
-4.759 
n/a 
n/a 
n/a 
n/a 
-3.0835 -4.867 0 -4.5735 -4.245 
-7.389 -4.867 -4.5735 -7.5575 
-7.389 -9.0775 -7.5575 
-12.0311 -12.5973 
-15.5509 
-3.8385 -3.522 0 -4.5735 -4.245 
-8.398001 -3.522 -4.5735 -7.5575 
-8.398001 -8.3765 -7.5575 
-13.5603 -10.6605 
-15.8443 
-1.4985 -3.0835 -4.584 0 -6.933001 -4.245 
-3.535 -7.693501 -4.584 -6.933001 -8.585001 
-8.099501 -7.693501 -12.4842 -8.585001 
-8.099501 -15.9573 -14.1362 
-16.4897 -17.6093 
-4.1035 -1.7565 -4.812 0 -6.933001 -4.245 
-5.0635 -6.211501 -4.812 -6.933001 -8.585001 
-9.993101 -6.211501 -12.7954 -8.585001 
-9.993101 -14.5149 -14.4474 
-18.2965 -16.1669 
