-4.759 
n/a 
n/a 
n/a 
n/a 
-4.759 
n/a 
n/a 
n/a 
n/a 
-4.759 
n/a 
n/a 
n/a 
n/a 
-4.759 
n/a 
n/a 
n/a 
n/a 
-4.237 -3.074 -2.5195 -1.4985 -3.7075 
-7.656 -5.787 -3.1695 -4.6235 
-10.1465 -6.4295 -5.905 
-10.6945 -9.479 
-13.744 
-4.2485 -6.702 -6.979001 -1.756 -3.7075 -3.974 -1.7565 -4.2485 
-12.1187 -14.2056 -9.465501 -5.7245 -8.557501 -4.613 -5.969 
-19.6223 -16.6921 -13.4982 -10.368 -9.493001 -7.058001 
-22.1088 -20.7248 -18.1417 -11.3035 -11.931 
-26.1415 -25.3683 -19.0772 -13.7415 
-4.237 -5.5375 -4.16 -1.756 -3.7075 -6.76 -2.742 -3.013 -3.948 -3.6615 -1.934 -1.4985 -4.2485 0 
-8.255 -7.4195 -5.5385 -5.7245 -11.7227 -9.1405 -4.9465 -7.186001 -6.769 -4.437 -2.6125 -5.307 -4.2485 
-9.683001 -8.505501 -10.078 -14.2277 -14.1032 -11.5972 -8.949 -10.287 -7.513 -5.0245 -6.895 -5.307 
-10.871 -13.4964 -18.5812 -16.6082 -16.5599 -15.5997 -12.1842 -11.031 -8.077001 -8.142 -6.895 
-15.8619 -21.9996 -20.9617 -19.0649 -20.5624 -18.8349 -12.9282 -11.595 -11.3815 -8.142 
-4.237 -4.8515 -1.756 -3.7075 -2.229 -3.7405 -4.8515 -4.4305 -1.4985 -4.2485 -1.7565 -1.4985 -4.113 -1.934 -1.8085 -3.6065 -4.412 
-9.6425 -6.1245 -5.7245 -5.5255 -6.6165 -7.2955 -9.1835 -4.947 -5.307 -5.5065 -2.4195 -5.425 -6.1785 -3.2685 -4.464 -6.804501 
-11.1063 -10.459 -7.451 -10.543 -10.6735 -12.2657 -9.497001 -8.2085 -5.982501 -5.9265 -6.318501 -7.0045 -7.764 -5.4615 -7.034 
-15.4408 -12.4707 -12.8827 -14.6 -15.6437 -12.5792 -12.8847 -8.6555 -6.1565 -9.206 -8.1085 -8.625 -10.1505 -7.0585 
-17.4525 -17.9024 -16.9397 -19.5702 -15.9572 -15.9669 -13.3317 -8.8435 -9.513 -10.443 -9.8625 -11.2761 -11.8215 
