-4.759 
n/a 
n/a 
n/a 
n/a 
-4.759 
n/a 
n/a 
n/a 
n/a 
-4.759 
n/a 
n/a 
n/a 
n/a 
-4.759 
n/a 
n/a 
n/a 
n/a 
-4.567 -3.4465 -2.5235 -4.9995 0 -4.8485 0 -3.3195 -4.395 -4.5995 -4.197 -2.4285 -3.4715 -4.945 -3.5455 -6.586 -2.95 0 
-7.983001 -4.457 -8.132001 -4.9995 -4.8485 -4.8485 -3.3195 -6.5575 -8.949 -7.409 -6.5765 -5.8135 -5.7345 -8.144 -10.177 -9.767501 -2.95 
-8.7335 -11.5209 -8.132001 -9.399 -4.8485 -8.6815 -6.5575 -11.9029 -12.6865 -9.5485 -10.281 -8.400001 -9.193501 -15.0481 -13.3585 -9.767501 
-16.2948 -11.5209 -12.7209 -9.399 -8.6815 -12.7655 -11.9029 -15.6404 -14.826 -13.2986 -13.0379 -12.1774 -16.0876 -18.2296 -13.3585 
-16.2948 -16.1098 -12.7209 -13.5528 -12.7655 -18.1109 -15.6404 -17.7799 -18.5761 -16.0555 -16.8153 -19.0715 -19.2691 -18.2296 
-3.681 -2.9705 -3.423 -4.4755 -4.9225 -2.4285 -4.2875 0 -3.2775 -2.5045 -4.9995 0 -4.5995 -1.7565 -4.405 -4.395 0 -3.4715 -4.945 -3.2645 -2.6165 -2.489 -4.26 0 
-5.784 -5.139501 -6.9755 -9.978001 -6.7125 -6.165 -4.2875 -3.2775 -3.678 -7.811501 -4.9995 -4.5995 -5.7695 -5.849501 -5.2355 -4.395 -3.4715 -5.7345 -7.8785 -4.457 -3.82 -5.4445 -4.26 
-7.875 -8.6805 -13.1842 -11.768 -9.240001 -6.165 -8.22 -3.678 -8.570001 -7.811501 -10.958 -5.7695 -10.7641 -6.849501 -5.2355 -8.1885 -5.7345 -9.131001 -8.915501 -4.7245 -6.321 -5.4445 
-11.8186 -15.0218 -14.9742 -14.2955 -9.240001 -9.387001 -8.367001 -8.570001 -8.570001 -14.0858 -12.128 -10.7641 -11.7641 -6.849501 -9.118501 -10.31 -9.131001 -10.042 -8.9735 -7.725 -6.321 
-18.1599 -16.8118 -17.5017 -14.2955 -12.6444 -9.578501 -13.6152 -8.570001 -14.9265 -15.2558 -17.1226 -11.7641 -11.7641 -11.4021 -10.554 -13.7065 -10.042 -10.1135 -10.5755 -7.725 
-3.013 -2.6165 -3.4465 -4.405 -4.395 0 -3.4715 0 -4.945 -3.843 
-3.724 -5.67 -8.0445 -5.2355 -4.395 -3.4715 -3.4715 -4.945 -7.6665 
-6.101501 -10.7175 -9.9305 -5.2355 -8.1885 -3.4715 -5.7345 -7.6665 
-11.1696 -12.6035 -9.9305 -9.118501 -8.1885 -5.7345 -8.469 
-13.0556 -12.6035 -13.8777 -9.118501 -10.31 -8.469 
-4.2765 -3.3425 -4.05 -5.291 -1.4985 -4.472 0 -4.936 0 -3.3195 -4.395 -5.088 -3.9035 0 -3.4715 -4.945 
-6.129 -8.344501 -10.016 -5.949501 -5.5535 -4.472 -4.936 -4.936 -3.3195 -6.5575 -10.1345 -9.626 -3.9035 -3.4715 -5.7345 
-11.6082 -14.9081 -10.387 -10.6187 -5.5535 -8.358 -4.936 -8.653501 -6.5575 -13.0884 -14.6725 -9.626 -6.8245 -5.7345 
-18.1718 -15.2791 -15.0562 -10.6187 -10.7021 -8.358 -8.653501 -12.4517 -13.0884 -17.6264 -14.6725 -12.7798 -9.92 
-18.5428 -19.9483 -15.0562 -15.7673 -10.7021 -13.4235 -12.4517 -18.9826 -17.6264 -17.6264 -17.8263 -15.8753 
