-4.759 
n/a 
n/a 
n/a 
n/a 
-4.759 
n/a 
n/a 
n/a 
n/a 
-4.759 
n/a 
n/a 
n/a 
n/a 
-4.759 
n/a 
n/a 
n/a 
n/a 
-7.0075 -3.84 0 -10.6255 -5.326 -4.129 -1.7695 -4.869 
-11.6347 -3.84 -10.6255 -15.9515 -9.6675 -5.144 -7.344501 
-11.6347 -15.6123 -15.9515 -20.293 -11.0135 -12.1512 
-23.407 -20.9383 -20.293 -21.639 -18.0207 
-28.733 -25.2798 -21.639 -28.6462 
-3.9655 -3.402 -4.1745 -1.756 -4.241 -5.27 -3.9535 -1.934 -1.4985 -3.158 -4.869 0 
-8.642 -8.029 -5.4895 -5.515 -8.1595 -8.476001 -5.3325 -2.6125 -4.178 -7.542001 -4.869 
-13.2984 -9.226001 -10.4593 -9.9455 -11.7379 -9.345 -6.08 -5.265 -8.176001 -7.542001 
-14.4954 -14.458 -14.8898 -13.5239 -12.6069 -10.0485 -7.920501 -8.780001 -8.176001 
-19.7274 -18.8885 -18.4682 -14.3929 -13.3104 -11.9816 -10.467 -8.780001 
-3.9655 -4.1745 -1.756 -8.475 -4.866 -3.152 -3.9535 -2.5045 -4.869 0 
-9.392 -5.4895 -7.368 -8.822001 -8.148001 -6.693501 -5.6505 -8.5605 -4.869 
-10.6745 -11.6235 -9.265 -10.9545 -11.8111 -8.106 -12.2481 -8.5605 
-16.9363 -13.9818 -11.895 -14.2606 -13.2236 -14.8576 -12.2481 
-19.1668 -16.4746 -15.6369 -15.6731 -19.9752 -14.8576 
-1.934 -6.293 -4.5165 -1.934 -4.869 -4.184 -3.158 -3.9535 
-8.1905 -10.3545 -6.12 -6.114 -9.275001 -6.6165 -6.909 
-12.6802 -12.2302 -9.8675 -10.5225 -11.8003 -10.5975 
-14.5559 -15.9777 -14.7202 -13.0478 -15.7813 
-18.3034 -20.8304 -17.2455 -17.0288 
