-4.759 
n/a 
n/a 
n/a 
n/a 
-4.759 
n/a 
n/a 
n/a 
n/a 
-4.759 
n/a 
n/a 
n/a 
n/a 
-4.759 
n/a 
n/a 
n/a 
n/a 
-4.447 0 -9.862 0 -5.1645 0 
-4.447 -9.862 -9.862 -5.1645 -5.1645 
-14.6784 -9.862 -15.2317 -5.1645 
-14.6784 -15.2317 -15.2317 
-20.0481 -15.2317 
-4.447 0 -6.3705 0 -5.1645 
-4.447 -6.3705 -6.3705 -5.1645 
-10.8025 -6.3705 -10.2385 
-10.8025 -10.2385 
-14.6705 
-4.447 0 -6.3705 0 -5.1645 0 
-4.447 -6.3705 -6.3705 -5.1645 -5.1645 
-10.8025 -6.3705 -10.2385 -5.1645 
-10.8025 -10.2385 -10.2385 
-14.6705 -10.2385 
-4.447 0 -6.701 0 -5.1645 0 
-4.447 -6.701 -6.701 -5.1645 -5.1645 
-11.5174 -6.701 -10.9855 -5.1645 
-11.5174 -10.9855 -10.9855 
-15.8019 -10.9855 
