-4.759 
n/a 
n/a 
n/a 
n/a 
-4.759 
n/a 
n/a 
n/a 
n/a 
-4.759 
n/a 
n/a 
n/a 
n/a 
-4.759 
n/a 
n/a 
n/a 
n/a 
-5.015 -3.1335 -1.756 -3.456 -4.16 0 
-7.458 -4.562 -5.3825 -8.0915 -4.16 
-9.0705 -7.5495 -10.5975 -8.0915 
-12.109 -13.0833 -10.5975 
-17.6428 -13.0833 
-3.1335 -1.7695 -3.8905 0 -3.564 -3.1335 
-4.809 -5.2345 -3.8905 -3.564 -5.803 
-7.3715 -5.2345 -8.377501 -5.803 
-7.3715 -10.2085 -11.0539 
-12.5857 -12.8849 
-3.8905 -6.654 -3.1335 
-11.6085 -8.452001 
-13.919 
n/a 
n/a 
-3.1335 -1.7695 -3.8905 0 -3.564 -3.1335 
-4.809 -5.2345 -3.8905 -3.564 -5.803 
-7.3715 -5.2345 -8.377501 -5.803 
-7.3715 -10.2085 -11.0539 
-12.5857 -12.8849 
