-4.759 
n/a 
n/a 
n/a 
n/a 
-4.759 
n/a 
n/a 
n/a 
n/a 
-4.759 
n/a 
n/a 
n/a 
n/a 
-4.759 
n/a 
n/a 
n/a 
n/a 
-9.000501 -9.228001 -2.7415 -2.871 -1.7565 -1.4985 -3.17 -4.4695 -9.228001 0 
-18.7261 -12.1673 -4.8915 -3.5385 -2.4195 -3.7115 -5.473001 -14.4727 -9.228001 
-21.6654 -14.3173 -5.0085 -3.7675 -4.4355 -5.7745 -16.1182 -14.4727 
-23.8154 -14.4343 -5.2005 -4.622 -6.2345 -16.4595 -16.1182 
-23.9324 -14.6263 -6.073 -6.419 -17.1615 -16.4595 
-1.934 -4.5735 -3.5215 0 -3.9725 -9.000501 -6.864 -2.186 -1.4985 -4.4695 -3.9725 -1.934 -1.4985 -6.864 -3.8405 0 
-5.86 -6.2465 -3.5215 -3.9725 -10.3045 -9.5325 -9.234501 -3.339 -5.252501 -7.8645 -6.144 -2.6125 -7.8675 -8.532001 -3.8405 
-6.6365 -6.2465 -7.872 -10.3045 -10.77 -12.0912 -10.3825 -6.966 -8.261001 -9.708 -6.831 -9.080501 -9.044001 -8.532001 
-6.6365 -9.7155 -14.6428 -10.77 -13.3287 -13.2392 -14.0095 -10.1105 -10.3175 -10.3915 -13.7096 -10.0715 -9.044001 
-10.185 -16.7285 -15.1083 -13.3287 -14.4767 -16.8662 -17.154 -12.167 -11.001 -17.2701 -14.7006 -10.0715 
-8.826501 -8.164001 -2.7415 -2.871 -1.7565 -1.4985 -4.4695 -6.864 -4.6805 
-10.523 -10.5645 -4.8915 -3.5385 -2.4195 -5.252501 -10.0855 -8.916 
-12.9235 -12.7145 -5.0085 -3.7675 -6.027 -10.2225 -12.3297 
-15.0735 -12.8315 -5.2005 -7.2125 -11.1504 -12.5483 
-15.1905 -13.0235 -8.612 -12.5949 -13.4762 
-3.9225 -3.8315 -7.4885 0 -7.6435 -6.864 -2.7415 -3.383 -4.4695 0 
-7.418 -9.322001 -7.4885 -7.6435 -15.1275 -9.5625 -4.8365 -6.6995 -4.4695 
-13.4169 -9.322001 -15.7592 -15.1275 -17.826 -11.6921 -8.35 -6.6995 
-13.4169 -17.8609 -23.2432 -17.826 -19.9556 -15.2056 -8.35 
-21.9558 -25.3449 -25.9417 -19.9556 -23.4691 -15.2056 
