-4.759 
n/a 
n/a 
n/a 
n/a 
-4.759 
n/a 
n/a 
n/a 
n/a 
-4.759 
n/a 
n/a 
n/a 
n/a 
-4.759 
n/a 
n/a 
n/a 
n/a 
-8.252501 -9.223001 -2.186 -5.1875 -2.229 -4.6335 -1.756 -6.4115 -3.452 
-10.3475 -10.674 -7.997001 -7.694 -6.498 -6.014 -7.643 -10.5609 
-11.7985 -16.485 -10.3285 -12.3972 -7.9185 -13.1282 -11.9424 
-17.6095 -18.8165 -15.0317 -13.8177 -15.3895 -17.4276 
-19.941 -23.5197 -16.4522 -21.2887 -19.6889 
-10.318 -9.223001 -2.186 -3.699 -3.452 -1.934 -1.4985 -5.1875 -4.2655 
-20.5046 -10.674 -4.636 -6.791 -5.2935 -2.6125 -5.496 -7.408 
-21.9556 -13.124 -9.805 -8.235001 -5.819 -7.187 -7.738501 
-24.4056 -18.293 -11.3114 -8.658001 -10.5325 -8.455501 
-29.5746 -19.7994 -11.7344 -13.7691 -11.801 
-9.884001 -9.223001 -2.186 -1.4985 -4.485 -3.452 -2.0935 -6.102 0 
-19.1254 -10.674 -3.339 -4.9985 -6.898 -5.378 -7.744501 -6.102 
-20.5764 -11.827 -6.8695 -7.4005 -8.706 -10.4765 -7.744501 
-21.7294 -15.3575 -8.774 -9.196501 -14.1849 -10.4765 
-25.2599 -17.262 -9.7355 -14.8664 -14.1849 
-9.536 -7.093 -2.186 -4.4525 -2.0935 -6.0695 -4.2655 0 
-10.259 -9.400001 -8.197001 -6.077001 -8.445001 -10.168 -4.2655 
-12.566 -15.5438 -9.302 -12.9509 -12.7153 -10.168 
-18.7098 -16.6488 -16.3145 -17.2212 -12.7153 
-19.8148 -23.6613 -20.5848 -17.2212 
