-4.759 
n/a 
n/a 
n/a 
n/a 
-4.759 
n/a 
n/a 
n/a 
n/a 
-4.759 
n/a 
n/a 
n/a 
n/a 
-4.759 
n/a 
n/a 
n/a 
n/a 
-5.3975 -6.4335 
-10.089 
n/a 
n/a 
n/a 
-10.8475 -8.3765 
-19.224 
n/a 
n/a 
n/a 
-9.014501 -8.1215 
-17.3776 
n/a 
n/a 
n/a 
-1.8085 -3.9075 -2.3335 -2.186 -5.3545 -1.7695 -2.489 -4.0225 -2.5195 -1.4985 -4.392 0 
-5.714 -6.519 -3.7085 -6.5505 -8.012 -3.1405 -5.738 -5.119 -3.1695 -5.0065 -4.392 
-7.3335 -7.5925 -9.01 -9.093 -8.5675 -6.57 -6.7985 -5.74 -6.2385 -5.0065 
-8.2425 -13.178 -11.9299 -10.4435 -12.2938 -7.2805 -7.421 -8.445001 -6.2385 
-14.0208 -16.0979 -13.2804 -14.1698 -13.0043 -7.809 -10.1895 -8.445001 
