-4.759 
n/a 
n/a 
n/a 
n/a 
-4.759 
n/a 
n/a 
n/a 
n/a 
-4.759 
n/a 
n/a 
n/a 
n/a 
-4.759 
n/a 
n/a 
n/a 
n/a 
-1.4985 -3.7075 -2.229 -4.7825 -4.806 -2.3335 -2.7415 -3.9595 -2.264 -3.488 -5.856501 -2.3345 -3.3425 -1.4985 -3.7075 -5.1475 -3.837 -1.4985 -4.4115 -1.7565 -4.692 -3.9665 0 
-4.6235 -5.5255 -7.3455 -11.0145 -7.01 -4.2725 -5.2105 -5.287 -4.790501 -7.468 -7.051001 -4.554 -4.0125 -4.6235 -8.9875 -8.0825 -4.797 -4.787 -4.7565 -6.084001 -6.985001 -3.9665 
-5.9985 -9.456 -13.8763 -13.2185 -8.2675 -6.883 -6.606 -6.663 -7.456501 -8.547501 -9.807501 -5.1225 -7.2225 -9.7635 -12.2845 -8.6735 -7.758 -4.837 -8.144 -8.1295 -6.985001 
-9.544001 -16.1422 -16.0803 -14.476 -8.716001 -8.387 -8.6355 -9.335501 -9.073001 -11.3526 -10.2291 -8.333 -13.1813 -13.1981 -12.8755 -12.0967 -7.7905 -8.198501 -10.6775 -8.1295 
-16.2584 -18.3462 -17.3378 -14.9245 -9.84 -10.674 -11.249 -10.2575 -11.678 -11.555 -14.1696 -14.8032 -16.6159 -13.7891 -16.2987 -12.1292 -11.2454 -10.7432 -10.6775 
-3.7075 -2.229 -4.7825 -4.692 -3.6445 -3.5515 -3.9595 -2.3345 -3.7075 -5.1475 -2.264 -2.846 -3.488 -3.0105 
-5.5255 -7.3455 -8.604501 -5.5985 -7.149 -6.723001 -5.1685 -6.118 -8.9875 -7.2045 -5.109 -5.814 -4.8235 
-9.456 -11.4663 -9.144001 -9.371501 -9.645 -7.558001 -9.5255 -12.2192 -11.4065 -10.575 -7.052 -6.9575 
-13.7322 -12.0058 -13.1498 -12.0485 -10.3305 -12.4158 -15.6079 -14.6382 -14.777 -12.518 -8.414001 
-14.2717 -16.0116 -15.8268 -12.734 -15.4629 -18.4982 -18.0269 -18.0087 -16.72 -13.88 
-5.856501 -3.7075 -2.186 -3.383 -4.7825 -9.2065 -4.806 
-8.408501 -5.825 -4.438 -10.0745 -15.1808 -14.3989 
-11.538 -7.985001 -11.6667 -20.4728 -20.3732 
-14.0746 -15.7483 -22.065 -25.6652 
-21.8379 -26.1466 -27.2574 
-1.4985 -3.7075 -5.381 -3.3755 -1.7565 -4.749 -3.488 -3.0105 -1.934 -2.3615 -3.158 -3.429 -1.7565 -1.4985 -3.7075 -4.7825 -4.692 -3.6445 -1.7565 -5.113 -1.4985 -3.997 0 
-4.6235 -10.0575 -10.5135 -4.5295 -7.039001 -6.99 -4.8235 -5.415 -3.539 -4.2655 -7.0535 -6.4405 -2.4195 -4.6235 -9.385501 -8.604501 -5.5985 -4.775001 -6.455 -5.693 -4.921 -3.997 
-10.3675 -15.2826 -11.6675 -10.696 -9.164001 -8.2235 -7.3295 -6.9155 -5.9105 -7.736 -10.151 -7.131001 -5.468501 -9.621 -13.2981 -9.144001 -7.058001 -10.243 -7.0805 -9.291501 -4.921 
-15.5926 -16.4366 -17.834 -12.821 -10.6475 -10.533 -8.552 -9.3865 -10.2085 -11.1219 -10.8415 -10.733 -10.2865 -13.603 -13.8376 -10.8363 -13.4492 -10.768 -10.8156 -9.291501 
-16.7466 -22.6031 -19.959 -14.3045 -12.957 -11.7555 -11.4498 -13.4533 -13.7354 -11.8124 -14.4435 -15.551 -14.2685 -14.1425 -15.5299 -17.2275 -13.9742 -14.5031 -10.8156 
