-4.759 
n/a 
n/a 
n/a 
n/a 
-4.759 
n/a 
n/a 
n/a 
n/a 
-4.759 
n/a 
n/a 
n/a 
n/a 
-4.759 
n/a 
n/a 
n/a 
n/a 
-3.5455 -1.934 -3.5455 -4.918 0 -3.75 -4.4935 -4.3355 0 -3.502 -3.676 -4.0375 0 -3.641 -4.1385 -4.3355 -1.756 -3.4975 -4.0375 -3.468 -4.3185 -2.4945 -1.4985 -4.418 -1.7565 -3.691 0 
-6.2995 -4.8495 -5.943501 -4.918 -3.75 -6.694 -5.761 -4.3355 -3.502 -4.945 -7.9135 -4.0375 -3.641 -6.774 -5.686 -5.8165 -5.427 -6.7625 -7.571501 -6.547501 -7.315001 -3.9315 -5.732 -5.347 -4.930501 -3.691 
-8.692 -7.959001 -5.943501 -9.186001 -6.694 -8.210001 -5.761 -6.9805 -4.945 -9.959001 -7.9135 -7.422501 -6.774 -8.3915 -6.899 -10.155 -9.712001 -10.717 -11.1228 -10.492 -8.722 -7.965501 -6.503 -7.495 -4.930501 
-11.8761 -7.959001 -9.68 -12.4902 -8.210001 -8.210001 -7.9835 -7.304501 -9.959001 -9.959001 -11.7111 -11.1751 -8.3915 -9.662001 -11.6009 -14.44 -13.6665 -14.2683 -15.0673 -11.899 -12.9858 -8.540001 -8.996 -7.495 
-11.8761 -12.1061 -13.3202 -14.0062 -8.210001 -9.816001 -8.9405 -12.7507 -9.959001 -13.8724 -15.4637 -12.7926 -9.662001 -14.4083 -15.8859 -18.3945 -17.2178 -18.2128 -16.4743 -16.1628 -13.5603 -11.2592 -8.996 
-1.934 -1.4985 -3.5455 0 -3.5455 -4.207 -1.934 -1.4985 -3.75 0 -4.4935 -4.3355 0 -1.934 -1.4985 -3.502 -3.4225 -3.468 -1.7565 -3.676 0 -1.934 -1.4985 -3.641 -4.1385 -4.3355 -1.756 -1.4985 -4.3185 -1.7565 -3.4225 -3.468 -2.4945 -1.4985 -4.887 0 
-2.6125 -4.554 -3.5455 -3.5455 -7.4965 -5.996 -2.6125 -4.8715 -3.75 -4.4935 -5.761 -4.3355 -1.934 -2.6125 -4.5955 -7.589001 -3.628 -4.7385 -4.4345 -3.676 -1.934 -2.6125 -4.644 -6.774 -5.686 -5.8165 -3.0405 -5.763 -7.632 -5.6355 -3.628 -5.546 -3.9315 -5.927 -4.887 
-5.298 -4.554 -6.402 -7.4965 -10.054 -6.571 -5.621 -4.8715 -6.694 -5.761 -5.761 -6.371 -2.6125 -5.258 -8.708501 -7.9855 -5.001 -5.0245 -4.4345 -5.558 -2.6125 -5.3205 -7.9145 -8.3915 -6.899 -6.678 -6.577 -9.189 -12.1924 -5.963 -6.1375 -7.216001 -8.416 -5.927 
-5.298 -7.8715 -10.968 -10.054 -10.6525 -9.856001 -5.621 -8.303 -8.210001 -5.761 -7.419001 -7.022501 -5.258 -9.120501 -9.063001 -9.437 -5.036 -5.0245 -6.069 -6.2725 -5.3205 -8.3785 -8.998501 -9.662001 -7.5455 -10.66 -10.8344 -14.104 -12.5199 -9.31 -7.668 -12.0271 -8.416 
-8.583 -12.7415 -13.5255 -10.6525 -13.9375 -9.856001 -8.772 -9.684 -8.210001 -7.419001 -7.9285 -8.3985 -9.120501 -9.658001 -10.75 -9.4455 -5.036 -6.248 -7.114501 -9.2015 -8.3785 -9.325001 -10.1855 -10.535 -11.8599 -14.9174 -15.7494 -14.4315 -15.8669 -10.8809 -12.6427 -12.0271 
-3.5455 -3.5455 -4.315 0 -3.75 -4.4935 -5.059 0 -3.502 -3.676 -4.7615 0 -3.641 -4.1385 -5.059 0 -4.3185 -3.1715 -2.186 -1.4985 -4.207 -1.7565 -3.676 -4.7615 -3.59 0 
-6.402 -7.9045 -4.315 -3.75 -6.694 -7.629001 -5.059 -3.502 -4.945 -9.179001 -4.7615 -3.641 -6.774 -7.191 -5.059 -4.3185 -6.553 -5.3485 -3.339 -4.969 -4.989 -4.4345 -9.179001 -9.599501 -3.59 
-11.376 -7.9045 -8.129 -6.694 -10.647 -7.629001 -8.5655 -4.945 -11.107 -9.179001 -9.778001 -6.774 -9.236501 -7.191 -9.3385 -6.553 -10.322 -6.651 -7.5255 -5.283 -8.214001 -10.204 -14.0366 -9.599501 
-11.376 -10.757 -11.433 -10.647 -10.647 -9.511001 -8.846001 -11.107 -11.107 -14.2151 -13.0374 -9.236501 -9.236501 -11.9637 -11.9608 -10.322 -11.6245 -11.1479 -7.9925 -8.4925 -14.3075 -15.0616 -14.0366 
-14.2285 -14.061 -15.386 -10.647 -12.529 -10.6895 -15.9362 -11.107 -16.1431 -17.4745 -15.4999 -9.236501 -14.0724 -14.586 -15.7298 -11.6245 -16.1214 -11.6149 -11.3882 -14.7334 -19.1651 -15.0616 
-1.934 -3.5455 -3.7575 0 -4.142 -3.498 0 -1.934 -3.75 -3.7575 -4.4935 -4.3355 0 -1.934 -3.502 -3.7575 0 -3.4975 -4.0375 0 -1.934 -3.641 -3.7575 -4.1385 -4.3355 0 -1.756 -4.3185 -3.468 -4.3805 -1.4985 -3.7825 -5.0615 -1.7565 -3.691 0 
-4.8495 -5.799001 -3.7575 -4.142 -6.6875 -3.498 -1.934 -5.3465 -5.4685 -9.048 -5.761 -4.3355 -1.934 -4.8155 -5.712 -3.7575 -3.4975 -6.7625 -4.0375 -1.934 -5.245 -5.455501 -9.1005 -5.686 -4.3355 -1.756 -6.087 -8.982 -8.2925 -5.302001 -4.8035 -6.0225 -5.8245 -4.930501 -3.691 
-8.013 -5.799001 -8.7605 -6.6875 -6.6875 -5.52 -5.3465 -7.9395 -10.172 -10.622 -5.761 -6.371 -4.8155 -8.064 -5.712 -8.08 -6.7625 -6.7625 -5.912001 -5.245 -7.5515 -9.743501 -10.404 -5.686 -5.8165 -6.087 -10.1385 -14.1397 -9.240001 -8.0965 -6.548 -6.7215 -9.0635 -4.930501 
-8.013 -10.1765 -10.575 -6.6875 -9.069 -9.2825 -7.9395 -13.084 -11.8898 -10.622 -7.419001 -8.966001 -8.064 -8.064 -9.550501 -11.6214 -6.7625 -8.6485 -8.8915 -7.5515 -12.4991 -11.5722 -10.404 -6.899 -9.645 -10.1385 -15.2962 -15.0872 -12.1083 -9.880501 -6.8305 -9.5965 -9.0635 
-12.8261 -12.1152 -10.575 -9.069 -12.9383 -12.0667 -13.084 -14.8018 -11.8898 -12.28 -9.918 -12.4003 -8.064 -12.1241 -13.1675 -11.6214 -8.6485 -11.8974 -11.7582 -12.4991 -14.3278 -11.5722 -11.617 -9.7535 -13.9019 -15.2962 -16.2437 -17.9555 -13.8923 -10.167 -10.3155 -9.5965 
