-4.759 
n/a 
n/a 
n/a 
n/a 
-4.759 
n/a 
n/a 
n/a 
n/a 
-4.759 
n/a 
n/a 
n/a 
n/a 
-4.759 
n/a 
n/a 
n/a 
n/a 
-8.38 -7.190001 
-10.281 
n/a 
n/a 
n/a 
-12.16972 -7.190001 
-19.35972 
n/a 
n/a 
n/a 
-8.774 -7.190001 0 -8.384001 0 0 -2.3345 -4.4525 -1.756 -4.1685 -3.815 -1.7695 -2.8705 -4.0925 0 
-9.5185 -7.190001 -8.384001 -8.384001 0 -2.3345 -6.4995 -6.368501 -5.6285 -6.842 -5.5985 -4.124 -6.828 -4.0925 
-9.5185 -16.3848 -8.384001 -8.384001 -2.3345 -6.4995 -8.171 -10.047 -9.335501 -9.4095 -7.5625 -8.300501 -6.828 
-18.8171 -16.3848 -8.384001 -10.8025 -6.4995 -8.171 -12.2175 -13.754 -12.4854 -11.3541 -12.3006 -8.300501 
-18.8171 -16.3848 -10.8025 -14.9675 -8.171 -12.2175 -15.9245 -16.9039 -14.43 -16.0922 -12.3006 
-8.38 -7.190001 
-10.281 
n/a 
n/a 
n/a 
