-4.759 
n/a 
n/a 
n/a 
n/a 
-4.759 
n/a 
n/a 
n/a 
n/a 
-4.759 
n/a 
n/a 
n/a 
n/a 
-4.759 
n/a 
n/a 
n/a 
n/a 
-7.641 -3.5795 -1.4985 -4.205 -1.7565 -9.069 -1.756 -1.4985 -15.24372 -2.4265 -6.568 -2.4265 0 
-11.7825 -4.5845 -5.644 -5.689001 -10.841 -11.1415 -3.0405 -17.83602 -17.82272 -8.156 -8.672501 -2.4265 
-12.7875 -8.803 -6.1125 -15.3761 -12.9135 -12.426 -19.58782 -20.41502 -24.54722 -10.434 -8.672501 
-17.006 -9.227 -16.1184 -17.4486 -14.198 -28.97332 -22.16682 -27.13952 -26.82522 -10.434 
-17.43 -19.2259 -18.1909 -18.7331 -30.74532 -31.55232 -28.89132 -29.41752 -26.82522 
-1.4985 -5.7105 -5.9185 -5.345 -1.756 -5.1945 -2.264 -3.4265 -5.031 -1.7565 -4.973 -4.205 -1.756 -4.253 -6.483 -4.205 
-6.535001 -6.078 -10.459 -7.6575 -6.3625 -6.679 -6.0225 -7.946 -5.93 -6.854001 -8.459 -5.2995 -5.891 -9.844501 -8.1 
-6.7405 -10.4945 -10.6 -9.094 -7.6625 -10.504 -10.586 -9.218 -9.6675 -9.302001 -9.4935 -10.254 -10.5225 -10.517 
-10.5525 -10.613 -10.6305 -9.588 -10.6215 -10.7335 -10.752 -10.758 -12.3357 -10.182 -14.5892 -14.8855 -10.559 
-10.6385 -10.6325 -10.65 -10.76 -10.7785 -10.799 -10.803 -13.4262 -13.2157 -15.4129 -19.2207 -14.922 
-1.4985 -5.7105 -5.9185 -2.7415 -4.0835 -2.3345 -5.5315 -1.756 -4.528 -1.4985 -6.8985 -1.756 -4.5735 -6.483 -4.503 -1.7565 -4.205 0 
-6.535001 -6.078 -8.193001 -5.341001 -5.376501 -6.967501 -6.8955 -5.574 -5.071001 -8.06 -8.4875 -6.2125 -9.519501 -9.5205 -5.714 -5.6205 -4.205 
-6.7405 -8.3735 -8.781 -6.358 -10.4675 -8.871 -11.3081 -6.1975 -12.7157 -10.0095 -13.2864 -11.4481 -12.8006 -10.1165 -7.820001 -5.6205 
-8.552501 -8.87 -9.138 -11.9256 -12.371 -13.4252 -11.9316 -13.9396 -14.6652 -14.8084 -18.522 -14.7292 -13.3966 -10.306 -7.820001 
-9.0235 -9.1995 -15.2972 -13.8291 -16.9252 -14.0487 -19.6737 -15.8891 -19.4641 -20.044 -21.8031 -15.3252 -13.5861 -10.306 
-7.641 -2.186 -4.0835 -1.756 -3.4765 -4.2745 -2.264 -7.931 -3.729 -3.594 -5.031 -1.756 -4.253 -4.832 -5.031 0 
-9.469 -5.3675 -5.742001 -4.5775 -7.656 -7.045501 -10.9575 -10.647 -7.616 -7.828 -5.9705 -5.891 -9.1245 -8.028 -5.031 
-12.7605 -6.9595 -8.738501 -8.439501 -10.609 -16.3334 -13.6735 -14.534 -12.32 -8.733001 -10.5975 -10.6465 -12.4049 -8.028 
-14.3525 -10.1265 -12.7507 -11.4131 -19.8969 -19.0494 -17.5605 -19.238 -13.225 -13.571 -15.353 -13.9269 -12.4049 
-17.5195 -14.1387 -15.7243 -20.701 -22.6129 -22.9364 -22.2645 -20.143 -18.063 -18.3265 -18.6334 -13.9269 
