-4.759 
n/a 
n/a 
n/a 
n/a 
-4.759 
n/a 
n/a 
n/a 
n/a 
-4.759 
n/a 
n/a 
n/a 
n/a 
-4.759 
n/a 
n/a 
n/a 
n/a 
-8.446501 -1.4985 -3.098 
-10.288 -4.3095 
-12.0525 
n/a 
n/a 
-3.86 0 -4.467 -1.4985 -3.473 -1.934 -3.7205 
-3.86 -4.467 -6.53 -5.1495 -5.931 -5.9465 
-9.4735 -6.53 -10.0155 -6.877501 -10.4639 
-11.7569 -10.0155 -11.7435 -12.0802 
-15.2424 -11.7435 -16.9462 
-3.325 -5.1465 -3.4265 -4.548 
-9.744 -7.299 -8.2795 
-12.0125 -12.5768 
-17.2903 
n/a 
-4.3165 0 -4.23 -3.992 -2.3345 -4.2185 -2.4265 -1.934 -1.8085 -3.4605 0 
-4.3165 -4.23 -7.183 -6.2985 -6.394501 -6.811 -4.3385 -3.2685 -4.9875 -3.4605 
-8.785 -7.183 -11.6385 -10.0125 -8.092001 -7.811501 -5.353 -7.1815 -4.9875 
-11.9284 -11.6385 -15.3525 -11.71 -8.483001 -8.566501 -9.0085 -7.1815 
-16.3839 -15.3525 -17.05 -12.101 -9.340501 -12.739 -9.0085 
