-4.759 
n/a 
n/a 
n/a 
n/a 
-4.759 
n/a 
n/a 
n/a 
n/a 
-4.759 
n/a 
n/a 
n/a 
n/a 
-4.759 
n/a 
n/a 
n/a 
n/a 
-7.190001 0 -5.1845 -2.688 -3.158 -2.4945 -9.6645 -5.1805 -4.8635 -2.3345 -8.27 0 
-7.190001 -5.1845 -7.2655 -4.7705 -5.882 -10.782 -12.732 -8.9275 -7.45 -9.927501 -8.27 
-9.475 -7.2655 -7.741 -7.838 -15.0935 -15.927 -17.1122 -11.9012 -15.5586 -9.927501 
-10.069 -7.741 -10.3535 -17.4075 -19.6151 -19.7922 -20.0859 -20.0098 -15.5586 
-10.0745 -10.3535 -20.3896 -21.9455 -23.4803 -22.7659 -28.1945 -20.0098 
-4.685 -2.5195 -5.2835 -7.190001 -1.756 -5.1845 -2.688 -3.158 -2.742 -2.489 -5.1805 -2.3345 -2.5685 -4.9225 
-5.093 -8.3225 -13.5199 -8.872001 -7.0085 -7.2655 -4.7705 -5.765 -3.301 -6.4485 -6.612 -4.884 -6.688 
-10.31 -16.8613 -15.2019 -10.2435 -8.3755 -7.741 -7.411 -6.152 -6.8365 -7.641 -8.2985 -8.252501 
-18.8488 -18.5433 -16.5734 -10.2575 -8.383 -10.7595 -7.896 -8.974501 -7.9635 -8.8985 -10.688 
-20.5308 -19.9148 -16.5874 -10.266 -11.8801 -11.2445 -9.352 -10.348 -9.706 -11.3686 
-7.190001 -1.756 -5.1845 -2.688 -3.158 -4.8635 -2.4945 -5.1805 -2.3345 -2.5685 -4.2655 -3.1385 -4.685 -5.1875 -4.3705 -3.1385 0 
-8.872001 -7.0085 -7.2655 -4.7705 -8.076501 -7.0145 -6.9945 -6.612 -4.884 -7.089 -7.602 -7.502 -10.66 -7.598001 -6.575 -3.1385 
-10.2435 -8.3755 -7.741 -8.601501 -9.783001 -8.405001 -8.307 -8.2985 -10.025 -10.3965 -12.3565 -13.7428 -13.0705 -10.757 -6.575 
-10.2575 -8.383 -10.6875 -10.426 -10.763 -9.559 -9.6675 -13.6877 -13.4703 -15.151 -18.5973 -16.1533 -16.2295 -10.757 
-10.266 -10.759 -12.512 -11.406 -11.917 -10.7595 -15.0727 -17.133 -18.2248 -21.3918 -21.0078 -19.3123 -16.2295 
-5.6705 -1.7565 -4.2655 -4.461 0 -7.190001 -1.756 -2.688 -3.158 -2.4945 -5.1805 -2.3345 -2.5685 -5.1845 -3.1385 0 
-5.681 -5.3855 -9.152 -4.461 -7.190001 -8.872001 -4.619 -4.7705 -5.882 -6.9945 -6.612 -4.884 -8.3965 -7.4095 -3.1385 
-8.0555 -10.0965 -9.152 -12.8622 -8.872001 -11.879 -6.3905 -7.838 -9.339001 -8.307 -8.2985 -10.243 -9.8225 -7.4095 
-13.4207 -10.0965 -17.577 -14.5442 -11.879 -13.6505 -8.603001 -9.697001 -10.5435 -9.6675 -13.9057 -11.9454 -9.8225 
-13.4207 -18.6199 -19.259 -17.5512 -13.6505 -15.863 -10.0745 -10.9471 -11.904 -15.2907 -15.6081 -11.9454 
