-4.759 
n/a 
n/a 
n/a 
n/a 
-4.759 
n/a 
n/a 
n/a 
n/a 
-4.759 
n/a 
n/a 
n/a 
n/a 
-4.759 
n/a 
n/a 
n/a 
n/a 

n/a 
n/a 
n/a 
n/a 
-5.0325 -2.264 -2.3335 0 -2.645 -4.3435 -1.756 -5.038 -3.8625 -3.8935 -2.3345 -4.278 -2.4945 -4.221 -1.7695 -1.4985 -3.711 0 -3.647 0 -3.606 0 -2.3585 -4.514 0 -2.9705 -3.152 -3.917 -1.934 -1.4985 -4.602 -4.153 0 -2.9705 -2.186 -1.4985 -4.4695 -2.95 -3.8405 -2.0935 -5.2145 
-7.658501 -4.6785 -2.3335 -2.645 -7.533501 -5.67 -5.8625 -8.149 -7.131001 -5.077 -7.0565 -6.842 -5.7985 -4.626 -2.7955 -5.5565 -3.711 -3.647 -3.647 -3.606 -3.606 -2.3585 -5.731 -4.514 -2.9705 -5.007 -5.755 -5.798 -2.6125 -5.190001 -4.9935 -4.153 -2.9705 -3.89 -3.339 -5.252501 -8.398001 -5.133 -5.434 -7.3915 
-9.781501 -4.6785 -5.3215 -7.533501 -8.977501 -10.6997 -8.9935 -11.8375 -8.739 -10.7344 -9.662001 -11.2936 -6.377 -5.294 -7.0295 -5.5565 -5.4045 -3.647 -5.9565 -3.606 -6.0935 -5.731 -5.731 -7.034501 -5.007 -7.293501 -7.1575 -6.1625 -5.7205 -5.2505 -4.9935 -6.8865 -3.89 -5.027 -6.966 -8.993501 -10.688 -6.5915 -11.3168 
-9.781501 -8.047001 -10.19 -8.977501 -14.129 -13.8307 -12.8006 -13.4455 -14.7912 -13.3399 -14.2766 -11.8721 -7.027 -10.396 -7.0295 -8.977501 -5.4045 -5.9565 -5.9565 -6.0935 -7.2965 -5.731 -8.744 -9.7925 -7.293501 -9.081001 -7.688001 -9.865001 -5.7325 -5.2505 -7.794001 -7.765501 -5.027 -8.594501 -10.3675 -11.5037 -12.1465 -12.8081 
-13.2706 -13.0515 -11.7366 -14.129 -17.26 -17.6378 -14.4086 -19.4977 -17.3967 -17.9545 -14.8551 -12.5221 -12.2596 -10.396 -10.199 -8.977501 -10.3678 -5.9565 -9.182501 -7.2965 -7.2965 -8.744 -11.696 -12.1366 -9.081001 -9.595501 -11.7007 -10.6466 -5.7325 -7.836501 -8.566501 -8.921501 -8.594501 -12.0942 -12.8777 -12.9622 -18.3631 
-1.934 -4.422 0 -2.4265 -2.186 -4.816 -2.3335 -3.17 -1.7565 -3.1435 -3.602 -1.756 -2.8965 -5.216 -2.4945 -4.5905 -1.7695 -6.2185 -1.756 -3.946 -3.452 -1.756 -4.2525 -3.602 -2.9705 -2.4945 -3.6975 -3.9675 -4.221 -1.7695 -4.602 -5.1185 0 
-6.598 -4.422 -2.4265 -3.292 -5.947001 -5.693501 -5.0315 -4.179 -4.124 -6.894 -5.0135 -3.751 -7.6545 -7.0175 -6.738501 -5.6085 -8.3005 -8.072001 -5.864 -6.5575 -5.1485 -6.268 -8.7665 -6.493 -4.302 -6.108 -5.7295 -8.573501 -4.626 -6.8745 -7.2375 -5.1185 
-6.598 -6.587501 -3.292 -6.238 -6.392 -8.377501 -5.5775 -6.0025 -7.578001 -8.276 -6.681001 -8.196 -9.316501 -11.6581 -7.137001 -12.8893 -9.335501 -9.7605 -8.233001 -7.9135 -9.795501 -10.7175 -12.0721 -7.207 -7.735001 -9.543501 -10.6095 -9.863001 -10.8302 -8.801001 -7.2375 
-8.738 -7.244 -6.238 -6.3955 -8.9755 -8.854 -7.414001 -9.3785 -8.869 -10.4675 -12.2896 -9.822001 -14.0137 -12.0566 -14.7996 -13.9243 -11.3176 -12.6967 -9.35 -9.913 -14.2946 -14.0231 -12.7861 -11.1556 -11.5671 -14.4807 -11.899 -16.0906 -12.7567 -8.801001 
-9.2935 -10.485 -6.3955 -8.976501 -9.5165 -10.7295 -11.229 -10.8341 -11.1721 -16.0761 -13.9156 -14.596 -14.4122 -19.7192 -15.8346 -15.9064 -14.2538 -13.8137 -11.5727 -14.4289 -17.6002 -14.7371 -16.7347 -14.9877 -16.5043 -15.7702 -18.1266 -18.0171 -12.7567 
-1.934 -2.3335 -4.3565 -2.4265 -2.7415 -3.557 -2.3335 -4.1735 -4.3435 -1.756 -5.038 -2.0935 -1.4985 -3.3425 -1.934 -4.278 -3.152 -3.9345 -1.7695 -8.578501 -3.9675 -2.9705 -2.186 -4.221 -1.7695 -1.4985 -3.6975 -3.711 -1.7565 -3.647 0 -3.606 -1.756 -6.6035 -1.934 -3.1255 -3.5075 -7.9525 0 
-4.359 -6.375 -6.566 -3.681 -5.094501 -4.678 -8.178 -9.2255 -5.67 -5.8625 -7.0845 -2.9725 -4.4685 -5.2005 -6.2645 -8.660001 -7.5295 -3.94 -10.586 -10.841 -6.533501 -3.89 -5.4275 -4.626 -2.7955 -5.259501 -6.8105 -5.041 -5.602 -3.647 -3.606 -5.1915 -8.591001 -9.373 -5.9465 -5.759 -10.168 -7.9525 
-7.955 -8.041 -7.933001 -5.985 -6.152 -10.199 -13.3992 -10.7402 -10.6997 -7.8125 -7.864 -5.2565 -6.0445 -9.1525 -9.776 -13.1375 -7.5445 -13.3573 -12.8485 -13.407 -7.258501 -6.762001 -5.4945 -5.294 -6.498 -9.1675 -8.7895 -10.082 -5.602 -5.9565 -5.1915 -10.375 -11.6881 -13.3649 -7.797501 -10.2085 -10.168 
-9.596001 -9.660501 -10.6465 -6.1755 -11.7782 -15.4202 -14.9139 -15.7699 -12.6497 -8.654 -10.49 -7.248001 -9.865001 -12.8912 -14.3037 -13.1525 -17.0924 -15.6198 -15.4145 -14.132 -10.3477 -6.789501 -5.9315 -10.2585 -10.7495 -10.096 -14.2519 -10.082 -8.9755 -7.8535 -10.375 -13.4721 -15.68 -15.2159 -13.2588 -10.2085 
-11.5351 -12.3734 -10.837 -11.8619 -16.9994 -16.9349 -19.9436 -17.7199 -13.4912 -11.3572 -12.4815 -12.0111 -13.7617 -17.4189 -14.3187 -22.7004 -19.3549 -18.1858 -16.1395 -17.2212 -10.3752 -7.1955 -11.1112 -14.7092 -11.678 -15.887 -14.2519 -13.6055 -9.401 -14.0486 -13.4721 -17.464 -17.531 -20.6772 -13.2588 
