-4.759 
n/a 
n/a 
n/a 
n/a 
-4.759 
n/a 
n/a 
n/a 
n/a 
-4.759 
n/a 
n/a 
n/a 
n/a 
-4.759 
n/a 
n/a 
n/a 
n/a 
-1.934 -2.3615 -3.135 -8.3555 0 -2.3335 -3.757 -4.846 -3.9545 -2.4945 -2.6165 -4.673 -1.934 -3.7375 -7.806 0 
-3.539 -6.285501 -9.243501 -6.556 -2.3335 -5.0775 -9.045 -9.0115 -6.764501 -3.8065 -7.335501 -5.05 -6.299 -12.7867 -7.806 
-8.295 -12.9105 -9.531501 -9.5745 -5.0775 -10.6849 -13.5441 -12.1729 -8.295501 -8.3395 -8.212501 -10.733 -16.0538 -12.7867 
-15.1748 -13.1097 -12.7148 -9.9175 -10.6849 -15.184 -16.7055 -13.7039 -12.9845 -9.0045 -14.4193 -20.4878 -16.0538 
-15.1748 -16.293 -13.0578 -16.6575 -15.184 -18.3454 -18.2365 -18.3929 -13.6495 -15.3173 -24.1741 -20.4878 
-1.4985 -4.975 -3.4425 -2.186 -1.4985 -5.3815 -3.892 -2.0935 -7.256001 -4.1805 -5.2075 0 -1.756 -1.934 -3.135 -4.088 -1.4985 -4.9515 -4.7755 -1.4985 -4.033 -1.7565 -6.027 -5.473 -4.243 -3.8195 
-5.592 -8.120501 -5.194 -3.339 -6.349501 -9.992001 -5.971 -7.202 -8.9385 -8.941 -5.2075 -1.756 -4.0205 -4.4015 -6.0015 -5.28 -6.3455 -7.853001 -5.359 -5.596001 -4.5795 -7.553 -6.3985 -7.35 -5.5695 
-8.59 -9.668 -6.4715 -8.433001 -10.361 -12.071 -10.8475 -8.791 -10.4375 -8.941 -6.5295 -4.0205 -5.5515 -6.272 -7.2865 -10.468 -9.524 -8.3205 -7.994501 -5.816501 -10.7495 -8.2305 -7.448 -7.8495 
-9.84 -10.5455 -11.6779 -12.7307 -12.44 -16.6865 -12.102 -11.5995 -10.426 -9.913501 -8.716001 -5.5515 -7.325 -7.335001 -12.7329 -13.6465 -9.784 -10.382 -8.84 -12.0953 -11.427 -9.150001 -8.0015 
-10.6635 -15.7519 -15.9756 -14.8097 -17.0555 -16.7935 -13.8621 -11.6371 -11.3985 -12.277 -9.889501 -7.325 -8.394501 -12.7952 -15.9114 -13.9065 -11.8455 -11.2275 -15.2728 -12.7728 -12.3465 -9.383 
-1.934 -3.1495 -3.135 -2.4945 -8.3555 -3.929 -4.978 -1.756 -4.8945 -3.3035 -2.4945 -2.6165 -3.8755 -1.934 -1.8085 -3.815 -2.95 0 
-4.5395 -7.191 -5.297501 -8.629001 -11.4245 -9.9355 -5.915 -6.2115 -6.0435 -5.024 -3.8065 -5.948 -5.2035 -3.2685 -4.6365 -5.462501 -2.95 
-9.154501 -8.49 -11.0255 -13.0633 -17.6066 -10.9669 -7.7475 -6.7895 -7.8335 -6.2085 -6.803 -7.4135 -6.633 -5.8085 -5.6755 -5.462501 
-10.5073 -14.0468 -15.718 -19.3368 -18.638 -12.7994 -10.001 -8.478001 -9.266001 -9.065001 -8.206 -7.9545 -8.932 -6.3865 -5.6755 
-16.0641 -19.0763 -21.8653 -20.3682 -20.4705 -15.0529 -10.6145 -10.275 -12.2507 -10.703 -8.969001 -11.2129 -9.279 -6.3865 
-3.135 -1.7565 -3.277 -2.4945 -8.3555 -3.8445 -3.115 -1.4985 -4.8945 -3.47 
-3.9195 -4.25 -5.237 -8.629001 -8.439 -7.408 -4.2305 -6.2485 -7.0225 
-5.3165 -5.3725 -10.733 -9.2205 -10.1275 -8.314 -9.262001 -8.467 
-6.112 -10.791 -11.9047 -11.6632 -11.4085 -13.6129 -11.5521 
-11.577 -11.9197 -14.2212 -13.2517 -16.8204 -15.903 
