-4.759 
n/a 
n/a 
n/a 
n/a 
-4.759 
n/a 
n/a 
n/a 
n/a 
-4.759 
n/a 
n/a 
n/a 
n/a 
-4.759 
n/a 
n/a 
n/a 
n/a 
-3.4075 -4.0085 -5.4345 -3.4865 -5.89 -6.126 0 -3.152 -4.077 -4.3325 -3.213 -1.934 -2.8965 -4.795 
-6.3745 -7.851 -9.352 -10.468 -13.0594 -6.126 -3.152 -5.8555 -8.844501 -6.862 -4.4465 -4.391 -7.4775 
-10.7806 -12.9883 -16.4973 -18.2644 -13.0594 -8.103001 -5.8555 -11.3846 -11.785 -7.6285 -6.7165 -9.669001 
-15.9179 -20.1336 -24.2937 -18.2644 -15.0364 -10.1385 -11.3846 -14.3251 -12.5515 -11.6101 -12.4123 
-23.0632 -27.93 -24.2937 -20.2414 -17.0719 -15.8608 -14.3251 -15.0916 -16.5331 -17.3059 
-3.074 -4.7265 -3.4865 -4.106 -3.9665 0 -3.9485 -2.356 -1.4985 -4.8335 -3.9665 -4.4275 -1.934 -2.5685 -3.772 
-6.949 -8.241 -6.969501 -4.868501 -3.9665 -3.9485 -4.311 -3.1615 -5.963 -8.1665 -7.611001 -6.07 -4.244 -5.792 
-10.586 -12.356 -7.244 -4.868501 -7.58 -4.311 -4.981 -7.7445 -8.901001 -12.058 -8.774 -8.3715 -6.400001 
-14.701 -12.6305 -7.244 -8.4645 -7.9455 -4.981 -9.522 -10.5035 -13.0213 -13.221 -11.6117 -10.8387 
-14.9755 -12.6305 -11.4526 -8.502001 -8.486 -9.522 -12.334 -14.6238 -14.1843 -16.0587 -14.0789 
-3.321 -1.4985 -3.4075 -4.0085 -3.6215 -2.4945 -3.2955 -1.934 -1.4985 -3.3715 -4.0135 -1.7565 -3.8035 -1.756 -2.4265 -2.8645 -3.918 -1.7695 -3.619 -1.4985 -3.59 -2.3345 -1.4985 -3.0365 -4.348 0 
-4.481 -4.118 -6.3745 -5.2395 -6.4215 -4.6305 -4.2285 -2.6125 -4.859 -7.3835 -4.201 -5.4625 -4.9805 -3.949 -4.1435 -4.7635 -6.328 -4.5275 -4.707 -4.268 -5.597 -3.233 -6.602 -8.637 -4.348 
-7.745501 -6.987 -8.880501 -7.7025 -9.035501 -5.474 -4.839 -6.499001 -8.421 -7.766 -7.0885 -6.6385 -7.102 -5.4395 -7.3915 -8.521501 -9.7775 -5.3675 -7.3995 -6.4015 -6.922501 -8.574 -12.2533 -8.637 
-10.5635 -9.321501 -11.6429 -10.4845 -9.774501 -6.07 -8.781 -10.3026 -9.741501 -10.4425 -8.653001 -8.5845 -8.5635 -9.290501 -10.0245 -12.042 -10.6005 -7.6555 -8.649 -7.2365 -12.7047 -14.5409 -12.2533 
-12.898 -12.1789 -14.4249 -11.4123 -10.721 -9.743 -12.7294 -11.6231 -12.4612 -12.007 -10.2085 -10.0885 -12.5107 -12.1671 -13.641 -12.865 -12.8885 -8.717001 -10.3475 -13.1735 -18.6716 -14.5409 
-3.818 -4.519 -4.7265 -6.126 -1.7565 -1.4985 -3.4075 -4.0085 -3.9665 -4.734 -1.934 -4.267 -3.9795 -2.356 -1.4985 -4.0415 0 
-9.0515 -8.261 -8.9665 -8.214001 -2.4195 -4.118 -6.3745 -5.933 -9.278501 -5.112 -6.221 -6.4725 -6.0415 -3.1615 -4.9725 -4.0415 
-13.1345 -12.8216 -10.362 -8.5085 -4.851 -6.987 -7.538501 -11.902 -9.687 -7.804501 -7.910501 -8.061001 -6.883 -6.651501 -4.9725 
-17.6951 -14.2171 -10.6595 -10.025 -7.605 -8.054001 -13.7679 -12.3105 -12.4171 -9.669001 -8.816501 -8.5045 -9.7335 -6.651501 
-19.0906 -14.5146 -12.176 -13.6498 -8.658001 -14.4348 -14.1764 -15.0406 -14.2816 -10.1615 -9.2115 -10.3815 -9.7335 
