-4.759 
n/a 
n/a 
n/a 
n/a 
-4.759 
n/a 
n/a 
n/a 
n/a 
-4.759 
n/a 
n/a 
n/a 
n/a 
-4.759 
n/a 
n/a 
n/a 
n/a 
-8.979 -1.7565 -4.1865 -6.3565 -16.756 
-10.844 -5.463 -8.592501 -24.2581 
-14.5 -10.025 -26.8001 
-19.884 -28.3232 
-38.1822 
-4.1865 -3.599 -4.348 -14.986 
-7.0785 -6.297501 -21.576 
-9.119 -24.0833 
-27.2736 
n/a 
-4.98 -4.1865 -6.3565 -2.871 -3.355 -2.186 -9.2275 -3.06 -6.7275 
-9.511 -8.592501 -7.9035 -5.7015 -5.3935 -12.6239 -10.382 -8.218 
-14.0232 -10.4455 -11.0244 -7.4955 -16.2272 -13.7784 -16.089 
-15.8762 -13.5664 -12.8184 -18.5652 -17.3817 -19.4854 
-18.9971 -15.3604 -23.8881 -19.7197 -23.0887 
-6.325 -4.1865 -3.599 -3.9665 -2.871 -3.355 -1.7565 -18.084 
-10.9315 -7.0785 -4.743 -5.9265 -5.7015 -3.725 -21.0021 
-13.8235 -7.144 -5.979 -9.316501 -5.995 -23.685 
-13.889 -10.159 -9.441 -10.1775 -26.4052 
-16.904 -13.8064 -10.7505 -30.4243 
