-4.759 
n/a 
n/a 
n/a 
n/a 
-4.759 
n/a 
n/a 
n/a 
n/a 
-4.759 
n/a 
n/a 
n/a 
n/a 
-4.759 
n/a 
n/a 
n/a 
n/a 
-5.1605 -1.7565 -4.4385 -4.25 0 
-7.068 -6.204 -7.8395 -4.25 
-11.9917 -10.5035 -7.8395 
-16.2912 -10.5035 
-16.2912 
-5.454 -3.6185 -1.934 -3.458 -1.4985 -5.1605 0 -2.1715 
-7.329501 -5.537 -5.207 -4.063 -6.014501 -5.1605 -2.1715 
-8.7425 -8.1575 -6.0585 -8.035501 -6.014501 -7.3165 
-11.4774 -8.772 -9.6885 -8.035501 -8.447001 
-12.0919 -12.6058 -9.6885 -10.6885 
-3.319 -2.1715 -5.454 -3.6185 -4.723 -1.934 -3.458 -3.824 0 
-5.2795 -8.095501 -7.329501 -6.8275 -6.077 -5.207 -6.870501 -3.824 
-10.575 -10.575 -10.085 -7.861001 -9.2895 -8.7735 -6.870501 
-13.0545 -13.3305 -11.2613 -10.27 -13.1294 -8.7735 
-15.81 -14.5068 -13.6703 -14.5169 -13.1294 
-4.2935 -4.74 -5.79 
-7.551001 -10.9285 
-14.9743 
n/a 
n/a 
