-4.759 
n/a 
n/a 
n/a 
n/a 
-4.759 
n/a 
n/a 
n/a 
n/a 
-4.759 
n/a 
n/a 
n/a 
n/a 
-4.759 
n/a 
n/a 
n/a 
n/a 
-2.3615 -4.688 -5.578 -3.452 -1.7565 -3.188 -3.886 
-6.132 -11.2502 -6.756 -4.8515 -5.13 -5.9795 
-13.1602 -12.4282 -6.815 -6.89 -6.899 
-14.3382 -12.4872 -7.0155 -6.9405 
-14.3972 -12.6877 -7.038 
-2.3615 -4.126 -7.5335 -2.229 -3.188 -3.452 
-5.538 -12.5891 -9.6475 -4.928 -6.3575 
-14.6071 -14.7031 -12.3465 -8.076 
-16.7211 -17.4021 -15.4945 
-19.4201 -20.5501 
-1.934 -6.665 -3.188 -3.886 
-8.718 -7.638501 -5.9795 
-9.609 -8.128 
-9.8505 
n/a 
-2.3615 -8.961 -2.7415 -4.4275 -1.934 -6.665 -3.188 -3.886 -3.452 
-10.6215 -12.1243 -6.127501 -5.6585 -8.718 -7.638501 -5.9795 -7.182 
-13.7848 -15.5103 -7.1675 -13.3089 -9.609 -8.128 -7.867001 
-17.1708 -16.5503 -15.0611 -14.1999 -9.8505 -9.848001 
-18.2108 -24.4439 -15.9521 -14.4414 -11.7659 
