-4.759 
n/a 
n/a 
n/a 
n/a 
-4.759 
n/a 
n/a 
n/a 
n/a 
-4.759 
n/a 
n/a 
n/a 
n/a 
-4.759 
n/a 
n/a 
n/a 
n/a 
-3.982 -4.3285 -1.7695 -3.0785 -1.4985 -5.0515 -2.264 -4.87 -2.3345 -4.489 -1.756 -4.621 
-8.3995 -6.210001 -3.9555 -4.869 -5.901 -7.339001 -7.417001 -7.904 -7.452001 -6.2105 -6.6635 
-10.419 -8.249001 -5.319 -9.764001 -8.302 -12.88 -9.576501 -10.0815 -8.262501 -7.7605 
-12.458 -9.602501 -9.975 -12.3012 -14.0354 -15.0395 -10.751 -11.3494 -9.741501 
-13.8115 -14.3059 -12.7306 -18.0346 -16.1949 -16.214 -12.0189 -12.8284 
-8.486501 -5.8285 -4.87 0 -2.0935 -2.3335 -3.982 -4.2675 -1.7695 -3.2015 -3.8655 0 
-13.1795 -9.452001 -4.87 -2.0935 -4.488501 -6.815001 -9.1415 -6.7345 -4.3485 -7.5375 -3.8655 
-14.4889 -9.452001 -7.613501 -4.488501 -10.051 -10.0575 -11.8935 -9.156 -8.313001 -7.5375 
-14.4889 -12.2889 -9.969501 -10.051 -13.2935 -13.0753 -14.315 -13.5751 -8.313001 
-17.3258 -14.6449 -15.794 -13.2935 -16.3113 -15.4968 -18.7341 -13.5751 
-3.982 -4.4635 -1.7695 -3.2015 -9.110001 -5.0515 -2.264 -4.87 
-8.295 -4.8765 -4.3485 -10.5205 -12.679 -7.339001 -7.417001 
-8.5565 -7.221 -10.9465 -16.0042 -15.2437 -12.88 
-10.396 -13.1521 -16.335 -18.5595 -20.7847 
-16.3811 -19.6671 -18.6705 -24.1005 
-4.176 -4.0395 -1.7695 -3.0785 -2.0935 -4.87 -3.8275 -4.299 -2.5045 -4.489 -5.053 
-9.9615 -4.5055 -3.9555 -5.116 -7.249001 -8.807001 -8.026 -6.425 -7.085501 -8.596001 
-10.5031 -7.6255 -7.0515 -10.4035 -11.6036 -13.5537 -10.7236 -11.4604 -11.9423 
-13.6231 -10.66 -12.9956 -14.7581 -16.3503 -16.2513 -15.759 -16.3172 
-16.6576 -16.6041 -17.3502 -19.5048 -19.0479 -21.2867 -20.6158 
