-4.759 
n/a 
n/a 
n/a 
n/a 
-4.759 
n/a 
n/a 
n/a 
n/a 
-4.759 
n/a 
n/a 
n/a 
n/a 
-4.759 
n/a 
n/a 
n/a 
n/a 
-12.16972 -12.16972 -7.7285 
-24.33944 -19.89822 
-32.06794 
n/a 
n/a 
-3.554 -4.587 -2.0935 -3.545 -5.0685 
-6.933001 -6.6925 -6.225 -9.164001 
-9.2735 -11.5588 -12.633 
-14.3426 -17.9668 
-20.7506 
-12.16972 -3.554 -1.7565 -4.587 0 
-15.72372 -5.147 -5.7435 -4.587 
-17.31672 -8.442 -5.7435 
-20.61172 -8.442 
-20.61172 
-1.4985 -3.554 -1.7565 -6.2665 -3.9875 -1.4985 -5.102 0 
-5.1225 -5.147 -7.5035 -10.1765 -4.653 -5.936501 -5.102 
-5.536 -11.8954 -11.6973 -10.55 -8.327001 -5.936501 
-12.7538 -16.0892 -12.0708 -14.6072 -8.327001 
-16.9476 -16.4627 -16.128 -14.6072 
