-4.759 
n/a 
n/a 
n/a 
n/a 
-4.759 
n/a 
n/a 
n/a 
n/a 
-4.759 
n/a 
n/a 
n/a 
n/a 
-4.759 
n/a 
n/a 
n/a 
n/a 
-2.5045 -1.8085 -3.355 -1.7565 -2.3615 0 -1.8085 -3.6215 -2.7415 -4.5485 -1.7695 -3.61 -3.2295 -2.3615 -5.4985 -1.7565 -3.8275 0 -2.356 -1.4985 -4.886 -1.7565 -4.4925 -1.756 -2.5685 -4.5345 -1.7565 -5.2015 -3.959 0 
-3.3625 -4.6195 -3.725 -3.523 -2.3615 -1.8085 -5.657001 -6.281 -5.5565 -5.9605 -4.528 -6.1435 -5.5035 -8.153 -6.058001 -4.8265 -3.8275 -2.356 -3.1615 -5.750501 -5.495 -6.074 -6.1525 -4.2335 -7.433 -5.306 -7.072501 -6.3885 -3.959 
-5.6285 -4.725 -5.084001 -3.523 -5.0165 -5.657001 -8.866501 -8.22 -6.5105 -8.1 -6.6705 -7.8335 -11.4812 -8.859 -8.765501 -4.8265 -5.674 -3.1615 -7.555 -5.839 -10.6579 -7.1725 -8.9125 -8.4455 -7.9255 -9.9975 -8.546501 -6.3885 
-5.6725 -6.0205 -5.084001 -6.6785 -9.547501 -8.866501 -10.575 -9.376 -8.6385 -10.7175 -8.415501 -14.2114 -12.1872 -11.6751 -8.765501 -6.8875 -6.407 -7.555 -7.7335 -11.2163 -11.7564 -9.9255 -13.3629 -8.581501 -12.81 -11.5915 -8.546501 
-6.9755 -6.0205 -8.3715 -11.4369 -12.8224 -10.575 -11.731 -11.52 -11.6906 -12.4625 -14.8956 -14.9174 -15.0033 -11.6751 -10.115 -7.664001 -11.3451 -7.7335 -13.1976 -12.3148 -14.5094 -14.3537 -13.4989 -14.117 -14.404 -11.5915 
-2.5045 -1.8085 -3.355 -1.7565 -2.3615 0 -1.7695 -4.243 -1.4985 -5.263 -3.898 0 -4.628 -5.939 -5.263 -3.898 -4.173 -3.774 -3.7875 -4.5345 -2.5195 -2.8965 -3.959 -4.877 -2.3345 -4.4925 -2.7415 -3.354 0 
-3.3625 -4.6195 -3.725 -3.523 -2.3615 -1.7695 -5.0725 -5.337 -6.819 -6.269001 -3.898 -4.628 -5.9615 -10.2645 -6.269001 -7.526 -6.805501 -7.318 -8.340501 -5.5245 -4.786 -4.940001 -8.025 -5.7435 -7.314 -7.4095 -5.426001 -3.354 
-5.6285 -4.725 -5.084001 -3.523 -4.6245 -5.0725 -5.686501 -8.959001 -6.965001 -6.269001 -9.245001 -5.9615 -10.264 -10.2845 -8.854501 -10.0745 -10.6687 -10.259 -8.794001 -7.4325 -6.2015 -10.168 -8.925 -10.1595 -9.654 -10.051 -5.426001 
-5.6725 -6.0205 -5.084001 -6.587501 -8.468 -5.686501 -9.041 -8.9615 -6.965001 -10.096 -10.1955 -10.264 -10.284 -12.87 -10.078 -13.9377 -13.6097 -10.562 -10.523 -8.8055 -11.8387 -10.3485 -13.5286 -12.5807 -12.3371 -10.051 
-6.9755 -6.0205 -8.345 -10.66 -9.2065 -9.041 -9.043501 -8.9615 -11.0436 -10.549 -14.498 -10.284 -12.8695 -14.0935 -13.9412 -16.8787 -13.9127 -12.291 -11.896 -14.5577 -12.0192 -15.6139 -15.9498 -15.2638 -12.3371 
-1.934 -1.8085 -2.645 -4.676 -4.1645 0 -3.5855 -4.822 -1.7695 -1.8085 -3.2 -1.7565 -5.3075 -3.914 -3.402 -2.264 -6.686 0 -5.5965 0 -1.756 -5.6595 -6.444 0 -2.5045 -3.3235 -2.5045 -1.7695 -1.4985 -4.6225 -3.7435 -1.7565 -3.914 -4.7855 -2.674 -4.938 -2.3345 -3.2775 -4.4965 -3.326 
-3.2685 -4.355 -6.837501 -7.8655 -4.1645 -3.5855 -8.524 -4.8595 -3.41 -4.7735 -4.722 -6.186501 -7.245 -5.9025 -3.793 -8.6125 -6.686 -5.5965 -5.5965 -1.756 -6.5205 -7.691 -6.444 -2.5045 -3.7105 -3.8485 -4.334 -2.7955 -6.51 -7.538501 -4.905 -5.071 -8.876 -6.294 -5.9755 -6.2025 -5.3825 -7.535 -7.3655 
-5.598001 -7.516001 -8.469001 -7.8655 -8.181 -8.524 -8.553 -5.6285 -6.229001 -5.6035 -8.879 -7.902 -9.424001 -7.239 -9.132501 -8.6125 -9.911 -5.5965 -6.401 -6.5205 -8.932501 -7.691 -8.2395 -3.7105 -3.8545 -5.489 -5.035 -7.8585 -8.9125 -7.653501 -6.278 -9.450001 -9.460501 -9.396 -7.9975 -8.422 -8.894 -10.159 
-8.3 -8.658001 -8.469001 -9.739 -9.6885 -8.553 -9.281001 -7.862 -7.027501 -9.341001 -9.34 -9.481501 -9.445001 -9.918 -9.132501 -10.019 -9.911 -6.401 -9.7305 -8.932501 -8.932501 -9.219501 -9.4595 -3.8545 -5.4915 -6.252501 -9.809 -9.4715 -9.045001 -8.755501 -9.927 -9.782001 -10.124 -10.144 -9.9245 -12.2861 -11.8666 
-8.682 -8.658001 -9.772 -9.7545 -9.6905 -9.281001 -9.568001 -8.358 -9.528501 -9.4375 -9.495501 -9.4875 -9.958501 -9.918 -10.019 -10.019 -9.979501 -9.7305 -10.0275 -8.932501 -10.459 -10.3895 -9.558001 -5.4915 -6.255001 -9.910001 -9.9755 -9.4925 -9.259501 -10.0215 -9.9385 -10.142 -10.1585 -10.159 -14.2374 -15.2587 
-2.5045 -1.8085 -3.355 -1.7565 -1.4985 0 -1.7695 -3.7825 -1.4985 -6.1495 -1.8085 -3.515 -4.877 -2.3345 -4.4925 -1.756 -2.8965 -8.384001 -3.499 -4.5485 
-3.3625 -4.6195 -3.725 -2.4195 -1.4985 -1.7695 -4.6465 -4.847 -6.842 -8.311501 -4.817 -6.9985 -5.7435 -7.314 -6.1525 -3.751 -12.4257 -12.743 -7.7955 
-5.6285 -4.725 -4.0515 -2.4195 -5.666 -4.6465 -5.5325 -10.9273 -9.186501 -11.6234 -8.007501 -7.252 -10.1595 -8.277 -8.186001 -13.8504 -16.7847 -17.0395 
-5.6725 -5.0485 -4.0515 -6.7925 -9.002001 -5.5325 -11.7912 -13.2718 -12.5448 -14.8139 -8.0635 -11.7794 -11.2037 -10.031 -18.9178 -18.2094 -21.0812 
-6.078 -5.0485 -8.435 -10.396 -9.795501 -11.7912 -14.1357 -16.6301 -15.7353 -14.8699 -12.6795 -12.8236 -12.9577 -20.8596 -23.2768 -22.5059 
