-4.759 
n/a 
n/a 
n/a 
n/a 
-4.759 
n/a 
n/a 
n/a 
n/a 
-4.759 
n/a 
n/a 
n/a 
n/a 
-4.759 
n/a 
n/a 
n/a 
n/a 
-6.3215 -2.7415 -5.173 -2.3345 -8.908 -2.5045 -3.543 -1.4985 -3.718 -1.7565 -9.466001 -2.9705 -2.186 -2.871 -1.7565 -1.4985 -3.17 -1.934 -5.1845 -9.785501 -11.128 
-9.058001 -6.654 -6.4055 -10.802 -11.6817 -5.323 -5.62 -4.522 -4.7685 -11.136 -12.7863 -3.89 -4.247 -3.5385 -2.4195 -3.7115 -5.81 -6.564 -16.2644 -21.2665 
-13.1611 -7.7325 -15.6858 -13.5757 -14.5002 -5.8685 -8.908501 -5.0205 -14.891 -14.4563 -13.7058 -6.034 -4.411 -3.7675 -4.4355 -6.337 -11.1208 -18.2561 -27.7454 
-14.2396 -17.4676 -18.4595 -16.3942 -15.0457 -9.189 -10.248 -15.2684 -18.2113 -15.3758 -15.8498 -6.16 -4.5655 -4.622 -7.4985 -11.8394 -22.8129 -29.7371 
-23.9747 -20.2413 -21.278 -16.9397 -18.3662 -10.575 -20.4959 -18.5887 -19.1308 -17.5198 -15.9758 -6.2675 -5.2395 -7.6085 -13.9059 -23.5315 -34.2939 
-8.7255 -5.1845 0 -3.8445 -3.6135 -3.853 -3.837 -1.756 -9.3465 -3.837 -2.871 -2.95 -6.3215 -5.166 -2.3345 -7.449 
-10.5035 -5.1845 -3.8445 -7.0515 -6.9375 -8.2115 -5.4425 -11.117 -13.4941 -6.3525 -4.919 -9.326 -12.3759 -7.660501 -9.832001 
-10.5035 -10.2135 -7.0515 -9.5045 -12.2558 -9.6335 -15.8505 -15.2646 -16.0096 -9.201 -11.7564 -16.3348 -14.8704 -15.3762 
-15.7287 -13.4205 -9.5045 -15.3942 -13.6778 -20.4879 -19.9981 -17.7801 -18.8581 -16.266 -18.7652 -18.8293 -22.5861 
-18.9357 -15.8735 -15.3942 -16.8162 -24.5322 -24.6355 -22.5136 -20.6286 -25.9231 -23.2748 -21.2597 -26.545 
-3.9345 -1.7695 -1.4985 -10.5785 0 -2.9705 -2.186 -2.871 -1.7565 -1.4985 -3.8445 -3.4155 -4.5085 -1.7565 -5.1845 0 -1.4985 -5.474 -1.7565 -1.4985 -10.5785 -7.449 -3.251 -4.9005 -1.4985 -6.3215 -3.2875 -3.819 0 
-3.94 -2.7955 -13.1708 -10.5785 -2.9705 -3.89 -4.247 -3.5385 -2.4195 -4.9855 -6.743 -8.619 -5.9845 -6.580501 -5.1845 -1.4985 -6.931001 -8.262001 -2.4195 -13.1708 -18.0275 -10.6605 -7.109 -6.3935 -8.272 -8.6905 -7.1885 -3.819 
-4.4455 -14.703 -13.1708 -13.549 -3.89 -6.034 -4.411 -3.7675 -5.6305 -7.639 -12.7461 -10.7335 -11.6087 -6.580501 -7.95 -6.931001 -8.6645 -8.8065 -14.2826 -20.6198 -21.239 -14.5185 -8.014501 -13.7032 -9.9055 -12.8795 -7.1885 
-16.872 -14.703 -16.1413 -14.4685 -6.034 -6.16 -4.5655 -6.4215 -7.953501 -14.2397 -14.8606 -16.3577 -11.6087 -9.529 -13.6305 -8.6645 -9.008501 -20.9376 -21.7316 -23.8313 -25.097 -15.424 -15.6496 -15.3367 -14.1607 -12.8795 
-16.872 -17.6735 -17.0608 -16.6125 -6.16 -6.2675 -7.2215 -8.385 -14.7918 -16.3542 -20.4848 -16.3577 -14.5572 -15.2417 -15.364 -9.008501 -21.3076 -28.3866 -24.9431 -27.6893 -26.0025 -23.0591 -17.2831 -19.5919 -14.1607 
-2.4265 -2.7415 -3.9205 -2.3335 -6.3215 -2.7415 -3.819 -5.173 -2.3345 -1.4985 -5.919 -8.908 -1.7565 -1.4985 -3.452 -9.466001 
-3.681 -5.733 -5.597 -9.911 -9.058001 -5.5775 -7.804501 -6.4055 -3.233 -6.625501 -15.5996 -10.9337 -2.4195 -4.4485 -13.9888 
-6.602 -7.2065 -13.3777 -12.7587 -12.0846 -9.456 -9.374001 -7.255001 -8.3975 -16.7069 -17.6253 -11.5967 -5.267 -15.4225 
-7.2215 -15.155 -16.2254 -15.7853 -15.9631 -10.282 -10.2705 -12.7783 -18.7171 -18.7326 -18.2883 -14.4442 -16.3468 
-15.1826 -18.0027 -19.252 -19.6638 -16.7891 -11.1785 -15.7938 -23.0979 -20.7428 -19.3956 -21.1358 -25.524 
