-4.759 
n/a 
n/a 
n/a 
n/a 
-4.759 
n/a 
n/a 
n/a 
n/a 
-4.759 
n/a 
n/a 
n/a 
n/a 
-4.759 
n/a 
n/a 
n/a 
n/a 
-3.982 -8.35 
-13.8456 
n/a 
n/a 
n/a 
-5.834 -4.867 0 -3.982 -8.27 0 
-11.5132 -4.867 -3.982 -13.7656 -8.27 
-11.5132 -9.1035 -13.7656 -13.7656 
-15.7497 -19.3749 -13.7656 
-26.0211 -19.3749 
-4.5735 -3.522 0 -3.982 -6.4735 
-9.186501 -3.522 -3.982 -10.5535 
-9.186501 -7.762 -10.5535 
-13.6285 -14.7187 
-20.5852 
-3.0835 -4.584 0 -3.875 -8.27 0 
-7.693501 -4.584 -3.875 -13.1446 -8.27 
-7.693501 -10.058 -13.1446 -13.1446 
-13.5311 -19.4452 -13.1446 
-22.9183 -19.4452 
