-4.759 
n/a 
n/a 
n/a 
n/a 
-4.759 
n/a 
n/a 
n/a 
n/a 
-4.759 
n/a 
n/a 
n/a 
n/a 
-4.759 
n/a 
n/a 
n/a 
n/a 
-3.732 -5.237 -4.4625 -2.3615 -3.8275 -4.335 -3.729 -4.2505 -2.742 -2.489 -1.8085 -3.9875 -1.7695 -3.8275 
-7.521501 -9.242001 -7.242001 -5.965 -7.645 -6.799 -7.212 -6.712 -3.301 -3.799 -5.732 -4.6185 -5.686 
-12.0589 -12.5143 -11.5659 -10.181 -10.485 -10.884 -9.203501 -7.3745 -4.7705 -7.6875 -7.552501 -7.706 
-15.3312 -16.8382 -15.7819 -13.021 -14.57 -12.8755 -10.2385 -8.779 -8.658001 -9.540501 -11.032 
-19.6551 -21.0542 -18.6219 -17.106 -16.5615 -13.9105 -11.643 -12.7239 -10.6448 -13.0216 
-3.732 -7.8605 -4.0835 -1.4985 -3.8275 -4.4605 0 
-10.7025 -12.4486 -5.761001 -4.726 -7.544001 -4.4605 
-15.2906 -14.1261 -9.457001 -8.796 -7.544001 
-16.9681 -17.8221 -13.7454 -8.796 
-20.6641 -22.1105 -13.7454 
-1.7695 -3.859 -3.824 -3.732 -9.624001 -4.811 -2.5045 -1.8085 -5.413 -2.871 
-4.462 -9.259001 -8.227 -14.3198 -14.4696 -6.5865 -3.3625 -7.347 -8.6595 
-9.7735 -13.793 -19.6162 -19.1654 -16.2451 -7.2965 -8.524 -10.2585 
-14.3075 -25.1822 -24.4618 -20.9409 -16.9551 -12.7714 -11.6217 
-25.6967 -30.0278 -26.2373 -21.6509 -22.43 -15.8691 
-3.732 -5.237 -4.24 -1.4985 -4.0835 -1.4985 -4.335 -4.221 -2.5045 -1.8085 -4.1655 0 
-7.521501 -9.708 -5.0855 -5.516001 -5.761001 -5.249001 -9.553 -6.459001 -3.3625 -5.7845 -4.1655 
-12.5249 -10.406 -9.393001 -8.665501 -8.703001 -11.0394 -11.8296 -7.2485 -7.5315 -5.7845 
-13.2229 -14.7135 -12.7383 -11.9529 -14.6042 -13.316 -12.6191 -11.8591 -7.5315 
-17.5304 -18.0588 -16.0257 -17.8541 -16.8808 -14.1055 -17.2297 -11.8591 
