-4.759 
n/a 
n/a 
n/a 
n/a 
-4.759 
n/a 
n/a 
n/a 
n/a 
-4.759 
n/a 
n/a 
n/a 
n/a 
-4.759 
n/a 
n/a 
n/a 
n/a 
-1.934 -5.1915 -1.4985 -3.8135 -1.7565 -4.392 -4.113 0 -4.113 -3.4625 -1.7565 -5.6525 -3.515 0 -2.5045 -1.4985 -2.95 -1.7565 -5.1915 -5.127 -5.0485 -2.742 -4.157 -2.5195 -12.16972 -1.7695 -5.048 0 
-7.508 -7.401 -4.828 -4.991 -6.451001 -9.112 -4.113 -4.113 -4.488501 -4.9855 -7.423501 -9.083 -3.515 -2.5045 -3.1915 -3.9285 -4.3785 -7.664001 -9.651501 -11.2713 -7.8025 -8.032001 -5.715 -15.36282 -13.93922 -7.828001 -5.048 
-8.712501 -11.0037 -6.0765 -10.3545 -11.6266 -9.112 -6.670501 -4.488501 -7.6155 -11.6511 -11.1672 -9.083 -5.5395 -3.1915 -4.5155 -4.676 -10.1505 -12.4682 -16.0464 -14.0253 -13.5525 -9.854501 -19.72072 -17.13232 -19.99772 -7.828001 
-12.3758 -12.2522 -11.846 -15.5301 -11.6266 -9.798 -7.042001 -7.6155 -14.9299 -15.3948 -11.1672 -11.5323 -6.213 -4.5155 -4.837 -10.7072 -14.9547 -18.8631 -18.8004 -19.7753 -15.375 -24.03042 -21.49022 -23.19082 -19.99772 
-13.6243 -18.0217 -17.0216 -15.5301 -12.3126 -9.8065 -11.093 -14.9299 -18.6736 -15.3948 -13.6165 -12.2058 -7.8745 -4.837 -11.2576 -15.5114 -21.3496 -21.6171 -24.5504 -21.5978 -29.55092 -25.79992 -27.54872 -23.19082 
-5.127 -2.186 -1.4985 -2.9965 -4.5445 -3.436 -1.934 -1.4985 -3.995 
-6.702001 -3.339 -5.3455 -7.854501 -8.158001 -5.8855 -2.6125 -4.712 
-7.812 -7.5315 -9.347 -11.4082 -10.9127 -6.5755 -6.1055 
-12.6207 -11.6906 -13.2637 -14.1629 -11.6027 -9.218 
-16.7798 -15.6073 -16.0184 -14.8529 -14.2452 
-4.2485 -3.6615 -5.6525 -1.934 -5.1915 -5.0285 -5.127 -4.9505 -5.1385 -3.5725 -5.048 -5.1385 0 
-6.466001 -9.186001 -7.738 -7.508 -10.3475 -9.185 -10.7665 -10.0575 -9.381001 -10.66 -9.0725 -5.1385 
-10.674 -11.4597 -13.882 -13.1614 -14.504 -15.2399 -15.8735 -14.3 -16.5467 -14.6845 -9.0725 
-12.9477 -17.6037 -19.5354 -17.3179 -20.5589 -20.3469 -20.116 -21.4657 -20.5712 -14.6845 
-19.0917 -23.2571 -23.6919 -23.3728 -25.6659 -24.5894 -27.2817 -25.4902 -20.5712 
-5.6525 -2.264 -3.1435 -3.634 -8.4145 -2.8645 -4.3215 -2.3335 -1.934 -1.4985 -3.158 -5.1915 -8.161 -1.7565 -5.127 -2.742 -2.489 -12.16972 -1.7695 -10.245 
-8.245501 -4.6705 -6.342 -13.3681 -11.828 -5.389 -5.1075 -4.468 -2.6125 -4.178 -7.469501 -13.9595 -8.498 -6.071001 -7.598001 -3.301 -16.03912 -13.93922 -11.1415 
-10.0965 -7.5715 -16.4937 -16.7816 -14.3525 -5.97 -7.3335 -5.0815 -5.265 -7.545 -16.8069 -14.2965 -12.8359 -8.250501 -8.229501 -17.29472 -17.80862 -23.31122 
-12.9975 -18.2042 -19.9072 -19.3061 -14.9335 -8.248 -8.050501 -7.3535 -8.373 -16.9642 -17.1439 -18.6344 -15.0154 -8.781501 -22.54062 -19.06422 -27.18062 
-23.6302 -21.6177 -22.4317 -19.8871 -17.2115 -8.8885 -10.0315 -10.092 -17.9016 -17.3012 -21.4818 -20.8139 -15.5464 -23.24242 -24.31012 -28.43622 
