-4.759 
n/a 
n/a 
n/a 
n/a 
-4.759 
n/a 
n/a 
n/a 
n/a 
-4.759 
n/a 
n/a 
n/a 
n/a 
-4.759 
n/a 
n/a 
n/a 
n/a 
-5.015 -3.1335 -3.99 -1.7695 -5.4435 -5.585 -1.7695 -4.7615 -3.8905 -1.756 -3.013 -6.1205 0 -3.729 -5.585 -1.934 -1.8085 -3.2875 -2.7835 -3.0365 -2.186 -3.914 -3.557 0 -1.756 -1.7695 -5.203 -4.953 -4.9345 -5.585 -1.7695 -3.956 -2.985 -6.1205 -1.7695 -3.8905 0 
-7.458 -8.027 -5.407001 -5.798501 -10.884 -7.3325 -6.0235 -6.701 -5.1525 -4.674 -9.126 -6.1205 -3.729 -8.387501 -6.806 -3.2685 -5.0185 -6.5225 -4.4665 -3.66 -5.8785 -6.5425 -3.557 -1.756 -3.963 -5.693 -10.5235 -7.526 -9.086 -7.3325 -4.6005 -5.946 -8.16 -7.606 -5.2345 -3.8905 
-13.4335 -8.8575 -10.361 -11.9784 -12.6315 -9.3545 -7.0715 -7.654 -7.671 -10.3815 -9.126 -10.66 -8.387501 -9.641001 -8.7275 -6.052001 -7.919 -8.250501 -4.811501 -6.381001 -9.4285 -6.5425 -5.749001 -3.963 -7.747 -11.6847 -13.0965 -11.8773 -10.8921 -10.5007 -6.2635 -10.6335 -9.104 -9.3605 -5.2345 
-14.264 -14.7625 -16.5809 -13.7259 -14.6535 -10.5523 -7.962 -9.7165 -13.9581 -10.3815 -13.9643 -15.3185 -9.641001 -11.6003 -10.6885 -8.8585 -9.812 -8.691501 -7.323 -9.5585 -9.4285 -9.535001 -7.8735 -7.747 -13.9225 -14.2577 -17.4478 -13.6834 -14.0603 -12.1637 -11.1294 -11.5775 -9.671 -9.3605 
-20.169 -20.9824 -18.3284 -15.7479 -15.8513 -11.4428 -10.28 -16.2438 -13.9581 -15.2198 -18.6228 -16.572 -11.6003 -13.5613 -13.495 -10.513 -10.445 -11.2146 -9.8295 -9.5585 -12.7024 -11.6927 -11.9709 -13.9225 -16.4955 -18.609 -19.2539 -16.8516 -15.7233 -17.0296 -12.0734 -12.1445 -9.671 
-3.1335 -1.7695 -3.8905 -2.186 -2.664 -3.619 -1.7695 -4.677 0 -4.6475 -4.6185 -3.8905 0 -2.9705 -3.2875 -3.7875 -2.847 -4.677 -3.3165 -1.756 -3.8055 -4.677 -2.264 -2.3335 -3.5015 -1.756 -6.097 -5.585 -2.0935 -2.5685 -3.8195 -2.186 -2.664 -4.3025 -1.7695 -3.8905 0 
-4.809 -5.2345 -5.2345 -3.8555 -8.107 -4.667 -6.900001 -4.677 -4.6475 -10.2485 -7.816 -3.8905 -2.9705 -6.9505 -7.3765 -5.9115 -7.916501 -8.434 -5.2055 -5.035501 -9.4455 -6.9435 -4.6785 -5.909 -5.087 -7.2555 -12.7954 -7.5715 -3.987 -5.398 -6.1025 -3.8555 -9.0345 -5.715 -5.2345 -3.8905 
-7.3715 -7.0935 -7.0855 -9.685501 -9.311501 -11.9907 -6.900001 -9.3685 -10.2485 -13.446 -7.816 -6.396 -6.9505 -11.8159 -9.443001 -10.151 -12.1287 -10.451 -7.721 -10.553 -10.7585 -9.1285 -8.109 -7.112 -9.908 -14.1893 -14.7819 -9.554 -6.863501 -8.116 -7.911 -10.8012 -10.443 -9.885 -5.2345 
-8.940001 -8.708 -13.5979 -11.3508 -17.799 -11.9907 -10.7175 -15.1653 -13.446 -13.446 -11.0665 -10.9762 -11.8159 -13.8824 -13.7741 -14.6058 -14.1457 -12.9665 -13.3755 -12.204 -12.9435 -12.9252 -9.190001 -12.283 -16.9806 -16.1758 -16.7644 -12.6925 -9.033501 -9.9125 -15.3299 -12.2097 -14.613 -9.885 
-10.4265 -15.3706 -15.2632 -19.8383 -17.799 -15.8082 -16.5143 -18.3628 -13.446 -16.6965 -15.6467 -15.8416 -13.8824 -18.2135 -18.2289 -16.6228 -16.6612 -18.621 -15.0265 -14.389 -16.7402 -14.0062 -14.447 -19.3556 -18.9671 -18.1583 -19.9029 -14.8625 -11.2248 -17.353 -16.7384 -16.3797 -14.613 
-3.8905 -3.1335 -3.757 -4.3955 -1.4985 -4.677 -1.756 -6.594 -1.4985 -3.8905 -1.934 -1.4985 -9.4385 -1.4985 -5.585 -1.934 -1.4985 -4.8405 -3.3155 -2.4265 -2.229 -2.6165 -4.7615 -1.756 -6.594 -1.4985 -3.8905 -1.934 -2.3335 -10.979 -1.4985 -4.677 -1.934 -1.4985 -4.8405 -3.152 -2.925 -2.4945 -4.9125 -1.756 -6.594 -1.934 -1.4985 -3.8905 
-8.093 -6.6375 -7.79 -5.5445 -5.4395 -6.0955 -7.7885 -7.5105 -5.518001 -5.5195 -2.6125 -11.197 -11.6275 -6.5345 -6.806 -2.6125 -6.033501 -7.061 -4.7775 -3.3415 -4.2275 -7.649501 -5.134 -7.7885 -7.5105 -5.518001 -5.5195 -4.359 -12.6825 -10.5085 -5.4395 -6.2735 -2.6125 -6.033501 -7.143001 -5.722 -3.7675 -6.6 -6.343 -7.7885 -8.057501 -2.6125 -5.518001 
-11.9964 -11.2637 -8.839001 -9.946 -6.639501 -12.858 -8.5305 -8.96 -7.460001 -6.1745 -12.8304 -13.1244 -17.2557 -7.893001 -7.5535 -6.8405 -8.002501 -8.7005 -5.843 -4.428 -10.757 -9.134001 -13.4417 -8.5305 -8.96 -7.460001 -7.6735 -15.6356 -15.6625 -14.0848 -6.964001 -7.0435 -6.8405 -8.113001 -10.111 -7.6435 -7.7425 -7.76 -13.1719 -9.0675 -8.6285 -7.2015 
-16.6226 -12.3127 -13.3605 -11.2516 -13.6902 -13.6 -10.316 -11.2206 -8.073001 -15.0625 -14.213 -18.7526 -18.6142 -8.5705 -10.674 -8.51 -9.626501 -9.852501 -7.2485 -11.1755 -12.2415 -17.5745 -14.1837 -10.316 -11.2206 -9.903001 -19.2275 -18.2804 -17.529 -15.1698 -7.752 -11.8043 -9.304001 -11.1474 -12.0325 -11.8395 -9.039001 -14.8125 -14.4509 -9.771 -13.4689 
-17.6716 -16.8342 -14.6661 -18.3023 -14.4322 -15.3855 -12.6092 -11.8336 -16.8026 -16.4941 -19.8412 -20.1111 -19.2917 -11.7556 -12.3435 -10.0005 -10.9217 -11.258 -14.11 -12.66 -20.682 -18.3165 -15.9692 -12.6092 -13.6636 -21.457 -21.8723 -20.1469 -18.614 -16.1708 -12.6892 -14.2678 -12.3478 -13.0689 -16.2285 -13.136 -16.2133 -16.0915 -15.1544 -14.6114 
-3.1335 -1.7695 -3.8905 -2.186 -4.3955 -1.4985 -5.585 -1.756 -4.3115 -7.6035 -1.7695 -1.4985 -5.0715 -3.8245 -1.934 -1.4985 -5.585 0 -3.737 -4.832 -1.7695 -3.859 -5.585 -1.756 -4.3115 -7.6035 -1.934 -1.4985 -4.167 -3.3155 -3.0365 -2.186 -2.847 -5.585 0 -5.4975 -4.9125 -5.585 -1.756 -3.737 -3.3755 -1.7695 -3.956 -1.4985 -4.8945 0 
-4.809 -5.2345 -5.2345 -6.6425 -5.5445 -6.5345 -6.4485 -5.9455 -9.834 -9.229501 -2.7955 -5.546 -8.622001 -4.7245 -2.6125 -6.5345 -5.585 -3.737 -8.462501 -6.54 -4.462 -8.2565 -6.4485 -5.9455 -9.834 -9.073501 -2.6125 -5.5465 -6.594 -5.0985 -3.66 -4.1045 -8.5695 -5.585 -5.4975 -7.511001 -10.01 -6.4485 -5.2025 -7.0455 -3.992 -4.6005 -5.458 -6.5275 -4.8945 
-7.3715 -7.0935 -9.064501 -7.5355 -10.0475 -7.422501 -10.181 -10.6465 -11.5414 -10.0615 -6.794 -9.5535 -9.379001 -5.4215 -7.5765 -6.5345 -9.319 -8.462501 -9.2615 -9.495001 -8.586 -8.979 -10.181 -10.6465 -11.3854 -9.759001 -6.271 -7.3995 -7.974501 -5.425 -4.256001 -10.7928 -8.5695 -12.0225 -7.511001 -13.1951 -10.693 -9.352 -8.4865 -8.515 -7.258501 -5.759 -10.213 -6.5275 
-8.940001 -11.1531 -10.168 -12.1581 -11.5247 -11.3342 -14.882 -12.3539 -12.3734 -14.06 -10.733 -10.0865 -9.891001 -10.0955 -7.5765 -10.163 -14.1773 -9.2615 -12.3777 -13.7176 -9.217 -12.8439 -14.882 -12.1979 -12.0709 -13.5549 -7.974 -9.019001 -8.370001 -6.1365 -11.0145 -10.7928 -15.2794 -14.036 -13.1951 -13.8781 -13.5965 -13.4258 -9.8985 -12.0891 -8.1005 -10.31 -10.213 
-13.1196 -12.2566 -14.885 -13.6353 -15.4364 -16.0352 -16.5894 -13.1859 -16.3719 -17.999 -11.266 -10.511 -14.6446 -10.0955 -11.3522 -15.0213 -14.9763 -12.3777 -16.6003 -14.3486 -13.1441 -17.5449 -16.4334 -12.8834 -15.8668 -15.2579 -9.432501 -9.387001 -9.297501 -13.022 -11.0145 -17.5027 -17.2929 -19.7201 -13.8781 -16.7816 -17.6703 -14.8378 -13.6084 -12.9311 -12.8111 -10.31 
