-4.759 
n/a 
n/a 
n/a 
n/a 
-4.759 
n/a 
n/a 
n/a 
n/a 
-4.759 
n/a 
n/a 
n/a 
n/a 
-4.759 
n/a 
n/a 
n/a 
n/a 
-4.3845 0 -5.243 -1.756 -3.074 -1.4985 -4.273 -2.0935 -1.4985 -4.6505 -1.7565 -4.278 
-4.3845 -5.243 -6.538 -4.566 -4.6505 -5.1805 -5.392 -2.9725 -5.954 -5.72 -6.515 
-7.4955 -6.538 -9.693001 -5.66 -8.479501 -6.1145 -6.2955 -6.8255 -6.3275 -11.3581 
-8.284 -9.693001 -10.787 -9.280001 -9.205501 -6.976501 -9.444501 -7.008 -12.314 
-12.035 -10.787 -14.407 -9.693001 -10.002 -9.8795 -9.500001 -13.3703 
-4.1885 0 -5.412 -1.756 -4.528 -1.4985 -3.4775 -1.7565 -9.356501 -4.7525 0 
-4.1885 -5.412 -7.5325 -5.574 -5.071001 -4.400001 -4.2525 -12.0622 -14.6268 -4.7525 
-8.324001 -7.5325 -11.8283 -6.1975 -7.860501 -4.605 -15.2286 -17.3325 -14.6268 
-9.018501 -11.8283 -12.4518 -8.621 -8.045001 -15.8079 -20.4989 -17.3325 
-13.7607 -12.4518 -14.8753 -8.8835 -19.5197 -21.0782 -20.4989 
-4.293 0 -4.4765 -1.756 -4.528 -4.4525 -9.356501 
-4.293 -4.4765 -5.862 -5.574 -9.6415 -15.1656 
-9.1555 -5.862 -9.986 -11.0219 -21.2076 
-10.427 -9.986 -15.4631 -22.588 
-14.551 -15.4631 -27.0292 
-4.3845 -1.756 -4.856 -1.756 -4.278 -2.229 -4.6505 -1.7565 -3.4775 -4.7525 0 
-5.4845 -6.053 -6.087501 -6.4635 -6.414001 -7.214 -5.72 -5.4235 -7.938001 -4.7525 
-7.355 -7.570001 -11.5234 -8.565001 -12.3228 -7.9665 -10.168 -9.171 -7.938001 
-8.824 -13.2295 -13.6249 -14.7538 -13.0753 -12.9491 -13.9155 -9.171 
-14.6469 -15.331 -19.8137 -15.5063 -18.0579 -16.6966 -13.9155 
