-4.759 
n/a 
n/a 
n/a 
n/a 
-4.759 
n/a 
n/a 
n/a 
n/a 
-4.759 
n/a 
n/a 
n/a 
n/a 
-4.759 
n/a 
n/a 
n/a 
n/a 
-2.4265 -3.6615 -1.4985 -3.5135 -2.0935 -4.5385 
-6.1035 -5.318 -4.886 -5.4075 -6.062 
-6.761001 -8.142 -6.6045 -9.425501 
-9.630001 -10.292 -11.0973 
-11.7036 -14.8056 
-2.4265 -3.6615 -1.4985 -4.088 -2.0935 -2.911 0 
-6.1035 -5.318 -5.6785 -5.8865 -5.12 -2.911 
-6.761001 -9.820001 -7.8595 -9.754001 -5.12 
-11.6682 -12.2012 -11.9406 -9.754001 
-14.0494 -16.2823 -11.9406 
-3.183 -5.3105 -1.7565 -4.5385 0 
-9.210001 -6.6865 -6.215001 -4.5385 
-10.8936 -11.714 -6.215001 
-15.9211 -11.714 
-15.9211 
-3.4625 -4.5385 -3.7345 
-8.574501 -8.247001 
-12.7382 
n/a 
n/a 
