-4.759 
n/a 
n/a 
n/a 
n/a 
-4.759 
n/a 
n/a 
n/a 
n/a 
-4.759 
n/a 
n/a 
n/a 
n/a 
-4.759 
n/a 
n/a 
n/a 
n/a 
-9.593 -12.16972 -12.16972 -6.5785 -1.934 -3.135 -3.4795 -4.4465 -1.934 -5.837 -4.63 0 
-22.06892 -24.33944 -18.74822 -8.8265 -4.4015 -6.0235 -8.595 -6.281 -8.7305 -9.64 -4.63 
-34.23864 -30.91794 -20.99622 -11.493 -7.9585 -11.7926 -10.66 -13.6757 -12.7015 -9.64 
-40.81714 -33.16594 -23.66272 -15.05 -13.7844 -13.8576 -18.0547 -17.6467 -12.7015 
-43.06514 -35.83244 -27.21972 -20.8759 -15.8494 -21.2523 -22.0257 -17.6467 
-9.593 -8.308001 -8.268001 -6.5785 0 -2.871 -2.95 -3.7555 -1.8085 -6.339 
-18.2072 -17.4802 -10.523 -6.5785 -2.871 -4.919 -7.1765 -4.597 -8.597501 
-27.3794 -19.7352 -10.523 -9.894501 -4.919 -8.9785 -7.992 -12.2662 
-29.6344 -19.7352 -13.839 -12.2369 -8.9785 -9.8835 -15.901 
-29.6344 -23.0512 -16.1814 -16.2964 -9.8835 -17.7925 
-6.707 -5.964 -8.308001 -8.268001 -6.5785 0 -2.871 -2.95 -3.383 -4.4465 -2.0935 -12.16972 0 
-13.5046 -14.9026 -17.4802 -10.523 -6.5785 -2.871 -4.919 -6.7095 -8.051001 -7.023001 -15.25422 -12.16972 
-22.4432 -24.0748 -19.7352 -10.523 -9.894501 -4.919 -8.481501 -11.6189 -10.467 -20.85252 -15.25422 
-31.6154 -26.3298 -19.7352 -13.839 -12.2369 -8.481501 -13.5271 -14.0349 -24.29652 -20.85252 
-33.8704 -26.3298 -23.0512 -16.1814 -15.7994 -13.5271 -15.9431 -27.86442 -24.29652 
-9.593 -10.017 -12.16972 -2.186 -4.4305 -1.7695 -4.05 0 
-19.9162 -22.25352 -14.35572 -8.2895 -7.2805 -6.296501 -4.05 
-32.15272 -24.43952 -20.45922 -10.419 -12.1429 -6.296501 
-34.33872 -30.54302 -22.58872 -15.2814 -12.1429 
-40.44222 -32.67252 -27.45112 -15.2814 
