-4.759 
n/a 
n/a 
n/a 
n/a 
-4.759 
n/a 
n/a 
n/a 
n/a 
-4.759 
n/a 
n/a 
n/a 
n/a 
-4.759 
n/a 
n/a 
n/a 
n/a 
-2.882 0 -8.821 -8.3155 -10.5895 -3.193 
-2.882 -8.821 -11.046 -19.6518 -13.7825 
-13.506 -11.046 -22.3823 -22.8448 
-15.731 -22.3823 -25.5753 
-27.0673 -25.5753 
-2.882 0 -9.602501 -10.144 -3.3365 -4.4515 -3.193 
-2.882 -9.602501 -20.1883 -13.5339 -5.861 -7.463 
-14.2875 -20.1883 -23.5782 -16.0584 -7.817 
-24.8733 -23.5782 -26.1027 -18.0144 
-28.2632 -26.1027 -28.0587 
-11.703 -10.144 -8.2275 -3.193 
-24.1026 -18.4249 -9.8655 
-32.3835 -20.0629 
-34.0215 
n/a 
-2.882 0 -8.821 -8.205501 -3.3365 -4.4515 -3.193 
-2.882 -8.821 -17.4791 -11.8982 -5.861 -7.463 
-13.506 -17.4791 -21.1718 -14.4227 -7.817 
-22.1641 -21.1718 -23.6963 -16.3787 
-25.8568 -23.6963 -25.6523 
