-4.759 
n/a 
n/a 
n/a 
n/a 
-4.759 
n/a 
n/a 
n/a 
n/a 
-4.759 
n/a 
n/a 
n/a 
n/a 
-4.759 
n/a 
n/a 
n/a 
n/a 
-4.628 -5.939 -3.5435 0 -6.4195 0 -6.144 -3.7535 0 -4.07 -3.2495 
-5.9615 -7.053 -3.5435 -6.4195 -6.4195 -6.144 -10.8415 -3.7535 -4.07 -6.3005 
-7.0565 -7.053 -9.984 -6.4195 -9.790501 -10.8415 -10.8415 -7.8465 -6.3005 
-7.0565 -14.1361 -9.984 -9.790501 -14.7232 -10.8415 -14.9345 -10.757 
-14.1418 -14.1361 -13.4976 -14.7232 -14.7232 -14.9345 -17.845 
-10.14 -3.5435 0 -7.816 0 -2.356 -4.431 -5.3745 -4.891 -1.7565 -5.1845 -6.844 0 -3.6115 -4.07 
-10.9575 -3.5435 -7.693501 -7.693501 -2.356 -7.4735 -10.368 -7.061501 -6.8725 -6.580501 -6.9655 -6.844 -3.6115 -5.573501 
-10.9575 -11.54 -6.808001 -10.005 -7.4735 -13.9775 -12.408 -7.1715 -7.181 -7.1625 -6.9655 -11.3941 -5.573501 
-18.9808 -11.5668 -10.1035 -15.8612 -13.9775 -16.0175 -12.518 -7.185 -7.202001 -7.1625 -11.685 -13.3561 
-18.9808 -14.8623 -16.0054 -22.5094 -16.0175 -16.1275 -12.5315 -7.2055 -7.202001 -12.0898 -13.647 
-11.0235 -6.0655 -2.341 -4.5085 -4.558 -2.356 -8.3915 -9.145 
-17.089 -8.781 -5.384501 -10.382 -5.43 -11.6583 -9.421 
-19.8045 -12.3837 -11.9382 -11.254 -15.3979 -12.6878 
-23.4072 -18.9374 -12.8102 -21.2219 -16.4274 
-29.9609 -19.8094 -22.7781 -22.2514 
-3.6115 -4.07 -5.0745 -3.458 -6.6585 -1.756 -8.3915 -6.7685 
-5.573501 -8.8545 -6.9115 -10.1075 -8.549 -10.181 -10.784 
-10.31 -10.504 -14.1382 -10.3165 -17.2172 -12.7331 
-12.1625 -17.7307 -14.3472 -18.9847 -19.7693 
-19.3892 -17.9397 -23.0154 -21.5368 
