-4.759 
n/a 
n/a 
n/a 
n/a 
-4.759 
n/a 
n/a 
n/a 
n/a 
-4.759 
n/a 
n/a 
n/a 
n/a 
-4.759 
n/a 
n/a 
n/a 
n/a 
-3.982 -2.7415 -4.168 -1.7695 -2.3335 
-6.608 -5.786 -6.5035 -4.46 
-9.824 -8.554501 -9.532001 
-12.2471 -11.6752 
-15.3678 
-3.982 -3.074 -4.168 -1.7695 -2.3615 
-7.261 -6.1765 -6.5035 -3.736 
-9.7355 -8.4175 -9.193001 
-12.3875 -11.238 
-15.208 
-3.982 -3.074 -4.168 -2.0935 -2.3615 0 
-7.261 -6.1765 -5.994 -3.854 -2.3615 
-9.7355 -7.9025 -7.485001 -3.854 
-11.8725 -10.0125 -7.485001 
-13.9825 -10.0125 
-3.982 -3.6245 -4.168 -2.3615 0 
-7.768001 -8.573501 -6.406 -2.3615 
-12.9204 -10.31 -6.406 
-14.6569 -10.31 
-14.6569 
