-4.759 
n/a 
n/a 
n/a 
n/a 
-4.759 
n/a 
n/a 
n/a 
n/a 
-4.759 
n/a 
n/a 
n/a 
n/a 
-4.759 
n/a 
n/a 
n/a 
n/a 
-6.1525 -1.756 -3.5385 -2.229 -4.6495 -1.7695 -3.6675 -1.4985 -4.007 0 
-7.613 -4.993 -4.2445 -6.0485 -5.067 -4.3935 -5.012 -5.7215 -4.007 
-10.7335 -5.8005 -8.6145 -6.3205 -7.261001 -5.498 -8.822001 -5.7215 
-11.541 -10.354 -8.7655 -8.466001 -8.331 -9.227501 -8.822001 
-16.0945 -10.6085 -10.2185 -9.613001 -12.3171 -9.227501 
-1.934 -4.5495 -3.5065 -3.6675 0 -4.0185 -4.467 -1.7695 -3.5185 -9.078501 -3.958 -3.3255 -3.8755 -3.4985 -1.7565 -1.4985 -4.243 0 -3.2775 -2.5045 -2.3345 -6.440001 0 -4.6505 -1.4985 -4.243 -1.7695 -1.8085 -8.548 0 -1.756 -2.3345 -4.0035 -4.6225 -2.5045 -1.4985 -4.2125 0 
-5.7965 -7.8185 -5.7735 -3.6675 -4.0185 -7.333 -4.6455 -4.134 -11.4585 -9.586 -6.58 -6.7585 -7.212 -4.622 -2.4195 -4.9255 -4.243 -3.2775 -3.678 -5.653501 -8.4425 -6.440001 -4.6505 -5.685 -4.9255 -5.999 -3.41 -7.823501 -6.521501 -1.756 -4.614 -5.381001 -7.2175 -6.343 -3.1915 -4.9175 -4.2125 
-9.690001 -9.5755 -5.7735 -7.5505 -7.333 -7.3385 -6.612 -10.024 -10.8065 -10.9115 -9.311001 -9.6245 -7.948501 -5.215 -6.104001 -4.9255 -8.196 -3.678 -6.2305 -10.0315 -8.4425 -7.975501 -5.685 -7.4165 -6.298 -7.5395 -9.277 -7.559 -7.921 -4.614 -7.232 -8.970501 -7.556 -6.982501 -7.3755 -4.9175 
-10.0465 -9.5755 -8.6975 -9.975 -7.3385 -9.958501 -10.67 -9.7335 -11.1215 -10.5995 -10.2285 -9.852 -8.508 -7.549 -6.104001 -8.71 -8.543 -6.2305 -10.0375 -10.0315 -9.892 -9.885 -7.4165 -8.1905 -7.7375 -11.02 -8.4735 -8.867001 -10.047 -7.232 -10.031 -9.1885 -8.3575 -9.278501 -7.3755 
-10.0465 -10.0625 -10.019 -9.982501 -9.958501 -10.306 -10.4055 -10.361 -10.26 -10.313 -10.237 -9.9855 -10.025 -7.549 -9.213501 -9.085 -9.9835 -10.0375 -10.0375 -10.128 -10.1345 -9.946501 -8.1905 -9.1815 -9.153001 -9.13 -9.5755 -10.1465 -10.1085 -10.031 -10.0625 -9.6155 -9.9945 -9.278501 
-5.6255 -1.756 -3.5385 -2.4945 -5.7735 -4.5075 -1.4985 -4.007 -4.5185 0 
-6.81 -4.993 -5.223 -7.1035 -8.302501 -5.3015 -5.7215 -6.949 -4.5185 
-8.4615 -6.6035 -9.592501 -9.237 -8.786 -8.153 -8.658501 -6.949 
-10.068 -11.1986 -11.828 -9.851001 -11.7497 -10.4675 -8.658501 
-14.6631 -13.4341 -12.442 -12.8147 -14.0642 -10.4675 
-3.5385 -1.756 -4.357 -3.554 -4.007 -2.645 
-4.657 -5.516 -7.811001 -7.1575 -7.1225 
-5.842 -8.198501 -11.9013 -9.470501 
-8.897 -12.5234 -14.2143 
-13.0501 -14.8364 
