-4.759 
n/a 
n/a 
n/a 
n/a 
-4.759 
n/a 
n/a 
n/a 
n/a 
-4.759 
n/a 
n/a 
n/a 
n/a 
-4.759 
n/a 
n/a 
n/a 
n/a 
-3.307 -1.7565 0 -6.4885 0 -3.2295 0 -3.188 -4.0005 -4.113 -3.6615 0 
-4.8035 -1.7565 -6.4885 -6.4885 -3.2295 -3.2295 -3.188 -4.969501 -8.192 -6.06 -3.6615 
-4.8035 -8.672501 -6.4885 -10.504 -3.2295 -7.143 -4.969501 -8.968 -10.0925 -6.06 
-12.6307 -8.672501 -10.504 -10.504 -7.143 -9.034 -8.968 -10.287 -10.0925 
-12.6307 -12.8694 -10.504 -14.4175 -9.034 -13.1011 -10.287 -10.287 
-3.188 -3.6615 -1.4985 -4.8285 
-7.165 -5.318 -6.436501 
-8.4285 -10.0885 
-13.4812 
n/a 
-4.1215 -2.0935 -5.202 -3.6615 
-6.4175 -7.4045 -8.7895 
-12.3687 -11.3714 
-16.3356 
n/a 
-5.793 -4.285 -2.9635 -3.6605 -5.473 -3.6615 
-10.533 -7.0375 -7.118 -7.678 -6.1595 
-13.2855 -12.5618 -11.9417 -8.561001 
-18.8098 -17.3855 -12.8247 
-23.6335 -18.2685 
