-4.759 
n/a 
n/a 
n/a 
n/a 
-4.759 
n/a 
n/a 
n/a 
n/a 
-4.759 
n/a 
n/a 
n/a 
n/a 
-4.759 
n/a 
n/a 
n/a 
n/a 
-8.042001 -3.757 -7.087501 -5.698 -2.356 -5.0075 -2.8645 -4.4015 -1.7695 -4.502 -4.1485 -1.934 -3.59 
-12.2868 -10.4035 -10.634 -8.547501 -7.299001 -7.661 -5.6705 -4.6435 -4.8245 -7.906 -6.5485 -5.832 
-18.9333 -13.95 -13.4835 -13.6621 -10.3545 -9.2215 -5.8455 -7.15 -8.321501 -10.897 -9.9585 
-22.4798 -16.7995 -18.5981 -16.7176 -11.915 -9.4185 -8.035501 -10.7335 -11.5257 -14.307 
-25.3293 -21.9141 -21.6536 -18.2781 -12.112 -11.7207 -11.7248 -13.9377 -14.9357 
-5.087 -3.757 -5.698 -5.3425 -3.091 -3.5435 -1.756 -4.3215 -4.1485 0 
-8.4805 -7.405001 -9.344501 -8.3135 -6.2165 -4.862 -6.293 -8.773001 -4.1485 
-10.115 -10.218 -13.0867 -9.708 -7.462501 -9.092501 -10.5975 -8.773001 
-13.0034 -14.654 -14.4812 -10.1705 -10.7175 -13.6388 -10.5975 
-17.4394 -16.0485 -14.9437 -13.5705 -15.2638 -13.6388 
-3.757 -1.7565 -5.087 -5.4155 -5.698 -5.3425 -1.4985 -4.373 -1.756 -4.8165 -4.1485 0 
-4.5665 -6.2415 -8.9545 -8.2815 -9.344501 -6.9215 -5.0385 -6.035 -6.349 -7.745501 -4.1485 
-8.8935 -10.7175 -12.5279 -12.2838 -9.4425 -9.807 -6.830501 -10.151 -9.804501 -7.745501 
-13.4537 -14.2909 -16.5302 -12.3818 -12.9404 -11.8134 -10.66 -13.6917 -9.804501 
-17.0271 -18.2932 -16.6282 -15.8797 -14.9468 -15.6429 -14.2007 -13.6917 
-5.087 -3.757 -9.021001 -8.533501 -5.246 -1.4985 -4.698 -1.756 -4.3155 -4.1485 -4.1 0 
-8.4805 -13.825 -17.9731 -14.0493 -6.1105 -5.740001 -5.804501 -5.709 -8.9025 -6.9685 -4.1 
-19.2933 -22.7771 -23.4889 -14.9138 -9.463 -6.908 -9.650001 -10.4334 -12.3115 -6.9685 
-28.2454 -28.2929 -24.3534 -18.2663 -10.178 -10.8579 -14.5676 -13.8424 -12.3115 
-33.7612 -29.1574 -27.7059 -18.9813 -14.2551 -15.7755 -17.9766 -13.8424 
