-4.759 
n/a 
n/a 
n/a 
n/a 
-4.759 
n/a 
n/a 
n/a 
n/a 
-4.759 
n/a 
n/a 
n/a 
n/a 
-4.759 
n/a 
n/a 
n/a 
n/a 
-1.8085 -3.16 -2.9775 -2.186 -1.8085 -3.802 0 -4.5375 -3.881 -1.934 -4.5155 -3.397 -6.1955 -2.356 -5.0675 -4.2255 -1.7565 -5.6395 -5.1085 -3.6885 
-4.6915 -4.6715 -4.91 -3.164 -5.174 -3.802 -4.5375 -7.772501 -5.05 -5.718 -5.329 -8.712501 -6.406001 -7.314501 -7.4325 -6.2665 -6.934 -6.578 -5.832001 
-5.6075 -6.3285 -6.2085 -6.569 -5.174 -7.993 -7.772501 -8.217501 -7.277 -6.585001 -9.366 -8.7875 -9.275001 -9.149501 -9.2045 -9.4075 -8.0825 -6.5945 
-7.2205 -7.6125 -8.919001 -6.569 -8.849001 -9.3035 -8.217501 -9.394501 -8.4525 -9.4005 -9.3815 -9.305 -9.409 -9.4075 -9.4095 -9.4095 -8.090501 
-8.423 -9.123 -8.919001 -9.266001 -9.318001 -9.312 -9.394501 -9.4075 -9.408 -9.4025 -9.4065 -9.410501 -9.411 -9.411 -9.410501 -9.410501 
-1.4985 -9.5775 -3.4605 -2.4945 -3.4625 -4.9985 -1.934 -4.369 -1.4985 -3.4605 -2.9705 -3.152 -4.417 -2.5195 -1.4985 -3.486 -2.9775 0 
-10.634 -13.1402 -5.561 -4.7105 -6.896 -6.2365 -6.5415 -5.532001 -4.652 -5.989 -5.007 -6.6855 -6.334001 -3.1695 -3.5655 -5.88 -2.9775 
-14.1967 -15.2407 -8.271 -8.353001 -8.058001 -11.7392 -6.897 -7.9575 -7.026 -9.0045 -8.2495 -8.082001 -6.705501 -5.325 -5.9915 -5.88 
-16.2972 -17.9507 -12.5419 -9.3505 -13.7907 -12.0947 -10.044 -10.2235 -9.860001 -12.336 -10.1075 -8.5255 -8.7405 -7.6095 -5.9915 
-19.0072 -22.2216 -13.5394 -15.1786 -14.1462 -15.2417 -12.31 -13.5927 -13.1915 -14.194 -10.51 -10.6443 -11.7744 -7.6095 
-2.4265 -3.563 -3.251 -1.4985 -3.669 -3.2615 -4.4265 -4.941 0 -1.756 -4.042 -4.174 -1.7695 -3.16 -3.1335 -2.5195 -1.4985 -3.8085 -2.9775 
-5.8385 -6.327001 -5.0745 -4.85 -6.963 -7.2285 -8.787001 -4.941 -1.756 -5.4535 -8.4445 -6.3525 -5.4185 -5.268 -5.502 -3.1695 -5.574 -8.362 
-9.068501 -7.291 -8.984 -7.8255 -10.757 -12.244 -8.787001 -6.134001 -5.4535 -10.0505 -10.876 -10.199 -7.607 -6.639 -6.1435 -7.34 -9.1005 
-9.8695 -9.8295 -11.9801 -11.9141 -15.7725 -12.244 -10.0045 -8.008 -10.0505 -12.6404 -14.7225 -12.4921 -9.892 -7.9725 -10.9908 -10.341 
-12.624 -13.0968 -16.0687 -16.9296 -15.7725 -13.4615 -11.8785 -13.243 -12.6404 -16.4869 -17.0156 -14.7771 -11.2975 -13.5814 -13.9918 
-2.3335 -3.291 -3.5865 -1.7695 -3.669 -3.17 -1.7565 -3.432 -3.1335 
-6.1435 -6.367001 -4.1825 -5.0585 -7.684 -4.179 -5.5975 -6.7 
-10.4855 -6.502501 -8.4325 -9.315001 -8.572001 -9.610001 -8.5175 
-10.621 -11.7541 -13.2558 -10.5435 -14.4654 -12.5808 
-15.8726 -16.5774 -14.4843 -16.4769 -17.4362 
