-4.759 
n/a 
n/a 
n/a 
n/a 
-4.759 
n/a 
n/a 
n/a 
n/a 
-4.759 
n/a 
n/a 
n/a 
n/a 
-4.759 
n/a 
n/a 
n/a 
n/a 
-5.7865 -9.322001 -4.348 -2.7415 -5.1605 -2.3345 -5.693 -5.6655 
-13.976 -12.4245 -7.3645 -6.64 -6.162 -8.263 -8.6435 
-18.6125 -13.202 -10.7175 -7.081 -12.9031 -11.5913 
-19.146 -17.2198 -11.1585 -14.1847 -16.2314 
-23.1638 -17.6608 -18.2622 -17.513 
-4.732 -3.5715 -5.564 -4.348 -2.7415 -3.325 -1.4985 -3.5435 -4.1455 
-7.4805 -8.2965 -9.956501 -7.3645 -5.7585 -3.898 -4.2755 -8.038501 
-12.1291 -13.0184 -10.49 -9.887501 -6.248 -6.8145 -9.712 
-16.851 -13.5519 -13.6778 -10.4385 -8.454 -12.998 
-17.3845 -16.7397 -14.2288 -12.6445 -15.8269 
-3.5725 -3.758 -5.564 -4.348 -1.934 -1.4985 -4.2285 -1.7565 -7.1525 -5.4945 0 
-8.910501 -8.032001 -9.956501 -6.7025 -2.6125 -5.116 -5.173501 -9.123501 -13.2334 -5.4945 
-13.6473 -12.6685 -12.8256 -7.559 -5.4395 -5.219 -13.4201 -15.4844 -13.2334 
-18.2838 -15.5376 -13.6821 -10.8258 -5.461 -13.573 -19.781 -15.4844 
-21.1529 -16.3941 -16.9489 -10.8473 -14.0844 -19.9339 -19.781 
-8.283 -3.5715 -5.564 0 -4.348 -2.7415 -3.325 -1.4985 -5.362 -1.7565 -5.693 -5.6655 0 
-12.3663 -8.2965 -5.564 -4.348 -7.3645 -5.7585 -3.898 -6.038501 -5.843 -7.3745 -8.6435 -5.6655 
-17.0913 -8.2965 -9.956501 -7.3645 -9.887501 -6.248 -7.4585 -6.073501 -12.4088 -9.321 -8.6435 
-17.0913 -13.0184 -10.49 -9.887501 -10.4385 -9.263 -7.464 -12.7931 -14.3553 -9.321 
-21.8132 -13.5519 -13.6778 -10.4385 -13.4535 -9.2655 -14.2598 -14.7396 -14.3553 
