-4.759 
n/a 
n/a 
n/a 
n/a 
-4.759 
n/a 
n/a 
n/a 
n/a 
-4.759 
n/a 
n/a 
n/a 
n/a 
-4.759 
n/a 
n/a 
n/a 
n/a 
-4.176 -3.2615 -2.871 -3.8275 -4.126 0 -2.3615 -5.005 -3.634 -1.756 -4.8965 -1.4985 -2.8195 -3.9175 -3.383 -5.2295 -3.515 0 
-8.092501 -5.7415 -7.3665 -8.7475 -4.126 -2.3615 -6.678 -8.369 -5.3515 -7.1565 -6.815 -4.524 -6.1855 -8.066 -6.5925 -9.6425 -3.515 
-10.5975 -9.967 -12.7927 -8.7475 -6.500501 -6.678 -10.7918 -10.6151 -11.7356 -9.195001 -10.016 -6.6175 -10.688 -11.4599 -11.4391 -9.6425 
-14.823 -15.4464 -12.7927 -11.2836 -11.192 -10.7918 -13.0379 -16.9992 -13.7741 -12.577 -12.5123 -10.7575 -14.0819 -16.3065 -11.4391 
-20.3024 -15.4464 -15.3288 -15.9751 -15.3058 -13.0379 -19.422 -19.0377 -17.1561 -15.0733 -16.6523 -14.1514 -18.9285 -16.3065 
-3.034 -3.982 -2.186 -3.5725 -1.934 -1.4985 -3.8275 -3.9175 0 -5.8705 -4.2895 -2.0935 -4.746 -1.7565 -3.2775 -1.8085 -2.9195 -1.756 -2.9805 -3.43 -2.4265 -3.908 -2.3335 -4.9225 -3.8385 -8.616 -2.8195 -3.9175 
-7.4965 -6.2965 -4.471 -5.073 -2.6125 -4.726 -7.311 -3.9175 -5.8705 -10.2435 -5.047 -7.444 -5.2905 -4.411 -4.2505 -5.252 -4.328 -4.3555 -5.2875 -4.849 -5.577 -5.017 -7.651 -8.632 -13.4003 -11.7233 -6.1855 
-9.1085 -8.222 -5.7005 -5.692 -5.815001 -7.9715 -7.311 -9.969501 -10.2435 -11.001 -10.028 -7.701 -8.351501 -5.414 -8.672001 -7.199 -7.901 -6.565001 -6.4995 -5.9945 -5.807 -10.168 -11.6783 -18.4554 -16.5076 -15.0893 
-11.1542 -9.265 -6.325 -9.22 -9.3915 -7.9715 -13.8436 -14.5359 -11.001 -15.982 -10.416 -10.575 -9.205001 -9.8105 -9.923 -11.4514 -10.0505 -7.6075 -7.3065 -6.203 -11.201 -14.1953 -21.5017 -21.5627 -19.8736 
-12.1972 -9.778 -10.2275 -12.8537 -9.3915 -14.4685 -18.41 -15.2934 -15.982 -16.37 -13.29 -11.4285 -13.8399 -11.1321 -14.8258 -13.6009 -11.2134 -8.4055 -7.527 -11.7444 -15.2283 -24.0187 -24.609 -24.9287 
-2.5045 -1.4985 -5.922 -2.95 -1.7565 -5.0595 -2.925 -3.4765 -6.453 -1.4985 -3.2015 -1.7565 -5.8705 0 -2.8195 -3.9175 
-3.1915 -6.594501 -9.302 -4.3785 -6.314001 -7.7255 -5.8065 -10.0675 -8.377 -4.9495 -4.706 -7.185501 -5.8705 -2.8195 -6.1855 
-7.948501 -9.943001 -10.8589 -9.3245 -8.871 -10.742 -13.1939 -11.8641 -12.013 -5.357 -9.822001 -7.185501 -10.2185 -6.1855 
-11.5672 -11.5565 -15.8049 -12.1115 -12.0033 -18.1294 -14.9905 -15.5001 -12.4205 -10.6215 -9.822001 -12.0085 -13.5845 
-13.1807 -16.5025 -18.5919 -15.2438 -19.3907 -19.926 -18.6265 -15.9076 -17.685 -10.6215 -14.7054 -15.3745 
-3.5725 -3.982 -2.7415 -1.934 -6.2845 -1.4985 -3.941 -2.264 -4.746 -1.7565 -3.2775 -2.9195 -3.251 -5.0775 -1.8085 -4.352 -2.3335 -1.4985 -5.8705 -1.756 -1.4985 -3.1385 -4.231 -3.152 -4.4095 -1.7695 -1.4985 -3.2795 -1.7565 -2.8195 -3.9175 0 
-8.848001 -6.608 -4.5155 -8.651001 -7.89 -4.96 -5.894 -7.870501 -5.2905 -4.411 -7.41 -7.0975 -7.0535 -6.952001 -6.329 -6.063 -3.3515 -6.7565 -7.356 -3.0405 -4.2575 -7.777501 -6.402501 -7.231501 -7.753 -2.7955 -4.423 -4.4575 -5.102 -6.1855 -3.9175 
-11.841 -8.255 -11.8139 -10.4675 -11.5723 -6.993 -11.8227 -8.093 -8.351501 -8.426001 -9.986501 -11.2394 -8.380501 -12.0655 -7.285 -7.1555 -8.461 -8.528001 -8.7665 -5.6125 -8.9455 -10.6095 -10.0315 -9.896501 -8.62 -5.4925 -5.693 -8.113501 -8.519501 -6.1855 
-13.488 -15.748 -13.6304 -14.1498 -13.6053 -13.4795 -12.0452 -11.4098 -12.7485 -11.1457 -14.1668 -12.5664 -13.7272 -13.0215 -8.7215 -12.584 -10.4345 -9.292001 -11.4983 -10.6315 -12.1963 -14.2385 -12.7297 -10.8529 -11.5032 -6.884501 -9.479501 -12.0806 -8.519501 
-20.981 -17.5645 -17.3127 -16.1828 -20.0918 -13.702 -15.362 -15.8068 -15.4682 -15.326 -15.4938 -17.9131 -14.6832 -14.458 -14.2906 -14.5575 -11.1985 -12.1442 -16.5173 -13.8823 -15.8253 -16.9367 -13.6861 -13.7361 -12.8952 -10.7248 -13.609 -12.0806 
