-4.759 
n/a 
n/a 
n/a 
n/a 
-4.759 
n/a 
n/a 
n/a 
n/a 
-4.759 
n/a 
n/a 
n/a 
n/a 
-4.759 
n/a 
n/a 
n/a 
n/a 
-2.645 -5.494 -2.264 -3.3985 -3.0105 
-8.177501 -7.252501 -4.699 -4.805 
-9.861501 -9.969501 -8.1805 
-12.8513 -13.5772 
-16.459 
-1.4985 -3.371 -1.7565 -3.3985 -3.0105 
-5.2245 -5.493 -5.256001 -4.805 
-5.924 -8.208 -7.006001 
-8.3505 -9.953001 
-10.553 
-3.074 -3.3985 -3.0105 -5.009 
-7.778501 -4.805 -8.699 
-10.068 -10.609 
-15.9974 
n/a 
-4.8315 -3.3985 -3.0105 -5.494 
-10.01 -4.805 -8.9025 
-11.4165 -10.4505 
-17.062 
n/a 
