-4.759 
n/a 
n/a 
n/a 
n/a 
-4.759 
n/a 
n/a 
n/a 
n/a 
-4.759 
n/a 
n/a 
n/a 
n/a 
-4.759 
n/a 
n/a 
n/a 
n/a 
-8.445001 -3.8405 -3.5085 -6.557 -3.8135 -6.585001 0 
-13.0173 -6.9505 -10.9315 -9.881001 -11.5647 -6.585001 
-16.1273 -14.8291 -14.2555 -17.8304 -11.5647 
-24.0059 -18.1531 -22.2049 -17.8304 
-27.3299 -26.1025 -22.2049 
-3.5085 -3.264 -1.7565 -3.8135 -4.3195 -6.585001 -1.934 -1.4985 -3.8405 -1.7565 -8.445001 
-4.98 -3.6125 -5.534 -7.903501 -12.0599 -9.1415 -2.6125 -4.7545 -4.563 -10.2485 
-5.0055 -6.4905 -9.684501 -15.7599 -14.6164 -10.0165 -5.7585 -5.365 -14.2162 
-7.6895 -11.246 -17.5899 -18.3164 -15.4914 -13.2535 -6.6715 -15.0614 
-12.8658 -19.1514 -20.1464 -19.1914 -18.7284 -14.1665 -16.5555 
-3.5455 -2.3615 -3.8405 -1.934 -6.557 0 -3.264 -1.7565 -3.264 -2.186 -4.157 -1.7695 -6.585001 0 
-5.013 -5.371 -5.3015 -7.536 -6.557 -3.264 -3.6125 -5.962501 -5.153501 -5.8055 -5.6485 -8.707001 -6.585001 
-5.726 -6.9545 -11.8173 -7.536 -10.6345 -3.6125 -7.151 -7.9845 -8.055 -6.901 -13.5834 -8.707001 
-7.3785 -13.4337 -11.8173 -11.8613 -10.983 -7.151 -10.1844 -11.2652 -9.1085 -14.9813 -13.5834 
-13.9533 -13.4337 -16.1426 -12.2098 -14.5215 -10.1844 -13.4651 -12.3187 -17.3418 -14.9813 
-1.934 -3.091 -3.8405 -1.4985 -3.264 -1.7565 -3.8135 -1.934 -6.557 -2.7415 -7.9195 -1.7695 -6.585001 
-4.2105 -7.208 -5.224 -4.0935 -3.6125 -5.534 -5.0835 -7.536 -9.448 -9.9895 -9.4755 -8.707001 
-8.610001 -8.977 -7.119 -4.178 -6.4905 -6.556 -9.35 -10.0815 -16.7958 -10.394 -16.5694 
-9.602501 -11.0078 -7.140501 -7.2085 -7.452 -11.0487 -12.0251 -17.4293 -17.2003 -17.7985 
-12.2157 -11.0293 -10.185 -8.2145 -12.2453 -13.7238 -19.3729 -17.8338 -24.6048 
