-4.759 
n/a 
n/a 
n/a 
n/a 
-4.759 
n/a 
n/a 
n/a 
n/a 
-4.759 
n/a 
n/a 
n/a 
n/a 
-4.759 
n/a 
n/a 
n/a 
n/a 
-3.929 -3.691 -2.229 -3.8315 -3.8405 -3.1385 -3.152 -8.324 -3.222 -3.54 -3.711 -3.402 -2.264 -4.868 -3.685 0 -3.5725 -1.4985 -4.9395 -1.7695 -3.3715 -2.8965 -8.597 -3.402 -2.264 -3.9675 0 -3.3435 -3.6835 0 -4.0455 0 -3.6885 0 -7.253 0 -5.101 -5.5125 
-8.1405 -5.0855 -5.747 -6.715 -7.672 -5.219 -11.1415 -12.1024 -5.6115 -6.129001 -6.609 -3.793 -6.697001 -7.7795 -3.685 -3.5725 -5.295 -8.395 -5.127501 -5.0445 -4.827001 -10.564 -12.3086 -3.793 -6.288 -3.9675 -3.3435 -5.2295 -3.6835 -4.0455 -4.0455 -3.6885 -3.6885 -7.253 -7.253 -5.101 -7.997001 
-8.97 -8.536 -8.559501 -10.1855 -9.050501 -13.9299 -14.9199 -14.4919 -6.743 -7.945001 -6.680501 -8.3065 -10.5093 -7.7795 -7.7725 -5.295 -12.6791 -8.705501 -7.934501 -6.4795 -13.0195 -14.2756 -12.6996 -8.054501 -6.288 -6.646501 -5.2295 -5.2295 -7.875 -4.0455 -7.7705 -3.6885 -12.1439 -7.253 -12.9206 -7.997001 
-12.4731 -11.6533 -12.068 -11.564 -17.8112 -17.7083 -17.3094 -15.6234 -8.045 -7.9715 -11.5856 -12.3366 -10.5093 -12.4112 -9.208 -12.6791 -12.9896 -9.259 -9.697001 -14.7772 -16.7311 -14.6666 -16.9611 -8.054501 -9.660501 -8.902 -5.2295 -10.6335 -7.875 -7.7705 -7.7705 -12.1439 -12.1439 -12.9206 -15.8166 
-15.5904 -15.1618 -13.4465 -20.3247 -21.5896 -20.0978 -18.4409 -16.9254 -8.068001 -13.171 -15.6157 -12.3366 -15.141 -13.8467 -16.7109 -12.9896 -13.5431 -13.4743 -18.1541 -18.4888 -17.1221 -18.9281 -16.9611 -11.661 -12.1148 -8.902 -10.6335 -10.6335 -12.0942 -7.7705 -17.0131 -12.1439 -17.8115 -15.8166 
-3.929 -3.0365 -2.4945 -2.461 -3.8175 -4.957 -3.9345 -1.7695 -1.4985 -3.5435 -2.229 -3.5035 0 -4.2085 -5.578 -4.895 -4.742 -1.934 -2.985 -5.891 0 -3.6885 0 -3.9675 0 -3.8245 -1.756 -4.644 -4.9835 0 
-5.627 -3.688 -5.7755 -6.464001 -7.336 -8.141001 -3.94 -2.7955 -4.2755 -4.973001 -5.3825 -3.5035 -4.2085 -8.748001 -9.6285 -7.18 -6.313 -4.111 -7.923 -5.891 -3.6885 -3.6885 -3.9675 -3.9675 -3.8245 -5.4125 -5.814 -11.2615 -4.9835 
-6.1685 -6.0625 -8.1225 -9.5135 -10.6875 -8.1525 -4.4455 -5.5015 -5.2255 -8.341001 -5.3825 -7.529 -8.748001 -12.9087 -11.9915 -7.6745 -7.4295 -9.524501 -7.923 -8.8955 -3.6885 -6.431 -3.9675 -6.752501 -5.4125 -10.1505 -13.5491 -11.2615 
-9.084001 -8.1595 -11.4206 -12.8272 -10.7115 -8.553 -7.0135 -6.521 -8.698 -8.341001 -9.7635 -13.0327 -12.9087 -15.2717 -12.486 -8.175 -13.33 -9.524501 -11.2301 -8.8955 -6.431 -6.431 -6.752501 -8.701 -10.1505 -18.1806 -13.5491 
-11.2582 -11.4712 -14.7343 -12.8512 -11.112 -11.4316 -7.6515 -9.741501 -8.698 -13.3608 -15.5668 -17.1934 -15.2717 -15.7662 -12.9865 -14.1927 -13.33 -12.8714 -11.2301 -12.2182 -6.431 -10.634 -8.701 -14.5286 -18.1806 -18.1806 
-3.4765 -3.929 -2.925 -3.152 -4.552 -3.222 -3.54 -3.535 -3.711 -2.3345 -1.4985 -4.2085 -4.579 0 -3.402 -2.264 -5.891 0 -3.6885 0 -3.9675 0 -4.343 -1.756 -4.7615 -1.4985 -4.2085 -3.8315 -5.5085 -3.152 -4.688 0 
-4.589 -5.321 -4.203 -6.3325 -6.3065 -5.6115 -5.7515 -6.5295 -6.0345 -3.233 -4.987 -7.643001 -4.579 -3.402 -3.793 -7.833 -5.891 -3.6885 -3.6885 -3.9675 -3.9675 -4.343 -5.817501 -6.1475 -6.695001 -4.987 -8.4515 -6.714001 -7.177 -7.681001 -4.688 
-5.713 -6.269 -7.867001 -7.3405 -7.188 -6.9515 -7.534 -9.383 -7.476501 -6.23 -7.723001 -7.643001 -7.803 -3.793 -8.345 -7.833 -8.8955 -3.6885 -6.431 -3.9675 -6.709001 -5.817501 -9.788001 -7.732 -9.799001 -9.410001 -12.2108 -8.144501 -12.029 -7.681001 
-6.775001 -10.085 -8.956 -8.190001 -8.403 -7.986 -10.1995 -10.3975 -10.7637 -9.2545 -7.723001 -11.1604 -8.070001 -8.345 -8.345 -10.5035 -8.8955 -6.431 -6.431 -6.709001 -8.0655 -9.788001 -11.3725 -10.733 -14.3674 -13.5799 -13.6413 -13.1273 -12.029 
-10.328 -11.3796 -9.790001 -9.799001 -8.9855 -10.253 -10.594 -13.9279 -13.7882 -9.2545 -11.313 -11.4274 -12.9454 -8.345 -10.757 -10.5035 -12.2182 -6.431 -9.927501 -8.0655 -10.749 -11.3725 -14.3735 -15.3014 -18.5373 -15.0104 -18.6241 -13.1273 
-3.54 -4.7005 -1.7565 -6.293 -3.5035 -4.435 -2.674 -3.319 0 -3.6885 0 -3.9675 0 -3.3435 0 -1.934 -5.002 -4.2085 -4.193 -4.64 -3.3715 -4.7005 
-6.4565 -4.764 -8.13 -9.164001 -8.7075 -8.096001 -6.905001 -3.319 -3.6885 -3.6885 -3.9675 -3.9675 -3.3435 -3.3435 -1.934 -6.6235 -9.489 -10.265 -9.998001 -8.627501 -6.274 
-6.5135 -11.8345 -9.834001 -14.6028 -12.6403 -12.6356 -6.905001 -6.283501 -3.6885 -6.431 -3.9675 -6.646501 -3.3435 -4.8115 -6.6235 -11.6993 -15.9023 -16.07 -14.2877 -11.6992 
-13.758 -13.5385 -15.4514 -18.5356 -17.1799 -12.6356 -10.6659 -6.283501 -6.431 -6.431 -6.646501 -6.646501 -4.8115 -10.564 -11.6993 -18.1126 -21.7073 -20.3597 -17.3594 
-15.462 -19.1559 -19.3842 -23.0752 -17.1799 -16.3965 -10.6659 -10.4765 -6.431 -9.7725 -6.646501 -8.184 -10.564 -15.6398 -18.1126 -23.9176 -25.997 -23.4314 
