-4.759 
n/a 
n/a 
n/a 
n/a 
-4.759 
n/a 
n/a 
n/a 
n/a 
-4.759 
n/a 
n/a 
n/a 
n/a 
-4.759 
n/a 
n/a 
n/a 
n/a 
-1.934 -1.4985 -3.158 -4.869 0 -3.6055 -3.468 -3.251 -2.985 -5.239 -1.756 -7.201 -2.985 -4.088 -2.3345 -1.4985 -3.6065 -4.2915 0 
-2.6125 -4.178 -7.542001 -4.869 -3.6055 -8.442 -6.3005 -5.601501 -8.7685 -6.4795 -8.529501 -10.1075 -6.527 -6.6315 -3.233 -4.8665 -6.0305 -4.2915 
-5.265 -8.176001 -7.542001 -9.208501 -8.442 -11.5407 -8.568001 -11.731 -9.818501 -14.1546 -11.7594 -13.6495 -8.5245 -7.659 -6.6715 -7.623001 -6.0305 
-8.780001 -8.176001 -12.1883 -14.0808 -11.5407 -13.8082 -15.0011 -12.781 -17.4936 -17.3845 -15.3014 -15.647 -9.106501 -11.3801 -9.678 -7.623001 
-8.780001 -13.2759 -17.0606 -17.1795 -13.8082 -20.2413 -16.0511 -20.4561 -20.7235 -20.9265 -17.2989 -16.229 -12.899 -14.3866 -9.678 
-3.6885 -3.402 -3.468 -3.8755 -3.325 -1.4985 -3.685 -1.7565 -4.869 -3.1715 -3.5185 -3.685 0 
-6.6625 -8.406 -7.451 -6.4125 -3.898 -4.771501 -4.5825 -6.750501 -8.505501 -7.426001 -8.3275 -3.685 
-10.2645 -12.6708 -9.690001 -6.8485 -5.978 -5.532001 -7.3135 -10.4765 -13.1604 -12.7698 -8.3275 
-14.6903 -14.9098 -9.961 -8.7255 -7.174 -8.866501 -11.6887 -15.1314 -18.5042 -12.7698 
-16.9293 -15.1808 -12.0714 -9.581 -10.019 -13.4299 -16.3436 -20.4752 -18.5042 
-3.9345 -6.1205 -3.1715 -3.685 -1.934 -4.869 0 -5.314 -3.468 -4.5485 0 
-12.372 -10.9315 -7.024 -5.3835 -6.114 -4.869 -5.314 -8.837501 -7.875 -4.5485 
-17.183 -14.784 -9.096001 -9.009501 -6.114 -10.451 -8.837501 -13.4933 -7.875 
-21.0355 -16.856 -12.7862 -9.009501 -12.1222 -13.9745 -13.4933 -13.4933 
-23.1075 -20.5462 -12.7862 -15.1159 -15.6457 -18.6303 -13.4933 
-1.934 -4.869 0 -3.468 -3.152 -4.7925 -3.325 -1.4985 -4.1175 -1.7565 -1.4985 -3.6885 -8.028501 -4.8435 0 -4.1 -2.7415 -4.349 
-6.114 -4.869 -3.468 -6.2205 -6.3265 -8.1805 -3.898 -4.6915 -4.7545 -2.4195 -4.962501 -12.9194 -13.2214 -4.8435 -4.1 -6.363 -5.786 
-6.114 -9.300001 -6.2205 -8.866501 -9.678501 -8.731501 -8.542 -4.851 -5.4205 -5.944 -14.9514 -18.1123 -13.2214 -10.382 -6.363 -8.756001 
-10.096 -12.4833 -8.866501 -12.1383 -10.283 -13.5531 -8.785501 -5.4755 -8.723001 -15.9141 -20.1443 -18.1123 -18.7599 -12.645 -8.756001 
-13.3969 -15.1293 -12.1383 -12.7428 -15.1046 -13.7966 -9.307 -8.769 -18.9595 -21.107 -20.1443 -23.6508 -21.0229 -15.038 
