-4.759 
n/a 
n/a 
n/a 
n/a 
-4.759 
n/a 
n/a 
n/a 
n/a 
-4.759 
n/a 
n/a 
n/a 
n/a 
-4.759 
n/a 
n/a 
n/a 
n/a 
-7.5605 -2.186 -1.4985 -3.535 -4.031 -2.0935 -2.3615 0 
-10.329 -3.339 -4.255 -5.8145 -4.8935 -3.854 -2.3615 
-11.482 -5.657 -5.876 -6.2975 -5.804 -3.854 
-13.8 -6.6805 -6.398 -7.047 -5.804 
-14.8235 -7.3735 -7.073 -7.047 
-3.1495 -4.2895 -1.7565 -1.4985 -3.6765 -2.8705 -8.445001 -3.098 0 
-5.9525 -6.057 -2.4195 -4.501 -7.204 -12.6713 -12.2748 -3.098 
-8.983001 -7.268001 -5.357 -8.773001 -17.2908 -16.5011 -12.2748 
-9.885501 -10.126 -9.413501 -18.921 -21.1206 -16.5011 
-12.8643 -14.3081 -19.6223 -22.7508 -21.1206 
-3.433 -1.7565 -8.445001 
-4.1845 -10.2485 
-13.5659 
n/a 
n/a 
-2.8705 -8.445001 -2.186 -4.031 -2.0935 -2.3615 
-12.6713 -11.3628 -6.427 -4.8935 -3.854 
-15.5891 -15.6038 -7.397501 -5.804 
-19.8301 -16.5743 -9.156501 
-20.8006 -18.3333 
