-4.759 
n/a 
n/a 
n/a 
n/a 
-4.759 
n/a 
n/a 
n/a 
n/a 
-4.759 
n/a 
n/a 
n/a 
n/a 
-4.759 
n/a 
n/a 
n/a 
n/a 
-3.091 -3.3195 -3.5285 -4.4665 -2.264 -4.447 
-5.8145 -6.598001 -8.280001 -6.019001 -7.889501 
-10.0745 -12.3875 -10.064 -12.5689 
-16.2312 -14.1715 -16.8447 
-18.0152 -20.9522 
-2.9805 -3.9535 -1.4985 -3.3195 -3.5285 -2.5045 -4.447 
-5.607 -5.435 -4.7185 -6.598001 -6.4775 -8.072001 
-6.8555 -8.6485 -9.632001 -10.585 -12.6944 
-9.980501 -13.6408 -13.7884 -16.8019 
-14.9728 -17.7972 -20.0053 
-1.934 -4.447 -3.3195 -3.188 -4.533 -2.186 -3.9535 
-5.642 -7.801 -6.187 -7.736001 -6.381 -5.962501 
-9.901001 -11.4511 -11.3878 -9.779501 -9.6745 
-13.5511 -16.6519 -13.4313 -13.3828 
-18.7519 -18.6954 -17.0346 
-2.9805 -4.4665 -3.091 -4.405 -3.912 -1.934 -4.447 
-6.2475 -6.983001 -6.387 -6.7935 -5.3175 -5.642 
-7.6635 -9.9755 -7.2665 -7.798501 -8.152 
-10.609 -10.58 -8.132501 -10.553 
-11.2135 -11.446 -10.7595 
