-4.759 
n/a 
n/a 
n/a 
n/a 
-4.759 
n/a 
n/a 
n/a 
n/a 
-4.759 
n/a 
n/a 
n/a 
n/a 
-4.759 
n/a 
n/a 
n/a 
n/a 
-2.4265 -2.186 -2.6165 -1.8085 -4.75 -2.3335 -8.392 -5.12 -3.1435 -8.961 -5.5995 
-3.292 -3.5105 -4.0345 -6.944 -6.7345 -11.9163 -14.043 -6.199501 -13.2993 -14.7749 
-4.443 -4.4335 -9.361501 -8.437 -16.7379 -17.5673 -15.1225 -17.8241 -19.1132 
-5.5165 -9.8715 -10.8813 -18.4878 -22.3889 -18.6468 -26.7471 -23.638 
-10.167 -11.5067 -20.9321 -24.1388 -23.4684 -30.2714 -32.561 
-3.1435 -2.6165 -4.6085 -2.3335 0 -9.8955 0 -2.186 -5.0375 -3.1435 -4.7795 -5.5995 0 
-5.3155 -6.864 -6.293 -2.3335 -9.8955 -9.8955 -2.186 -6.1785 -6.383501 -8.0515 -8.142 -5.5995 
-10.2286 -8.6955 -6.293 -13.4198 -9.8955 -12.4257 -6.1785 -6.757501 -9.995001 -9.376 -8.142 
-12.0601 -8.6955 -17.9417 -13.4198 -12.4257 -16.4182 -6.757501 -10.13 -10.09 -9.376 
-12.0601 -20.621 -17.9417 -15.95 -16.4182 -16.9972 -10.13 -10.21 -10.09 
-1.934 -8.392 -2.229 -4.7285 -3.7455 -2.4945 -2.6165 -4.6085 
-10.147 -11.08 -7.1385 -8.8055 -6.495501 -3.8065 -6.864 
-12.835 -15.9895 -10.76 -12.0069 -7.675 -8.056001 
-17.7445 -19.611 -15.8296 -13.1864 -12.4191 
-21.366 -24.6806 -17.0091 -17.9305 
-2.4265 -2.186 -2.6165 -1.8085 -4.75 -2.3335 -1.4985 -5.7475 -5.964 -5.12 -3.1435 -5.863 -4.5225 0 
-3.292 -3.5105 -4.0345 -6.944 -6.7345 -3.3515 -8.0515 -9.654 -11.7146 -6.199501 -7.255 -6.387001 -4.5225 
-4.443 -4.4335 -9.361501 -8.437 -7.9545 -10.0315 -12.1656 -15.6102 -12.7941 -7.682001 -7.533 -6.387001 
-5.5165 -9.8715 -10.8813 -10.367 -14.7779 -14.1456 -18.1218 -16.6897 -14.2766 -8.304001 -7.533 
-10.167 -11.5067 -12.8113 -17.1904 -18.892 -20.1018 -19.2013 -18.1722 -14.8986 -8.304001 
