-4.759 
n/a 
n/a 
n/a 
n/a 
-4.759 
n/a 
n/a 
n/a 
n/a 
-4.759 
n/a 
n/a 
n/a 
n/a 
-4.759 
n/a 
n/a 
n/a 
n/a 
-6.557 -4.7315 0 -7.951 -1.756 -4.167 
-10.335 -4.7315 -7.951 -9.2295 -5.8175 
-10.335 -10.0445 -9.2295 -13.3948 
-15.648 -10.708 -13.3948 
-16.3115 -14.8733 
-5.3885 -4.906 0 -6.557 -3.468 0 -10.5165 -2.229 0 -1.756 -4.167 
-11.2623 -4.906 -6.557 -9.984 -3.468 -10.5165 -12.7455 -2.229 -1.756 -5.8175 
-11.2623 -11.9128 -9.984 -9.984 -14.9657 -12.7455 -12.7455 -4.366 -5.8175 
-18.2691 -15.3398 -9.984 -21.5691 -17.1947 -12.7455 -14.8825 -9.1255 
-21.6961 -15.3398 -21.5691 -23.7981 -17.1947 -14.8825 -19.642 
-5.3885 -10.0905 -5.74 -4.7315 0 -12.16972 -1.756 -3.8195 0 
-16.8966 -11.1023 -9.459001 -4.7315 -12.16972 -13.92572 -5.915 -3.8195 
-17.4586 -14.8178 -9.459001 -17.97042 -13.92572 -18.08472 -5.915 
-21.1741 -14.8178 -22.78312 -19.72642 -18.08472 -18.08472 
-21.1741 -28.14272 -24.53912 -23.88542 -18.08472 
-5.3885 -4.906 0 -6.557 -10.261 0 -7.951 -1.756 -4.167 -1.756 -4.8405 
-11.2623 -4.906 -6.557 -17.5074 -10.261 -7.951 -9.2295 -5.8175 -5.3535 -5.853 
-11.2623 -11.9128 -17.5074 -17.5074 -18.2884 -9.2295 -13.3948 -7.276 -5.9405 
-18.2691 -22.8632 -17.5074 -25.5348 -19.5669 -13.3948 -14.8533 -8.436 
-29.2195 -22.8632 -25.5348 -26.8133 -23.7322 -14.8533 -16.0133 
