-4.759 
n/a 
n/a 
n/a 
n/a 
-4.759 
n/a 
n/a 
n/a 
n/a 
-4.759 
n/a 
n/a 
n/a 
n/a 
-4.759 
n/a 
n/a 
n/a 
n/a 
-1.934 -2.95 -1.7565 -1.4985 -3.193 -1.4985 -4.278 -2.8645 -4.367 -1.4985 -3.777 -1.934 -6.3385 -1.7695 -6.87 -3.4515 -1.934 -2.871 -4.226 0 
-4.784 -4.3785 -2.4195 -4.136 -4.9065 -6.1565 -6.751 -9.5605 -5.0395 -4.588 -4.5805 -7.7105 -6.537 -6.908501 -8.835501 -4.7655 -4.2805 -5.5645 -4.226 
-6.272 -5.0485 -4.451 -5.3865 -10.038 -8.6745 -14.2238 -10.487 -7.921 -6.421 -10.377 -8.795501 -9.634001 -10.542 -10.88 -7.239 -6.885 -5.5645 
-7.546 -6.5015 -5.628 -10.921 -12.6304 -16.1569 -15.1503 -13.3685 -10.467 -11.2525 -11.2745 -12.1245 -13.0345 -13.035 -14.1999 -9.364 -6.885 
-9.945001 -7.9395 -11.5247 -13.5134 -20.1128 -17.0834 -18.0318 -15.9145 -15.2985 -12.8425 -14.6377 -16.7717 -15.404 -15.8139 -16.3249 -9.364 
-4.4985 -3.893 -1.4985 -2.95 -1.7565 -1.4985 -3.193 0 -4.278 -4.6665 -6.3385 -1.7695 -6.87 -4.417 -3.64 -3.543 -3.6115 0 
-5.606 -4.573 -3.9285 -4.3785 -2.4195 -4.136 -3.193 -4.278 -9.214001 -9.465 -6.537 -6.908501 -10.05 -7.43 -6.384 -5.4165 -3.6115 
-5.874001 -7.42 -4.676 -5.0485 -4.451 -4.136 -8.263 -9.214001 -12.9098 -9.1055 -9.634001 -11.4675 -13.4604 -11.1464 -8.117001 -5.4165 
-8.003 -7.864 -5.224 -6.5015 -4.451 -8.9405 -13.4952 -12.9098 -14.6253 -12.611 -13.9031 -15.0175 -17.1768 -12.8794 -8.117001 
-8.231501 -8.6805 -7.555501 -6.5015 -8.9995 -14.3757 -17.191 -14.6253 -17.5531 -17.7424 -17.3865 -18.7339 -18.9098 -12.8794 
-4.278 -4.098 -6.3385 -1.7695 -6.87 -5.9265 -3.64 -1.934 -1.8085 -4.226 -3.9345 -1.7695 -1.4985 -2.95 -1.7565 -1.4985 -3.193 0 
-8.296501 -8.797501 -6.537 -6.908501 -11.944 -9.788501 -5.4425 -3.2685 -5.172 -8.132 -3.94 -2.7955 -3.9285 -4.3785 -2.4195 -4.136 -3.193 
-13.3359 -9.668 -9.634001 -13.7333 -16.1988 -12.0778 -6.7105 -6.308001 -8.7235 -8.137 -4.4455 -5.74 -4.676 -5.0485 -4.451 -4.136 
-14.8074 -12.9295 -16.1689 -17.7559 -18.4881 -13.3458 -9.486 -9.578501 -8.7275 -8.605 -7.1815 -6.342 -5.224 -6.5015 -4.451 
-17.6884 -20.2799 -20.1249 -20.0452 -19.7561 -16.1213 -12.9643 -9.580001 -9.206 -10.264 -7.6555 -6.898001 -7.555501 -6.5015 
-1.934 -2.871 -3.8315 -8.4445 -4.357 -11.314 -6.87 -3.402 -2.264 -1.4985 -3.193 -3.5215 
-4.2805 -7.4995 -13.3754 -13.1917 -14.688 -13.575 -9.139001 -3.793 -2.9195 -4.136 -7.224 
-9.357 -17.3482 -18.1226 -24.0995 -17.7401 -16.1048 -9.206 -4.34 -5.3425 -8.578001 
-19.3909 -22.0954 -29.0304 -26.5748 -21.6496 -16.1633 -9.746 -7.777 -10.194 
-24.1381 -33.0032 -31.5057 -30.4843 -21.7081 -16.7888 -13.6045 -13.1845 
