-4.759 
n/a 
n/a 
n/a 
n/a 
-4.759 
n/a 
n/a 
n/a 
n/a 
-4.759 
n/a 
n/a 
n/a 
n/a 
-4.759 
n/a 
n/a 
n/a 
n/a 
-2.9805 -4.543 -4.4995 -3.436 -2.9805 -4.331 -3.091 -4.6535 -4.1665 0 
-6.811 -5.693 -7.581 -5.235 -5.577001 -5.818501 -6.705501 -5.8465 -4.1665 
-8.3655 -8.2915 -9.572001 -7.396 -6.356501 -8.946 -7.16 -5.8465 
-10.5325 -10.4675 -11.747 -8.1045 -9.300501 -9.177 -7.16 
-13.0751 -12.6425 -12.4555 -10.194 -9.469501 -9.177 
-3.436 -3.9535 -3.091 -4.6535 -4.1665 0 -2.9805 -4.69 -4.4995 0 
-8.305 -6.091001 -6.705501 -5.8465 -4.1665 -2.9805 -6.204 -7.264 -4.4995 
-10.4425 -9.369 -7.16 -5.8465 -6.644 -6.204 -8.737 -7.264 
-13.7205 -9.694 -7.16 -7.8415 -10.1345 -8.737 -8.737 
-14.0455 -9.694 -8.6485 -11.4928 -12.6675 -8.737 
-2.9805 -4.69 -4.4995 0 -3.034 -2.9805 -5.9055 -4.219 -5.262 -2.0935 -7.213 -4.6605 -4.2245 -3.275 0 
-6.204 -7.264 -4.4995 -3.034 -4.4605 -6.869 -11.5967 -8.209001 -7.1055 -8.968 -12.3075 -7.6295 -6.1285 -3.275 
-8.737 -7.264 -7.374001 -4.4605 -8.7955 -12.819 -15.5867 -9.9405 -14.5464 -14.3189 -15.2765 -10.2939 -6.1285 
-8.737 -9.317 -8.466001 -8.7955 -14.8211 -16.809 -17.3182 -17.4332 -19.8973 -17.2879 -17.9409 -10.2939 
-10.634 -10.26 -13.1736 -14.8211 -18.8111 -18.5405 -24.8109 -22.7841 -22.8663 -19.9523 -17.9409 
-2.9805 -4.69 -4.4995 -3.436 -2.9805 -3.9535 -3.091 -5.2825 -2.0935 -3.757 -4.219 0 
-6.204 -7.264 -7.581 -5.235 -5.607 -6.091001 -9.0915 -7.278501 -5.439 -7.3525 -4.219 
-8.737 -9.164001 -9.572001 -7.2405 -6.646501 -12.9315 -11.4865 -11.1228 -9.061001 -7.3525 
-10.8134 -11.458 -10.611 -8.2425 -13.6632 -15.3265 -15.3308 -14.7448 -9.061001 
-13.1074 -12.497 -12.2512 -15.161 -16.0582 -19.1708 -18.9528 -14.7448 
