-4.759 
n/a 
n/a 
n/a 
n/a 
-4.759 
n/a 
n/a 
n/a 
n/a 
-4.759 
n/a 
n/a 
n/a 
n/a 
-4.759 
n/a 
n/a 
n/a 
n/a 
-4.6415 -3.3855 -2.186 -1.8085 -3.5645 -3.935 -3.718 
-7.5505 -4.4785 -3.164 -4.554 -5.7395 -8.2425 
-8.7465 -5.41 -5.368 -6.972 -9.852501 
-9.385 -8.337 -7.887 -10.189 
-12.4434 -10.078 -11.2856 
-4.6415 0 -6.931 -6.388 -9.457001 -7.9505 
-4.6415 -6.931 -9.057501 -10.4115 -10.6885 
-11.136 -9.057501 -10.718 -10.773 
-13.2625 -10.718 -11.0795 
-14.923 -11.0795 
-4.6415 0 -3.3855 -2.186 -2.664 -3.956 -3.718 
-4.6415 -3.3855 -4.4785 -3.8555 -7.885 -7.8795 
-7.5505 -4.4785 -6.153 -9.171 -12.3721 
-8.7465 -6.153 -12.2357 -14.2221 
-10.0475 -12.2357 -17.2868 
-11.5725 -6.388 -9.5965 
-13.2625 -9.759001 
-14.0355 
n/a 
n/a 
