-4.759 
n/a 
n/a 
n/a 
n/a 
-4.759 
n/a 
n/a 
n/a 
n/a 
-4.759 
n/a 
n/a 
n/a 
n/a 
-4.759 
n/a 
n/a 
n/a 
n/a 
-1.4985 -4.887 -1.7565 -1.4985 -9.228001 -4.6825 -3.9535 -1.7695 -5.3775 -2.264 -1.4985 -3.7825 -4.052 0 
-5.927 -6.133 -2.4195 -11.8203 -14.1083 -8.493501 -5.098001 -6.286 -6.2715 -2.9195 -4.8035 -6.899 -4.052 
-6.273 -6.5735 -12.9321 -16.7006 -17.9193 -9.012 -9.137 -6.784 -6.8165 -6.558001 -7.494 -6.899 
-6.7135 -17.6281 -17.8124 -20.5116 -18.4378 -13.3458 -9.766001 -7.3275 -9.8585 -9.519001 -7.494 
-17.8163 -22.5084 -21.6234 -21.0301 -22.7716 -13.9748 -10.2315 -10.5975 -12.8195 -9.519001 
-3.091 -4.846 -5.4355 -1.934 -2.5685 -3.7825 -4.052 0 
-8.088501 -10.674 -7.153 -4.244 -5.4565 -6.899 -4.052 
-14.3725 -12.3915 -9.473001 -6.522501 -7.961 -6.899 
-16.09 -14.7115 -11.9633 -8.117001 -7.961 
-18.41 -17.2018 -13.5578 -8.117001 
-7.4885 -3.59 -4.1355 -2.7415 -4.682 -1.934 -2.5685 -1.4985 -2.543 -4.6525 0 
-11.7057 -8.191 -7.192 -6.4965 -6.3435 -4.244 -3.7015 -5.1495 -7.16 -4.6525 
-16.3067 -11.5591 -10.3745 -7.435 -8.5065 -5.3815 -7.647 -8.3885 -7.16 
-19.6748 -14.7416 -11.313 -10.2585 -9.344001 -8.759501 -10.151 -8.3885 
-22.8573 -15.6801 -14.1365 -11.096 -13.2136 -11.4551 -10.151 
-3.7825 -3.64 -6.864 -3.59 -1.7695 -5.0005 -2.186 -4.1435 -3.6885 0 
-6.838 -11.4176 -9.337 -5.3875 -7.2925 -7.2005 -6.663 -5.8005 -3.6885 
-15.3112 -13.8906 -11.2001 -11.7455 -9.81 -11.9277 -8.474501 -5.8005 
-17.7842 -15.7537 -17.5581 -14.263 -14.5372 -13.7392 -8.474501 
-19.6473 -22.1117 -20.0756 -18.9902 -16.3487 -13.7392 
