-4.759 
n/a 
n/a 
n/a 
n/a 
-4.759 
n/a 
n/a 
n/a 
n/a 
-4.759 
n/a 
n/a 
n/a 
n/a 
-4.759 
n/a 
n/a 
n/a 
n/a 
-2.3615 -3.8275 -4.335 -4.4095 -1.756 -3.4905 -3.43 -3.6075 -3.8275 -4.335 -4.1675 -5.427 0 
-5.965 -7.645 -9.196 -5.2955 -5.576 -7.5585 -7.753 -7.81 -7.645 -8.2485 -8.568501 -5.427 
-10.181 -12.8356 -10.042 -7.725 -9.0205 -12.4819 -12.1753 -12.0543 -11.8881 -12.8259 -8.568501 
-15.3716 -13.6816 -12.4715 -10.7175 -14.2287 -16.9042 -16.4196 -16.2974 -16.4655 -12.8259 
-16.2176 -16.1111 -15.464 -15.9257 -18.651 -21.1485 -20.6627 -20.8748 -16.4655 
-1.4985 -4.4605 -2.4945 -3.383 -4.2785 -4.0745 -3.321 -3.0835 -2.871 0 
-6.107 -6.583 -4.732 -9.028501 -8.4945 -7.591001 -6.9195 -5.3085 -2.871 
-7.501 -8.771001 -10.9783 -13.3265 -12.6384 -12.0155 -8.981501 -5.3085 
-9.5895 -15.1423 -15.2763 -17.4704 -17.0629 -14.0775 -8.981501 
-16.0392 -19.4403 -19.4202 -21.8949 -19.1249 -14.0775 
-4.194 -1.7565 -4.4095 -1.7565 -1.4985 -4.335 -5.8485 -1.4985 -2.8965 -4.4605 
-5.1445 -5.856501 -5.1885 -2.4195 -5.249001 -11.1527 -6.3635 -3.928 -6.835 
-10.322 -7.453001 -5.639 -6.041501 -12.6391 -11.6677 -9.0955 -7.761001 
-11.9185 -8.137501 -9.2005 -13.5946 -13.1541 -14.3997 -13.0695 
-12.603 -11.9022 -17.0252 -14.1096 -15.8861 -18.3737 
-2.3615 -3.8275 -4.335 -4.486 0 -3.519 -2.4945 -4.246 -4.131 -3.1575 -3.436 -4.4605 0 
-5.965 -7.645 -9.5745 -4.486 -3.519 -6.478 -5.529 -5.5185 -8.687 -5.8395 -8.6125 -4.4605 
-10.181 -13.2141 -9.5745 -7.772 -6.478 -9.370501 -6.9865 -9.554501 -11.5728 -11.3192 -8.6125 
-15.7501 -13.2141 -12.9543 -11.5428 -9.370501 -10.96 -11.4107 -12.5637 -17.0525 -11.3192 
-15.7501 -16.5939 -16.7251 -14.4353 -10.96 -15.3842 -14.4199 -18.0434 -17.0525 
