-4.759 
n/a 
n/a 
n/a 
n/a 
-4.759 
n/a 
n/a 
n/a 
n/a 
-4.759 
n/a 
n/a 
n/a 
n/a 
-4.759 
n/a 
n/a 
n/a 
n/a 
-3.691 -2.8645 -1.8085 -3.3235 -4.7195 -3.36 0 
-6.076 -3.9785 -4.9145 -7.6365 -8.6995 -3.36 
-7.211 -6.6085 -8.4285 -11.6739 -8.6995 
-9.2565 -10.7495 -12.6705 -11.6739 
-13.9307 -14.9915 -12.6705 
-3.691 -2.8645 -4.09 -3.6215 -1.7565 -3.36 
-6.076 -5.262 -8.8825 -3.936 -5.318501 
-8.1035 -10.2985 -9.361 -7.3125 
-13.2972 -10.9828 -12.7861 
-13.9815 -14.4079 
-3.691 -2.8645 -1.8085 -3.3235 -4.7195 -3.36 -3.6215 0 
-6.076 -3.9785 -4.9145 -7.6365 -8.6995 -7.037001 -3.6215 
-7.211 -6.6085 -8.4285 -11.6739 -13.0253 -7.037001 
-9.2565 -10.7495 -12.6705 -15.9997 -13.0253 
-13.9307 -14.9915 -16.9963 -15.9997 
-3.691 -2.8645 -4.09 -3.36 
-6.076 -5.262 -8.222 
-8.1035 -9.631001 
-12.6297 
n/a 
