-4.759 
n/a 
n/a 
n/a 
n/a 
-4.759 
n/a 
n/a 
n/a 
n/a 
-4.759 
n/a 
n/a 
n/a 
n/a 
-4.759 
n/a 
n/a 
n/a 
n/a 
-2.3615 -2.95 -3.59 -5.4075 -3.9875 -1.7565 -3.729 -1.7695 -4.052 0 
-4.4645 -6.485 -9.6975 -9.8365 -5.377501 -5.323 -5.852 -4.393 -4.052 
-9.3605 -13.7555 -14.1029 -11.4113 -8.762001 -7.851 -8.1555 -4.393 
-16.726 -18.1609 -15.6777 -14.7958 -9.822001 -10.3113 -8.1555 
-21.1314 -19.7357 -19.0622 -15.8558 -12.4935 -10.3113 
-4.348 -4.356 -4.105 -3.6055 -9.640501 -4.1455 -4.348 -4.64 -1.756 -4.3705 -4.58 -1.7695 -5.185 -3.4075 -4.0415 -3.1335 0 
-9.078501 -7.040501 -7.1685 -10.5705 -9.0075 -8.7005 -8.0075 -6.1595 -5.9125 -6.1865 -6.7545 -5.512 -8.417001 -6.677001 -5.747 -3.1335 
-10.554 -9.490001 -10.2635 -9.769501 -10.6445 -10.1115 -9.2845 -8.748 -8.0635 -8.4265 -9.9505 -8.655001 -12.0515 -8.552501 -5.747 
-10.582 -10.6395 -11.1815 -11.098 -10.6645 -10.593 -10.0935 -8.804501 -10.3745 -10.513 -10.579 -12.3737 -13.927 -8.552501 
-10.618 -10.8075 -12.192 -10.7475 -10.6865 -10.7285 -10.1665 -10.674 -10.729 -10.591 -15.6509 -14.2492 -13.927 
-1.934 -1.4985 -3.486 -2.95 -3.4075 -5.4075 -4.0395 -2.186 -4.09 -2.0935 -3.6385 -4.0745 -3.9665 -3.402 -2.3345 -2.871 -4.015 -3.7075 -2.186 -3.8755 
-2.6125 -3.5655 -4.563 -6.7905 -8.9315 -8.6005 -5.584001 -5.6995 -5.4175 -6.037001 -8.519001 -8.554501 -7.422501 -7.214001 -4.9425 -7.021 -7.722501 -5.196 -5.2415 
-4.5805 -4.577 -8.441 -12.8145 -12.5069 -10.164 -8.5235 -6.969501 -10.172 -11.5855 -13.3714 -12.2781 -11.8469 -10.181 -9.0725 -10.304 -9.453001 -8.5835 
-6.56 -8.446 -14.6146 -16.3899 -14.0704 -13.1035 -9.7395 -11.9334 -15.7205 -16.4379 -17.095 -16.7025 -14.8139 -14.3426 -12.3943 -12.0345 -12.9995 
-10.8794 -14.6216 -18.19 -17.9534 -17.0099 -14.3195 -14.828 -17.4819 -20.5729 -20.1615 -21.5194 -19.6695 -18.9755 -17.6644 -14.1248 -15.581 
-3.5455 -2.3615 -3.8405 0 -1.4985 -3.59 -2.229 -3.8565 -4.2605 -4.38 -4.528 -2.4265 -3.074 -4.5485 -1.8085 -8.04 -4.828 -3.9665 -2.356 -3.864 -4.401 -2.5195 -3.711 
-5.013 -5.371 -3.8405 -1.4985 -4.268 -4.966 -5.473001 -6.1075 -7.696501 -6.804501 -7.1645 -4.605 -6.911 -5.7685 -8.9665 -13.2346 -6.4185 -6.313001 -5.921 -6.1 -6.407 -6.5175 
-5.726 -5.371 -5.224 -4.268 -5.127 -6.772 -7 -9.012501 -9.368001 -9.118501 -8.583501 -8.646001 -7.585 -13.6893 -14.2707 -14.8251 -8.772 -10.013 -7.778501 -7.7525 -9.9305 
-5.726 -6.3585 -8.305 -5.127 -6.9195 -7.967 -9.854501 -10.758 -11.7936 -10.6935 -12.6649 -9.179001 -15.6778 -18.9935 -15.8612 -17.1786 -12.646 -10.723 -8.4715 -11.5772 
-6.592 -9.034 -9.0425 -6.9195 -8.460501 -10.5325 -11.6484 -13.1836 -13.3686 -14.7749 -13.1979 -17.2904 -20.982 -20.584 -18.2147 -21.0526 -13.356 -11.416 -12.4404 
