-4.759 
n/a 
n/a 
n/a 
n/a 
-4.759 
n/a 
n/a 
n/a 
n/a 
-4.759 
n/a 
n/a 
n/a 
n/a 
-4.759 
n/a 
n/a 
n/a 
n/a 
-1.934 -3.16 -4.569 -3.2955 -1.4985 -4.7145 -2.7295 -2.7765 -3.935 -3.135 -2.9325 -3.974 -1.934 -4.9135 
-5.4145 -6.213 -8.384501 -4.8715 -6.3575 -8.148001 -4.065 -5.818501 -7.193501 -6.7005 -6.3545 -5.537 -7.3965 
-6.9205 -9.530001 -9.8485 -9.4475 -9.8715 -9.186001 -6.845 -8.641001 -11.0754 -10.0621 -9.1505 -11.5149 
-11.394 -10.907 -14.7365 -13.1217 -11.1477 -12.1416 -9.366 -12.7103 -14.437 -12.8581 -15.2512 
-13.8371 -16.7258 -18.7185 -14.3979 -14.1033 -14.6626 -13.7303 -16.0719 -17.233 -18.9588 

n/a 
n/a 
n/a 
n/a 
-3.3425 -3.16 -4.569 -1.756 -4.1785 -2.9645 -4.0935 -4.7145 -3.432 -2.742 -3.4985 -3.135 -4.9135 -4.299 0 
-6.2035 -6.213 -6.2935 -6.463 -7.316 -7.789001 -9.1565 -7.840001 -6.6755 -6.5085 -6.916 -7.738 -7.8435 -4.299 
-7.1405 -7.0235 -9.805 -9.989 -12.5893 -13.037 -12.659 -10.6875 -10.749 -9.278501 -11.835 -11.2764 -7.8435 
-8.5505 -11.293 -15.2045 -15.3195 -17.8373 -16.5395 -15.5065 -14.761 -13.519 -14.2577 -15.3734 -11.2764 
-14.341 -16.783 -20.535 -20.5675 -21.3398 -19.387 -19.58 -17.531 -18.4982 -17.7961 -15.3734 
-3.16 -4.569 -1.756 -4.1785 -4.078 -4.7145 -1.7695 -6.762 -1.4985 -4.4785 0 
-6.213 -6.2935 -6.463 -6.9975 -7.58 -7.0305 -9.569 -7.1465 -5.232 -4.4785 
-7.0235 -9.805 -9.822201 -9.745501 -7.9275 -15.675 -9.8585 -8.9215 -5.232 
-11.293 -15.0377 -12.5702 -9.888 -17.2976 -15.9645 -12.0277 -8.9215 
-16.6162 -17.7857 -12.7127 -19.5849 -17.5871 -18.1337 -12.0277 
