-4.759 
n/a 
n/a 
n/a 
n/a 
-4.759 
n/a 
n/a 
n/a 
n/a 
-4.759 
n/a 
n/a 
n/a 
n/a 
-4.759 
n/a 
n/a 
n/a 
n/a 
-10.1965 -6.388 -8.657001 
-10.4115 -10.0645 
-10.4985 
n/a 
n/a 
-4.789 -2.4945 -4.37 -3.3195 0 
-6.445 -6.8215 -6.9785 -3.3195 
-9.489 -9.633 -6.9785 
-12.3229 -9.633 
-12.3229 
-3.3195 -2.186 -1.8085 -4.722 -1.7565 -3.941 
-5.3525 -3.164 -6.452001 -6.0875 -5.331 
-6.4315 -8.224001 -7.2035 -9.0565 
-12.0949 -9.227501 -10.7117 
-13.0984 -12.9007 
-5.3535 -2.186 -3.3195 
-7.8395 -6.279 
-12.2665 
n/a 
n/a 
