-4.759 
n/a 
n/a 
n/a 
n/a 
-4.759 
n/a 
n/a 
n/a 
n/a 
-4.759 
n/a 
n/a 
n/a 
n/a 
-4.759 
n/a 
n/a 
n/a 
n/a 
-5.1845 -2.186 -6.2985 0 -5.0205 -5.1845 
-7.895 -8.836 -6.2985 -5.0205 -10.504 
-14.9978 -8.836 -12.0872 -10.504 
-14.9978 -14.8865 -17.5707 
-21.0483 -20.37 
-12.16972 -12.16972 -3.543 0 -10.136 -5.1845 
-24.33944 -15.71272 -3.543 -10.136 -15.3205 
-27.88244 -15.71272 -14.9648 -15.3205 
-27.88244 -27.13452 -20.1493 
-39.30424 -32.31902 
-12.16972 -10.5895 -3.543 -7.682 -5.1845 
-22.75922 -15.0381 -12.5108 -10.674 
-27.20782 -24.0059 -15.5028 
-36.17562 -26.9979 
-39.16762 
-5.1845 -2.186 -3.115 -4.8895 
-7.895 -4.989 -7.1555 
-11.1508 -8.864 
-15.0258 
n/a 
