-4.759 
n/a 
n/a 
n/a 
n/a 
-4.759 
n/a 
n/a 
n/a 
n/a 
-4.759 
n/a 
n/a 
n/a 
n/a 
-4.759 
n/a 
n/a 
n/a 
n/a 
-3.488 -7.6815 -2.229 -4.6825 -4.518 -3.9615 -5.26 
-10.5375 -9.084001 -6.8105 -9.094501 -7.9645 -8.4145 
-10.009 -11.584 -10.4345 -12.8734 -12.8505 
-10.391 -14.4553 -14.2134 -17.7594 
-15.6345 -19.3874 -19.0994 
-4.624 -4.6825 -4.3645 -3.717 -1.4985 -5.26 -4.3305 
-8.8915 -9.711 -9.293 -4.4985 -6.620501 -8.167 
-14.487 -14.6909 -10.152 -10.0815 -9.651001 
-19.4669 -15.5499 -15.735 -13.4756 
-20.3259 -21.1329 -19.1291 
-1.934 -3.609 -3.0575 -2.5045 -4.624 -4.6825 -4.3645 -2.7415 -4.024 -1.7695 -4.8 0 
-6.1475 -5.4595 -5.728 -6.18 -8.8915 -9.711 -7.1515 -5.275001 -4.5525 -5.936 -4.8 
-8.225 -7.7825 -10.443 -10.3605 -14.487 -12.5494 -9.441 -5.7245 -8.208 -5.936 
-11.3596 -12.4661 -14.7467 -16.2276 -17.3254 -14.8389 -10.7195 -9.521001 -8.208 
-16.0432 -16.7698 -20.6138 -19.066 -19.6149 -16.1174 -14.516 -9.521001 
-3.488 -3.0575 0 -4.624 -2.229 -4.6825 -4.3645 -2.7415 -4.024 -1.7695 -5.26 0 
-5.431 -3.0575 -4.624 -5.544 -6.8105 -9.711 -7.1515 -5.275001 -4.5525 -7.008 -5.26 
-5.431 -8.164001 -5.544 -8.3455 -12.4806 -12.5494 -9.441 -5.7245 -9.2485 -7.008 
-9.3905 -8.7825 -8.3455 -15.0864 -15.319 -14.8389 -10.7195 -10.3345 -9.2485 
-9.413 -9.7605 -15.0864 -17.9248 -17.6085 -16.1174 -15.3295 -10.3345 
