-4.759 
n/a 
n/a 
n/a 
n/a 
-4.759 
n/a 
n/a 
n/a 
n/a 
-4.759 
n/a 
n/a 
n/a 
n/a 
-4.759 
n/a 
n/a 
n/a 
n/a 
-2.9805 -3.9535 -6.144 -4.8015 -1.934 -2.688 -3.586 -1.756 -3.85 0 
-5.607 -11.0805 -11.0145 -6.049 -4.282 -3.615 -5.369 -5.8365 -3.85 
-13.427 -15.951 -12.262 -8.286501 -4.681 -5.400001 -6.798 -5.8365 
-18.2975 -17.1985 -14.4995 -9.205501 -5.9265 -6.8025 -6.798 
-19.545 -19.436 -15.4185 -9.685 -7.5065 -6.8025 
-2.9805 -6.0635 -1.4985 -4.0715 -1.7565 -6.5825 -4.285 -1.934 -2.688 -3.586 -1.756 -3.85 0 
-7.985001 -6.887001 -4.9845 -4.902 -7.693 -8.896001 -5.691 -4.282 -3.615 -5.369 -5.8365 -3.85 
-8.372001 -10.218 -5.283 -11.6645 -10.2853 -10.082 -7.5295 -4.681 -5.400001 -6.798 -5.8365 
-11.8372 -10.4265 -12.2983 -14.2568 -11.4713 -11.9991 -7.787001 -5.9265 -6.8025 -6.798 
-12.0457 -17.4418 -14.8906 -15.4428 -13.3884 -12.2566 -8.811001 -7.5065 -6.8025 
-2.9805 -4.196 -4.903 -4.285 -1.934 -2.688 -3.586 -1.756 -3.85 
-6.486501 -10.361 -9.032501 -5.691 -4.282 -3.615 -5.369 -5.8365 
-13.0963 -14.4905 -10.486 -7.5295 -4.681 -5.400001 -6.798 
-17.2258 -15.944 -12.7025 -7.787001 -5.9265 -6.8025 
-18.6793 -18.1605 -12.96 -8.811001 -7.5065 
-2.9805 -4.196 -4.4975 -4.285 -1.934 -6.0845 0 -5.956 0 
-6.486501 -8.8195 -8.5485 -5.691 -7.621 -6.0845 -5.956 -5.956 
-11.5548 -13.3519 -11.2709 -12.0406 -7.621 -12.7513 -5.956 
-16.0872 -16.0743 -17.6205 -12.0406 -14.666 -12.7513 
-18.8096 -22.4239 -17.6205 -19.0856 -14.666 
