-4.759 
n/a 
n/a 
n/a 
n/a 
-4.759 
n/a 
n/a 
n/a 
n/a 
-4.759 
n/a 
n/a 
n/a 
n/a 
-4.759 
n/a 
n/a 
n/a 
n/a 
-1.934 -3.228 -2.9965 -3.277 0 -3.849 -3.8725 -1.7565 -5.145 -1.756 -5.92 -5.829 -2.4945 -4.296 -5.127 -1.756 -4.157 -2.3345 -3.1495 -3.681 -4.347 -3.7925 -4.4345 -4.296 0 
-5.4695 -5.857 -4.8715 -3.277 -3.849 -8.137501 -5.1155 -7.248001 -6.743501 -7.318501 -12.6854 -7.413501 -5.67 -8.6465 -6.5575 -5.4425 -5.35 -5.217 -5.1675 -9.120001 -6.5695 -7.793501 -9.388 -4.296 
-8.248 -6.206501 -4.8715 -6.854 -8.137501 -10.5325 -11.9156 -8.648001 -12.8642 -14.2537 -14.2699 -11.0866 -10.6997 -9.9925 -9.552501 -7.4405 -8.85 -7.771 -10.7025 -11.4979 -11.2573 -13.2806 -9.388 
-8.4915 -6.206501 -8.559501 -11.3599 -10.5325 -17.3326 -13.3156 -15.0105 -19.7994 -15.8382 -17.943 -16.1163 -12.0457 -13.0607 -11.8375 -10.7595 -11.5364 -13.6268 -13.0804 -16.1857 -16.7444 -13.2806 
-8.4915 -9.2025 -13.14 -13.7549 -17.3326 -18.7326 -19.6781 -21.9457 -21.3839 -19.5113 -22.9727 -17.4623 -15.1139 -15.3457 -15.1565 -13.4459 -17.3922 -16.0047 -17.7682 -21.6728 -16.7444 
-2.9965 -3.277 -3.436 -1.934 -1.4985 -5.127 
-4.8715 -5.4395 -5.8855 -2.6125 -6.5045 
-7.134501 -7.514 -6.5755 -8.082001 
-9.3395 -8.184501 -12.3208 
-10.0325 -14.069 
-3.228 -2.9965 -3.277 -4.0725 -3.7575 -9.587501 -1.7695 -6.306 0 
-5.857 -4.8715 -8.063001 -8.67 -14.3874 -11.6076 -8.636001 -6.306 
-6.206501 -9.566501 -12.9283 -19.5923 -16.4075 -18.4741 -8.636001 
-10.9919 -14.5666 -23.8506 -21.6124 -23.274 -18.4741 
-15.992 -25.4889 -25.8707 -28.4789 -23.274 
-1.934 -1.4985 -3.228 -2.9965 -3.277 -3.433 -1.7565 -1.4985 -3.948 -3.6835 -5.2835 -2.645 -5.127 -2.186 -5.6595 -3.433 -1.7565 -1.4985 -2.9645 -1.7565 -4.8945 -3.3035 -1.756 -2.4265 -2.186 -4.3435 -2.461 -2.3345 -4.4485 -1.7565 -1.4985 -3.5085 -3.893 
-2.6125 -3.9575 -5.857 -4.8715 -6.2225 -4.1845 -2.4195 -4.7695 -7.176001 -8.7075 -8.446501 -7.2255 -6.702001 -6.5965 -8.899 -4.1845 -2.4195 -4.1725 -3.7825 -5.989501 -6.0435 -4.3935 -3.949 -3.292 -5.791 -6.2905 -5.479 -7.535501 -5.7915 -2.4195 -4.4755 -5.4435 
-4.7305 -6.104 -6.206501 -7.837501 -6.678 -4.6515 -5.519001 -8.028 -12.732 -12.0923 -13.3198 -8.5775 -8.591001 -9.591001 -9.398 -4.6515 -5.492001 -4.2115 -7.777 -6.903501 -7.088 -7.2685 -4.7355 -6.703001 -7.953001 -9.677501 -10.9668 -8.8675 -7.75 -5.126 -5.6365 
-6.7155 -6.227 -8.842001 -8.306001 -7.119 -7.0335 -8.7355 -13.7592 -16.1168 -16.9656 -14.6718 -9.894501 -11.9437 -10.1165 -9.7735 -7.1955 -5.5975 -8.101 -8.540501 -7.864 -9.83 -7.998001 -8.0565 -9.283501 -11.4404 -15.3323 -12.2988 -11.0304 -9.428 -6.5595 
-6.807 -8.853001 -9.212001 -8.851501 -10.1715 -11.1172 -14.4705 -17.144 -20.9901 -18.3176 -15.9888 -13.3496 -12.4692 -10.4265 -12.3175 -7.2345 -9.803 -8.9005 -9.5565 -10.485 -10.5675 -11.499 -10.7644 -12.7425 -17.0952 -16.6643 -14.4617 -12.7084 -10.9773 
