-4.759 
n/a 
n/a 
n/a 
n/a 
-4.759 
n/a 
n/a 
n/a 
n/a 
-4.759 
n/a 
n/a 
n/a 
n/a 
-4.759 
n/a 
n/a 
n/a 
n/a 
-12.16972 -5.1845 -3.5025 -1.7565 -3.8735 -3.5435 0 
-17.35422 -8.614 -6.4225 -5.112 -7.528 -3.5435 
-20.78372 -12.3138 -10.6686 -8.066501 -7.528 
-24.48352 -16.5599 -13.6231 -8.066501 
-28.72962 -19.5144 -13.6231 
-5.1845 -12.16972 -3.4605 -1.7565 -3.8735 -3.5435 
-18.64862 -15.63022 -5.245501 -5.112 -7.528 
-22.10912 -17.41522 -8.967001 -8.066501 
-23.89412 -21.13672 -12.4755 
-27.61562 -24.64522 
-4.5475 -3.6885 -5.1845 -3.4605 -2.5195 -4.1865 -3.5435 
-7.6115 -7.816501 -9.135 -6.1165 -6.6505 -6.517 
-10.115 -12.1196 -11.9924 -10.757 -8.906 
-14.6939 -14.977 -16.6329 -13.0125 
-17.5513 -19.6175 -18.8884 
-4.1865 -3.5435 -2.229 -5.1845 -3.6885 -3.4605 
-6.517 -4.973001 -7.7055 -7.323501 -7.118 
-7.6965 -10.66 -9.9355 -10.3545 
-13.6351 -12.89 -12.9665 
-15.8651 -15.921 
