-4.759 
n/a 
n/a 
n/a 
n/a 
-4.759 
n/a 
n/a 
n/a 
n/a 
-4.759 
n/a 
n/a 
n/a 
n/a 
-4.759 
n/a 
n/a 
n/a 
n/a 
-3.74 0 -4.156 -5.0075 -1.7565 -6.557 
-3.74 -4.156 -7.372 -5.9815 -7.653501 
-8.484001 -7.372 -7.9865 -13.1781 
-12.0812 -7.9865 -15.8737 
-12.6957 -15.8737 
-3.999 0 -6.557 -7.8955 -4.328 
-3.999 -6.557 -15.1419 -10.3225 
-10.647 -15.1419 -17.5689 
-19.2319 -17.5689 
-21.6589 
-9.0885 0 -4.156 -5.0075 -1.7565 -5.1845 -5.74 
-9.0885 -4.156 -7.372 -5.9815 -6.580501 -5.7465 
-13.6125 -7.372 -7.9865 -9.398001 -6.961501 
-16.8285 -7.9865 -9.476 -9.4025 
-17.443 -9.476 -9.478001 
-3.717 0 -6.557 -4.156 -5.0075 
-3.717 -6.557 -9.4685 -7.372 
-10.598 -9.4685 -13.9247 
-13.5095 -13.9247 
-17.9657 
