-4.759 
n/a 
n/a 
n/a 
n/a 
-4.759 
n/a 
n/a 
n/a 
n/a 
-4.759 
n/a 
n/a 
n/a 
n/a 
-4.759 
n/a 
n/a 
n/a 
n/a 
-1.4985 -3.1715 -3.5435 -4.849 -1.4985 -4.101 -4.6555 -3.2895 -1.756 -4.6865 0 
-3.994 -5.3835 -7.9825 -5.3535 -4.997 -9.7215 -8.832001 -4.799 -5.842 -4.6865 
-6.105 -10.3885 -8.788501 -8.566501 -10.396 -13.96 -9.567 -6.565001 -5.842 
-10.7495 -11.1945 -12.1715 -14.2913 -14.6345 -14.695 -11.8794 -6.565001 
-11.5555 -14.5775 -17.8963 -18.5298 -15.3695 -17.0074 -11.8794 
-5.292 -3.468 -3.3875 -4.5445 -1.4985 -3.352 -4.6555 -3.2895 -1.756 -4.6865 0 
-6.8325 -6.320001 -6.281 -5.9355 -4.43 -5.415501 -8.832001 -4.799 -5.842 -4.6865 
-9.642501 -8.873001 -7.7295 -9.538501 -6.9495 -9.7305 -9.567 -6.565001 -5.842 
-12.3261 -10.382 -11.6277 -12.0854 -11.5427 -10.6115 -11.8794 -6.565001 
-13.8351 -14.2802 -14.1746 -16.6786 -12.4237 -12.9239 -11.8794 
-7.2955 -3.5435 -3.352 -3.5435 -2.4945 -4.0035 -3.4985 
-11.5042 -6.43 -4.910501 -6.172501 -5.3525 -6.354 
-14.3907 -6.89 -7.662001 -8.219001 -7.919001 
-14.8507 -10.19 -10.3215 -11.0733 
-18.1507 -13.3635 -13.1758 
-5.0075 -4.6555 -4.849 -1.4985 -4.6195 -1.756 -4.6615 -1.7565 -1.4985 -4.622 -4.6555 0 
-6.6225 -10.051 -5.3535 -5.557 -5.6905 -5.3455 -5.548 -2.4195 -5.221 -10.958 -4.6555 
-12.2948 -10.615 -8.595 -6.567501 -6.9805 -6.0035 -5.984001 -6.090001 -11.9698 -10.958 
-12.8588 -13.8565 -9.0825 -7.8865 -7.8025 -6.462 -10.4121 -13.0304 -11.9698 
-16.1003 -14.344 -9.899001 -8.069501 -8.0235 -11.0421 -17.3525 -13.0304 
