-4.759 
n/a 
n/a 
n/a 
n/a 
-4.759 
n/a 
n/a 
n/a 
n/a 
-4.759 
n/a 
n/a 
n/a 
n/a 
-4.759 
n/a 
n/a 
n/a 
n/a 
-3.3715 -3.762 -2.0935 -3.0435 -1.756 -9.71 -2.4945 -3.43 -1.7695 -1.4985 -3.1385 
-7.332001 -5.8105 -4.811 -4.5065 -10.304 -12.4823 -4.758 -4.647 -2.7955 -4.2575 
-8.5775 -8.484 -5.946001 -14.4219 -13.3227 -14.7458 -5.797501 -5.3235 -5.4345 
-11.4308 -9.3685 -16.395 -17.4406 -15.5862 -15.7853 -6.583 -8.239 
-12.3153 -20.4117 -19.4137 -19.7041 -16.6257 -16.5708 -10.0215 
-3.6065 -4.995 -1.756 -3.8435 -3.58 -3.4005 -3.4625 -3.7855 
-7.748 -6.1855 -4.963 -6.0125 -5.892 -7.35 -5.931 
-8.410501 -8.434 -7.032001 -8.856001 -10.459 -9.3615 
-10.9964 -9.3835 -9.995001 -13.8252 -12.4705 
-11.9459 -12.5657 -15.0546 -15.8367 
-4.0725 -3.6215 0 -1.756 -3.6845 -3.301 -4.0045 -6.552001 0 
-7.799001 -3.6215 -1.756 -5.0105 -6.606501 -6.268001 -10.688 -6.552001 
-7.799001 -5.3685 -5.0105 -7.832 -10.2041 -13.8553 -10.688 
-9.6785 -8.699 -7.832 -11.7068 -17.7914 -13.8553 
-13.3728 -11.6185 -11.7068 -19.2941 -17.7914 
-3.147 -3.6065 -3.6175 -4.619 -4.065 -1.756 -3.6175 -3.58 -3.645 -2.4945 -3.333 
-7.8485 -6.836 -7.7415 -7.732501 -5.2935 -5.5265 -5.7355 -5.4545 -5.2295 -4.3655 
-10.6875 -11.6274 -8.726 -8.859 -8.756001 -6.9455 -6.993 -7.069 -6.546 
-16.2195 -12.6119 -10.1505 -12.4137 -9.649 -7.6585 -8.7985 -8.181001 
-17.204 -14.0364 -13.7052 -13.3067 -10.445 -9.6175 -10.041 
