-4.759 
n/a 
n/a 
n/a 
n/a 
-4.759 
n/a 
n/a 
n/a 
n/a 
-4.759 
n/a 
n/a 
n/a 
n/a 
-4.759 
n/a 
n/a 
n/a 
n/a 
-1.4985 -6.726501 -4.2915 -2.4945 -3.44 -1.756 -4.836 -2.0935 -5.1465 0 
-7.7585 -10.641 -6.186 -7.1815 -5.5375 -6.427 -7.679001 -7.3065 -5.1465 
-9.001 -9.995 -9.7725 -8.354501 -6.7535 -8.728001 -13.5162 -7.3065 
-11.7505 -13.3885 -10.6005 -9.828001 -8.9335 -14.9938 -13.5162 
-15.419 -14.2165 -12.074 -12.4898 -15.7607 -14.9938 
-1.934 -5.1465 0 -5.1085 -4.2915 -3.115 -3.44 0 -4.836 
-7.384501 -5.1465 -5.1085 -6.771 -6.6435 -7.0255 -3.44 -4.836 
-7.384501 -7.499001 -6.771 -8.301001 -8.2685 -7.0255 -6.403 
-9.721001 -9.793501 -8.301001 -8.435 -8.2685 -9.349501 
-12.2837 -11.6773 -8.435 -8.435 -9.998 
-5.1465 -1.934 -5.1085 -3.6885 -2.186 -3.44 -1.756 -4.836 
-7.764 -7.5585 -5.832001 -5.4995 -6.652 -5.5375 -6.427 
-14.1231 -8.719001 -7.2995 -8.8255 -8.257 -6.7535 
-15.2836 -10.8439 -9.229501 -9.8695 -10.259 
-17.4085 -12.7739 -9.913501 -12.9101 
-3.8015 -2.925 -3.6885 -2.0935 -4.3235 -3.44 -1.756 -3.0755 -3.44 -6.465 -8.695001 -1.934 -5.1465 0 
-6.1155 -6.9525 -5.5805 -7.237 -9.526501 -5.5375 -5.588 -6.414001 -10.4035 -16.2364 -10.66 -7.384501 -5.1465 
-7.113 -8.48 -11.4944 -12.7514 -10.1565 -9.442 -8.251 -14.0253 -20.1749 -18.2014 -16.1105 -7.384501 
-8.550501 -14.7517 -17.0088 -13.3814 -14.2974 -9.96 -16.4043 -23.7967 -22.1399 -23.6519 -16.1105 
-14.9056 -20.2661 -17.6388 -17.5223 -14.8154 -18.3787 -26.1757 -25.7617 -27.5904 -23.6519 
