-4.759 
n/a 
n/a 
n/a 
n/a 
-4.759 
n/a 
n/a 
n/a 
n/a 
-4.759 
n/a 
n/a 
n/a 
n/a 
-4.759 
n/a 
n/a 
n/a 
n/a 
-3.9875 -5.139 -4.712 0 -5.1095 -2.674 -4.0835 -2.3345 -4.475 -4.921 
-8.9055 -10.1855 -4.712 -5.1095 -7.472501 -5.814 -5.376501 -6.661 -7.172 
-14.4724 -10.1855 -9.595001 -7.472501 -11.0337 -8.8465 -10.0885 -9.59 
-14.4724 -15.2471 -12.3636 -11.0337 -14.0662 -13.7359 -13.3875 
-19.534 -18.0157 -15.9248 -14.0662 -18.9556 -17.0349 
-1.4985 -3.918 -4.0395 -2.186 -4.896 -1.8085 -3.6885 0 -10.8075 -5.0595 -2.356 -7.083 -5.0615 0 -4.912 -2.664 -5.8105 -6.122 0 
-4.8715 -7.323 -5.584001 -5.6055 -5.909 -4.3555 -3.6885 -8.0495 -12.3945 -7.070001 -8.197001 -8.5865 -5.0615 -4.912 -6.2645 -7.071 -10.2435 -6.122 
-7.920501 -8.859 -8.4975 -6.1565 -8.218 -4.3555 -10.071 -12.7499 -14.7604 -10.5745 -9.1425 -8.5865 -9.224501 -6.2645 -10.2085 -10.2805 -10.2435 
-9.231501 -11.8271 -9.271001 -8.441 -8.218 -10.286 -14.9878 -14.7604 -18.2649 -11.52 -9.1425 -12.8891 -10.329 -10.2085 -10.4505 -10.2805 
-12.221 -12.6006 -11.6123 -8.441 -13.665 -15.2804 -16.9983 -18.2649 -19.2104 -11.52 -13.5119 -13.9936 -14.273 -10.4505 -10.4505 

n/a 
n/a 
n/a 
n/a 
-5.61 -2.9705 -2.674 -5.1095 -2.4945 -3.9875 -1.4985 -4.8705 -4.712 
-7.7905 -4.904 -7.5225 -6.558001 -6.4915 -4.653 -5.8645 -8.455 
-9.351501 -10.513 -10.233 -11.1386 -6.902 -7.8815 -9.044001 
-15.0671 -13.2235 -14.8136 -11.5491 -10.1345 -10.3285 
-17.7776 -17.8041 -15.2241 -14.7816 -12.5815 
