-4.759 
n/a 
n/a 
n/a 
n/a 
-4.759 
n/a 
n/a 
n/a 
n/a 
-4.759 
n/a 
n/a 
n/a 
n/a 
-4.759 
n/a 
n/a 
n/a 
n/a 
-8.110001 -3.966 -1.4985 -4.219 0 
-12.5224 -5.435 -5.129 -4.219 
-13.9914 -7.2405 -5.129 
-15.7969 -7.2405 
-15.7969 
-1.934 -2.3335 -4.219 -8.110001 -2.7415 -3.966 
-4.359 -6.7335 -13.679 -9.8325 -5.8625 
-7.5195 -16.6001 -15.4015 -13.0347 
-17.6071 -18.3226 -18.6037 
-19.3296 -21.5248 
-11.851 -3.251 -3.1125 -5.7875 -1.934 -2.3335 -4.519 
-12.1605 -4.28 -7.343 -6.9975 -4.359 -7.2015 
-13.3605 -8.443001 -8.900001 -9.566501 -9.8675 
-17.5235 -9.8125 -10.758 -15.3128 
-18.893 -11.6267 -16.5043 
-12.16972 -3.966 -1.934 -1.4985 -4.219 0 
-16.13572 -5.2045 -2.6125 -5.129 -4.219 
-17.37422 -5.689 -6.29 -5.129 
-17.85872 -9.0775 -6.29 
-21.24722 -9.0775 
