-4.759 
n/a 
n/a 
n/a 
n/a 
-4.759 
n/a 
n/a 
n/a 
n/a 
-4.759 
n/a 
n/a 
n/a 
n/a 
-4.759 
n/a 
n/a 
n/a 
n/a 
-1.4985 -5.149 -3.59 -2.186 -4.867 -2.5195 -4.9185 -4.9515 -2.0935 -1.4985 -3.814 -3.8445 -4.778 
-6.161 -7.445 -5.4475 -6.238501 -5.4185 -7.3995 -8.185501 -7.179001 -2.9725 -4.198 -5.815001 -6.6005 
-8.659 -9.715 -8.185 -6.537 -9.3545 -10.7175 -10.0745 -8.145 -5.1435 -5.839 -7.623 
-11.228 -12.4525 -8.565001 -10.6215 -13.0029 -12.6065 -11.4437 -9.800501 -6.5595 -7.6295 
-13.9655 -12.8325 -12.8097 -14.2699 -14.8919 -13.9757 -13.0992 -11.2165 -8.5435 
-3.034 -2.4265 -2.7415 -1.8085 -5.149 -3.59 0 -2.0935 -1.4985 -3.814 -3.8445 -5.1185 0 -2.4265 -2.186 -4.867 -2.5195 -5.891 -1.756 -3.288 -5.2015 
-4.3295 -3.681 -3.891 -5.830501 -7.445 -3.59 -2.0935 -2.9725 -4.198 -5.815001 -6.88 -5.1185 -2.4265 -3.292 -6.238501 -5.4185 -8.6125 -7.0585 -4.773 -8.229 
-5.3785 -4.626 -7.7075 -7.836 -7.445 -5.627 -2.9725 -5.1435 -5.839 -8.361501 -6.88 -6.8815 -3.292 -8.005 -6.537 -10.4945 -9.7425 -8.877501 -10.5148 
-7.022 -8.137 -9.536 -7.836 -9.660501 -6.553 -5.1435 -6.5595 -8.367001 -8.361501 -8.831 -7.5115 -8.005 -8.410001 -11.8116 -11.6245 -11.5781 -14.7261 
-10.688 -10.374 -9.536 -10.194 -10.5345 -7.7875 -6.5595 -9.3175 -8.367001 -9.956 -9.6385 -12.5859 -8.410001 -13.879 -12.9416 -13.4601 -17.4267 
-2.3615 -3.59 -5.149 -3.59 0 -3.228 -3.8445 -4.763 -3.288 -3.8035 -3.2345 -3.383 -4.7625 -3.8035 0 
-5.0215 -8.887001 -7.445 -3.59 -3.228 -5.722 -6.940001 -8.127 -7.1635 -7.0935 -6.666 -7.389 -9.417 -3.8035 
-10.3815 -11.4032 -7.445 -7 -5.722 -10.115 -10.7812 -13.0563 -10.6885 -10.7175 -11.3814 -12.3717 -9.417 
-12.8977 -11.4032 -11.4582 -10.1765 -10.115 -13.79 -15.7105 -16.5813 -14.3125 -15.4329 -16.3641 -12.3717 
-12.8977 -15.4164 -14.6347 -15.3821 -13.79 -18.7193 -19.2355 -20.2053 -19.0279 -20.4156 -16.3641 
-2.4265 -2.7415 -2.871 -1.7565 -1.4985 -4.808 -3.59 0 -3.436 -2.5645 -3.277 -2.4265 -2.7415 -10.9655 -1.934 -5.891 -5.746 
-3.681 -4.8915 -3.5385 -2.4195 -6.280001 -8.724501 -3.59 -3.436 -6.477 -4.602 -5.4405 -3.681 -15.0728 -12.8995 -8.182501 -8.6485 
-5.8635 -5.0085 -3.7675 -7.744501 -10.1675 -8.724501 -6.704 -6.477 -8.3335 -7.2035 -6.389 -16.2149 -17.0068 -19.148 -11.2126 
-5.956 -5.2005 -9.592 -11.6168 -10.1675 -12.4099 -10.2456 -8.3335 -11.4724 -8.298 -19.1691 -18.1489 -23.2553 -22.1781 
-6.169 -11.5502 -13.5409 -11.6168 -13.8529 -15.9515 -12.1021 -11.4724 -12.5669 -21.1543 -21.1031 -24.3974 -26.2854 
