-4.759 
n/a 
n/a 
n/a 
n/a 
-4.759 
n/a 
n/a 
n/a 
n/a 
-4.759 
n/a 
n/a 
n/a 
n/a 
-4.759 
n/a 
n/a 
n/a 
n/a 
-4.426 -1.7565 -1.4985 -3.6115 -4.7285 -4.1555 -3.147 -3.115 -2.3615 -3.851 -1.7695 -1.4985 -3.8665 -3.4095 -3.5445 -5.658 -3.748 -3.277 -3.995 -2.229 -4.1735 -3.355 -2.674 -3.1125 -5.377 0 
-5.47 -2.4195 -4.081 -6.5495 -8.4455 -5.77 -6.357 -4.312 -6.9135 -4.0015 -2.7955 -4.915 -7.8355 -6.4995 -7.4075 -7.239501 -5.8405 -7.896501 -5.324 -4.7675 -6.9825 -7.021 -3.6315 -7.865 -5.377 
-5.9535 -5.180501 -6.670501 -9.978001 -9.541501 -9.460001 -6.7955 -8.4975 -6.9975 -4.5775 -6.2415 -9.0845 -10.622 -11.716 -10.497 -10.029 -9.213501 -8.909 -7.81 -9.4995 -11.3573 -7.756001 -8.094 -7.865 
-8.462501 -7.797 -10.054 -11.0524 -13.2315 -10.3365 -12.312 -8.526 -7.456 -7.564 -10.6112 -12.1642 -16.4087 -15.6707 -11.9075 -12.344 -9.665501 -11.603 -13.2976 -13.4121 -12.0923 -12.4031 -8.094 
-10.2375 -11.2985 -11.1648 -14.7424 -14.108 -15.853 -12.3405 -9.080001 -10.6025 -12.1369 -13.6909 -17.9509 -19.7932 -15.7097 -13.6941 -12.8516 -12.7651 -17.0906 -17.2102 -14.1471 -16.7394 -12.4031 
-3.321 -1.4985 -3.8665 -5.207 -2.4945 -4.09 -1.934 -3.436 -5.658 -3.748 -3.277 0 
-4.481 -4.915 -9.118 -6.8025 -5.816 -5.2875 -5.605 -8.514 -7.239501 -5.8405 -3.277 
-7.9585 -9.658 -10.6345 -9.2465 -6.794 -10.5425 -11.4455 -12.397 -10.029 -5.8405 
-12.7807 -11.3485 -13.0785 -10.5435 -12.3572 -16.6046 -15.1501 -13.906 -9.297001 
-14.4712 -13.7925 -14.3755 -16.1067 -18.4193 -20.0876 -16.5051 -13.906 
-2.3345 -2.3615 -5.9385 -2.356 -1.934 -5.658 -3.748 -1.7565 -3.277 -3.436 -6.282 -4.285 -5.465 -1.756 -2.8965 -3.152 -3.8755 
-4.499 -9.423 -8.554501 -5.342 -7.147 -7.239501 -5.459 -5.0515 -5.4395 -10.766 -9.517 -6.904 -6.6505 -3.751 -6.8465 -5.6875 
-12.0639 -12.085 -11.8317 -10.357 -10.6995 -9.701501 -8.302 -6.8695 -13.0655 -14.001 -10.545 -8.395 -9.1925 -8.3605 -9.844001 
-14.7259 -15.3622 -16.1257 -12.692 -12.4705 -13.0254 -9.972 -14.6993 -16.3005 -15.029 -12.036 -10.254 -13.893 -11.5244 
-18.0031 -19.6562 -19.8277 -15.382 -15.5099 -14.6954 -17.8518 -17.9343 -17.3285 -16.52 -13.895 -15.4097 -17.0569 
-4.426 -1.7565 -1.4985 -3.6115 -4.7285 -4.1555 -3.147 -2.3615 -2.186 -1.4985 -5.658 -3.748 -3.277 -1.934 -3.995 -1.934 -3.135 -3.9035 -3.898 0 
-5.47 -2.4195 -4.081 -6.5495 -8.4455 -5.77 -5.445 -3.5005 -3.339 -7.021 -7.239501 -5.8405 -4.8125 -6.139 -5.975 -4.4015 -5.793 -9.243 -3.898 
-5.9535 -5.180501 -6.670501 -9.978001 -9.541501 -8.02 -6.151 -4.3105 -9.632501 -10.731 -10.029 -7.702001 -9.089001 -8.397 -8.347 -6.349 -12.4869 -9.243 
-8.462501 -7.797 -10.054 -11.0524 -11.7915 -8.458501 -6.814 -10.6865 -11.5965 -10.7255 -11.0825 -9.9125 -11.9728 -10.513 -10.1345 -13.6823 -12.4869 
-10.2375 -11.2985 -11.1648 -13.3024 -12.23 -8.951 -13.7544 -12.924 -13.2195 -12.778 -13.366 -13.9863 -14.0888 -12.3005 -17.4838 -13.6823 
