-4.759 
n/a 
n/a 
n/a 
n/a 
-4.759 
n/a 
n/a 
n/a 
n/a 
-4.759 
n/a 
n/a 
n/a 
n/a 
-4.759 
n/a 
n/a 
n/a 
n/a 
-4.8315 0 -1.934 -1.4985 -4.58 -1.7565 -7.4885 0 -2.3615 -6.6205 -3.4425 0 -7.8385 0 -2.7415 -4.5485 -2.356 -1.4985 -4.1645 -2.5195 -1.4985 -5.362 0 
-4.8315 -1.934 -2.6125 -5.727 -5.440001 -9.320001 -7.4885 -2.3615 -10.209 -10.7454 -3.4425 -7.8385 -7.8385 -2.7415 -5.5565 -6.2725 -3.1615 -5.917001 -5.969501 -3.1695 -6.038501 -5.362 
-6.3455 -2.6125 -6.327001 -5.969 -13.6681 -9.320001 -10.329 -10.209 -14.5877 -10.7454 -12.2108 -7.8385 -10.523 -5.5565 -7.1545 -6.879 -7.519501 -7.859501 -6.742001 -7.598 -6.038501 
-6.951 -6.327001 -6.399 -14.3685 -13.6681 -12.3143 -18.1765 -14.5877 -14.5877 -19.5137 -12.2108 -10.523 -13.338 -7.1545 -7.494 -11.6394 -9.449 -8.285001 -11.6459 -7.598 
-10.172 -6.399 -15.1397 -14.3685 -16.6624 -20.1618 -22.5552 -14.5877 -23.356 -19.5137 -14.8953 -13.338 -14.936 -7.494 -12.7734 -13.5689 -9.764501 -13.3169 -11.6459 
-2.645 -3.2295 -3.5455 -1.4985 -3.8405 -1.7565 -7.4885 0 -3.1495 -6.379 0 -7.8385 0 -3.152 -4.0835 -3.9345 -1.7695 -3.5435 -3.5035 0 
-6.2145 -6.898 -3.91 -4.7545 -4.563 -9.320001 -7.4885 -3.1495 -8.9565 -6.379 -7.8385 -7.8385 -3.152 -5.9115 -6.851001 -3.94 -5.561501 -6.2355 -3.5035 
-10.181 -7.382 -5.4455 -5.365 -13.2877 -9.320001 -11.0805 -8.9565 -8.9565 -14.8443 -7.8385 -11.5161 -5.9115 -8.574 -6.854001 -7.017 -8.797501 -6.2355 
-10.4185 -9.455501 -5.984 -14.1329 -13.2877 -13.0658 -16.8875 -8.9565 -18.0226 -14.8443 -11.5161 -14.2756 -8.574 -8.580501 -10.304 -10.334 -8.797501 
-12.492 -9.9685 -14.8745 -14.1329 -17.0335 -18.8728 -16.8875 -18.0226 -18.0226 -18.5219 -14.2756 -16.9381 -8.580501 -11.7843 -13.621 -10.334 
-3.5455 -1.4985 -6.864 -2.229 -3.8405 -3.098 0 -4.2775 -4.088 -3.152 -3.43 -2.0935 -3.1495 -6.379 -3.1385 0 
-3.91 -7.8675 -8.205501 -6.798501 -6.6335 -3.098 -4.2775 -7.6875 -6.9045 -5.144 -5.043 -4.7405 -8.9565 -9.24 -3.1385 
-9.338 -10.019 -13.6572 -10.107 -6.6335 -7.8 -7.6875 -10.6095 -9.046 -6.3955 -7.501 -10.7613 -10.7575 -9.24 
-12.2417 -15.6559 -16.9657 -10.107 -11.8815 -11.4704 -10.6095 -12.751 -10.0225 -8.767 -13.7716 -12.5623 -10.7575 
-17.8786 -18.9644 -16.9657 -15.355 -15.5519 -14.3924 -12.751 -13.7275 -12.8156 -15.0318 -15.5726 -12.5623 
-14.59822 -1.4985 -6.6205 -3.152 -3.17 -1.934 -7.4885 -3.8405 0 
-16.17222 -6.842 -8.9095 -6.089 -5.81 -10.862 -11.9562 -3.8405 
-21.59722 -9.196501 -11.9635 -8.252501 -15.4188 -15.3297 -11.9562 
-24.00132 -12.3019 -14.127 -18.5911 -19.8865 -15.3297 
-27.10672 -14.4654 -24.4656 -23.0588 -19.8865 
