-4.759 
n/a 
n/a 
n/a 
n/a 
-4.759 
n/a 
n/a 
n/a 
n/a 
-4.759 
n/a 
n/a 
n/a 
n/a 
-4.759 
n/a 
n/a 
n/a 
n/a 
-4.1805 -4.0395 -1.934 -3.691 0 
-8.106501 -5.5995 -4.8225 -3.691 
-9.454 -8.7775 -4.8225 
-12.8858 -8.7775 
-12.8858 
-3.535 -3.522 0 -3.691 -2.229 -4.1805 -4.247 
-5.913 -3.522 -3.691 -5.0855 -6.6215 -6.3675 
-5.913 -8.0295 -5.0855 -8.618 -8.090501 
-9.297501 -8.719501 -8.618 -10.3815 
-10.4435 -12.3854 -10.3815 
-3.0835 -6.5885 -2.264 0 -3.691 -3.59 -2.186 -5.6855 0 
-9.752001 -9.036501 -2.264 -3.691 -6.938001 -5.4475 -9.6625 -5.6855 
-12.7036 -9.036501 -5.873 -6.938001 -9.93 -13.4052 -9.6625 
-12.7036 -13.0419 -9.694 -9.93 -18.4069 -13.4052 
-16.709 -16.8629 -12.9012 -18.4069 -18.4069 
-3.535 -4.1835 0 -3.691 -2.229 -4.1805 
-6.397 -4.1835 -3.691 -5.0855 -6.6215 
-6.397 -8.834001 -5.0855 -8.618 
-11.6715 -9.616001 -8.618 
-12.4535 -13.3509 
