-4.759 
n/a 
n/a 
n/a 
n/a 
-4.759 
n/a 
n/a 
n/a 
n/a 
-4.759 
n/a 
n/a 
n/a 
n/a 
-4.759 
n/a 
n/a 
n/a 
n/a 
-5.1845 -4.2115 -2.186 -3.881 
-9.31 -6.4525 -5.3 
-11.7426 -8.952001 
-14.2421 
n/a 
-5.1845 -3.308 -4.5355 -2.8645 -3.881 0 
-8.542 -7.498 -7.723001 -5.4695 -3.881 
-13.3544 -10.3815 -9.588 -5.4695 
-16.2379 -12.2465 -9.588 
-18.1029 -12.2465 
-3.881 -2.3345 -5.1845 -3.16 -4.9 
-4.5275 -7.449 -8.900001 -8.429 
-9.797501 -11.6715 -14.5132 
-14.2602 -17.2847 
-19.8734 
-5.1845 -9.527 -3.881 
-16.0059 -13.6638 
-20.1427 
n/a 
n/a 
