-4.759 
n/a 
n/a 
n/a 
n/a 
-4.759 
n/a 
n/a 
n/a 
n/a 
-4.759 
n/a 
n/a 
n/a 
n/a 
-4.759 
n/a 
n/a 
n/a 
n/a 
-4.566 0 -11.0905 -9.499001 0 -5.7865 0 
-4.566 -11.0905 -21.5887 -9.499001 -5.7865 -5.7865 
-16.0703 -21.5887 -21.5887 -15.3777 -5.7865 
-26.5685 -21.5887 -27.4674 -15.3777 
-26.5685 -27.4674 -27.4674 
-4.566 0 -6.196 -6.538 -7.042 0 -5.7865 0 
-4.566 -6.196 -9.8245 -10.718 -7.042 -5.7865 -5.7865 
-9.377501 -9.8245 -10.7635 -10.718 -13.5607 -5.7865 
-14.1576 -10.7635 -10.7635 -17.2367 -13.5607 
-15.0966 -10.7635 -17.2822 -17.2367 
-4.566 0 -12.16972 -9.392 0 -5.7865 0 
-4.566 -12.16972 -21.56172 -9.392 -5.7865 -5.7865 
-17.14952 -21.56172 -21.56172 -15.3419 -5.7865 
-26.54152 -21.56172 -27.51162 -15.3419 
-26.54152 -27.51162 -27.51162 
-4.566 0 -12.16972 -7.4585 0 -5.7865 
-4.566 -12.16972 -19.62822 -7.4585 -5.7865 
-17.14952 -19.62822 -19.62822 -14.1374 
-24.60802 -19.62822 -26.30712 
-24.60802 -26.30712 
