-4.759 
n/a 
n/a 
n/a 
n/a 
-4.759 
n/a 
n/a 
n/a 
n/a 
-4.759 
n/a 
n/a 
n/a 
n/a 
-4.759 
n/a 
n/a 
n/a 
n/a 
-2.264 -1.4985 -3.7515 -1.7695 -2.3615 -5.324 0 -6.843 0 -5.144 -3.602 -2.186 -3.1125 -4.3725 
-2.9195 -4.4675 -5.222 -3.736 -8.6105 -5.324 -6.843 -6.843 -5.144 -5.745 -5.1035 -6.9115 -5.851501 
-6.02 -6.978001 -8.266001 -10.7025 -8.6105 -13.3298 -6.843 -12.7658 -5.745 -7.494 -10.3815 -9.8675 
-8.2845 -9.276001 -15.4867 -10.7025 -16.5831 -13.3298 -12.7658 -13.3668 -7.494 -13.0842 -13.3375 
-11.1241 -16.5669 -15.4867 -18.6751 -16.5831 -19.2526 -13.3668 -15.1158 -13.0842 -16.0402 
-3.7515 -2.3615 -3.0365 -2.186 -1.8085 -3.7075 -4.4385 -5.1645 
-5.834 -5.891 -3.66 -3.164 -5.797 -8.5425 -10.622 
-8.558001 -6.4 -4.218 -7.427 -9.820001 -15.1214 
-9.009501 -6.9385 -8.4195 -11.76 -16.4599 
-9.304001 -11.2982 -13.0449 -18.3999 
-5.3315 -2.9705 -2.186 -3.43 -1.7565 -8.262501 -2.7415 -7.254 -2.3345 -4.365 -2.186 -4.4725 -2.5045 -3.177 -1.7565 -5.7105 -5.9185 
-7.773 -3.89 -4.64 -4.9095 -10.9682 -11.136 -8.893001 -8.118 -6.422 -6.971001 -5.528 -6.186 -5.8225 -4.2135 -7.305 -6.078 
-8.494 -6.3955 -5.662001 -14.8248 -13.8417 -17.2875 -9.5745 -12.6295 -9.642 -10.8082 -7.0915 -9.896001 -6.408 -11.042 -7.6915 
-10.733 -7.323 -15.7725 -17.6983 -19.9932 -17.969 -14.1602 -15.8495 -13.6178 -12.3717 -10.6095 -10.5465 -13.1703 -11.4285 
-11.6605 -17.5513 -18.646 -23.8498 -20.6747 -22.5547 -17.3802 -19.8253 -15.1813 -15.8897 -11.26 -17.3088 -13.5568 
-3.7075 -4.877 -8.566501 -2.264 -2.3615 -3.9965 
-8.540001 -14.4409 -10.688 -3.8255 -6.646501 
-18.4095 -16.5624 -12.2495 -7.823501 
-20.531 -18.1239 -16.2475 
-22.0925 -22.1219 
