-4.759 
n/a 
n/a 
n/a 
n/a 
-4.759 
n/a 
n/a 
n/a 
n/a 
-4.759 
n/a 
n/a 
n/a 
n/a 
-4.759 
n/a 
n/a 
n/a 
n/a 
-3.875 -5.0865 -1.756 -3.676 -2.229 -9.5115 -3.135 -3.013 -1.4985 -5.608 0 
-9.2925 -6.3675 -5.918 -4.593 -12.3355 -12.8555 -6.343 -4.488 -6.3715 -5.608 
-10.7815 -10.0375 -6.47 -16.0739 -15.6795 -16.0635 -8.323001 -9.573 -6.3715 
-14.4515 -10.1685 -18.3459 -19.4179 -18.8875 -18.0435 -13.3748 -9.573 
-14.5825 -22.5178 -21.6899 -22.6259 -20.8675 -23.0953 -13.3748 
-5.0865 -1.756 -3.676 -6.1085 -3.1335 -3.4405 -3.4865 -3.09 
-6.3675 -5.918 -10.4765 -6.953001 -6.4465 -7.974 -5.759 
-10.0375 -13.3383 -11.7114 -10.004 -11.5998 -10.6127 
-17.8986 -14.5732 -14.7624 -15.0571 -14.2385 
-19.1335 -17.6242 -19.8155 -17.6958 
-4.051 -4.4155 -1.7565 -4.464 -1.756 -3.4975 -4.5365 -2.229 -3.1335 -2.4945 -3.4865 -4.384 -2.186 -3.8535 0 
-8.475 -4.949 -5.7895 -5.6625 -5.427 -8.765 -6.2665 -5.622 -5.9225 -6.069 -7.1285 -6.330501 -4.972 -3.8535 
-9.683001 -6.127 -6.843 -9.9305 -11.0957 -10.76 -8.865 -8.4525 -9.7885 -10.6605 -9.1815 -8.732 -4.972 
-11.5264 -7.3195 -11.3344 -15.6814 -13.0907 -13.3585 -11.8381 -12.4293 -14.7864 -12.7135 -11.6606 -8.732 
-12.7189 -12.3925 -17.0853 -17.6764 -15.6892 -16.3316 -15.8149 -17.4272 -16.8394 -15.1926 -11.6606 
-3.8265 -4.4155 -1.7565 -4.464 -1.756 -3.4975 -5.487 -3.1335 -3.937 -3.4865 -4.6865 -1.756 -4.502 
-6.101 -4.949 -5.7895 -5.6625 -5.427 -9.885 -7.693501 -7.824 -7.790501 -7.144501 -5.5725 -5.3525 
-6.1075 -6.127 -6.843 -9.9305 -12.2157 -12.3319 -12.7626 -12.0561 -11.8361 -8.373 -9.6635 
-6.226501 -7.3195 -11.3344 -16.8014 -14.6626 -17.401 -16.9947 -16.1017 -13.0646 -12.7134 
-7.4245 -12.3925 -18.2053 -19.2483 -19.7317 -21.6331 -21.0403 -17.3302 -17.405 
