-4.759 
n/a 
n/a 
n/a 
n/a 
-4.759 
n/a 
n/a 
n/a 
n/a 
-4.759 
n/a 
n/a 
n/a 
n/a 
-4.759 
n/a 
n/a 
n/a 
n/a 
-3.5455 -3.676 -3.4295 -3.559 -3.8675 -6.9815 -3.676 0 -3.9885 -2.4945 -4.3455 -3.301 -4.177 -2.356 -3.769 
-4.521501 -7.4705 -5.7445 -8.0625 -12.1594 -9.904 -3.676 -3.9885 -6.823 -8.321001 -6.581 -6.469501 -4.944 -5.021501 
-8.267 -10.4037 -9.2605 -16.5934 -15.0819 -9.904 -5.8885 -6.823 -12.9197 -10.389 -8.6915 -6.7135 -7.551 
-11.6792 -13.9197 -18.7958 -19.5159 -15.0819 -13.2991 -10.1228 -12.9197 -14.9877 -12.4995 -8.8215 -9.476501 
-15.1952 -23.455 -21.7183 -19.5159 -18.477 -17.5334 -16.2195 -14.9877 -17.0982 -12.6295 -11.7141 
-4.8315 0 -3.851 -1.7695 -1.4985 -3.5455 -3.4975 -3.4295 -3.8355 -3.8675 -3.691 0 -3.676 -1.756 -3.9885 -2.674 -1.8085 -3.639 -4.936 0 
-4.8315 -3.851 -4.0015 -2.7955 -4.554 -4.936501 -7.27 -6.714 -5.926001 -7.039001 -3.691 -3.676 -5.0365 -5.8745 -7.0575 -3.63 -5.2325 -7.2025 -4.936 
-7.559 -4.0015 -4.5775 -5.5335 -5.663 -8.122001 -11.3271 -9.908501 -8.555 -7.039001 -7.554 -5.0365 -7.2185 -7.6665 -8.3915 -6.858 -7.603001 -7.2025 
-7.573 -4.5775 -8.637 -6.931 -8.820001 -12.2455 -14.5216 -12.9189 -8.555 -12.2964 -8.485001 -7.2185 -9.4585 -9.0755 -10.513 -9.1 -7.603001 
-7.7285 -8.637 -9.314501 -10.434 -13.1435 -15.44 -17.532 -12.9189 -14.5606 -13.2274 -9.538501 -9.4585 -10.9143 -10.5135 -13.6582 -9.1 
-3.818 0 -3.5455 -3.676 -3.4295 -3.8355 -3.432 -3.8675 0 -3.691 -3.676 -1.756 -3.9885 -1.4985 -3.959 -1.7565 -3.383 -4.936 -3.959 0 
-3.818 -3.5455 -4.521501 -7.4705 -6.714 -7.614501 -8.505001 -3.8675 -3.691 -7.554 -5.0365 -5.8745 -5.963 -5.5 -5.473 -5.5535 -9.477 -10.513 -3.959 
-6.687 -4.521501 -8.267 -11.3732 -11.4038 -13.1371 -8.505001 -7.039001 -7.554 -8.485001 -7.2185 -7.2285 -9.361 -6.1685 -9.5445 -12.1715 -15.0886 -10.513 
-9.948 -8.267 -12.6487 -16.063 -16.9264 -13.1371 -11.8515 -12.2964 -8.485001 -9.538501 -8.668501 -9.92 -9.696501 -10.7582 -16.5885 -17.7831 -15.0886 
-13.8353 -12.6487 -17.3385 -21.5856 -16.9264 -16.4836 -17.1089 -13.2274 -9.538501 -11.2093 -11.438 -10.4561 -14.6274 -17.8022 -22.2001 -17.7831 
-8.9285 -3.5455 -3.676 -3.3255 -3.473 -3.991 -1.7695 -3.691 0 -3.676 -3.9885 -2.356 -3.383 -3.639 -4.177 -1.7695 -5.032 0 
-12.8242 -4.521501 -6.7765 -6.972 -5.935 -5.1575 -5.5435 -3.691 -3.676 -5.8885 -6.604 -5.485001 -5.513 -6.318 -5.43 -8.564501 -5.032 
-13.8002 -7.535501 -10.8784 -9.5515 -7.234 -8.7355 -5.5435 -7.554 -5.8885 -10.3415 -9.662001 -8.101501 -7.546 -7.51 -12.692 -8.564501 
-16.8142 -11.8478 -13.4579 -10.759 -11.34 -8.7355 -9.253 -9.5085 -10.3415 -13.3995 -12.4377 -10.757 -8.8645 -15.0086 -12.692 
-21.1265 -14.4273 -14.6654 -14.865 -11.34 -12.682 -11.4321 -14.0777 -13.3995 -16.1752 -15.0932 -12.0755 -16.4133 -15.0086 
