-4.759 
n/a 
n/a 
n/a 
n/a 
-4.759 
n/a 
n/a 
n/a 
n/a 
-4.759 
n/a 
n/a 
n/a 
n/a 
-4.759 
n/a 
n/a 
n/a 
n/a 
-9.753 -3.881 -2.3345 -10.2505 -2.3615 -3.452 -2.186 -3.602 -1.7565 -3.5895 -3.3195 -3.8055 
-13.7504 -4.5275 -12.9156 -12.7382 -4.5465 -5.049 -6.9445 -4.5195 -4.8595 -6.193501 -7.601501 
-14.3969 -15.8756 -15.4033 -14.9232 -5.4745 -10.127 -8.1095 -8.9145 -9.019 -12.0445 
-25.745 -18.3633 -17.5883 -15.8512 -10.733 -11.292 -12.6671 -13.363 -15.4246 
-28.2327 -20.5483 -18.5163 -21.1097 -11.898 -15.8496 -17.1156 -19.7686 
-1.934 -1.4985 -3.452 -3.881 -2.3345 -12.16972 -5.091 0 -12.16972 0 -3.3715 -4.9765 -3.8625 -2.7455 -3.3195 -2.8645 -3.1125 -4.394 -3.7855 0 
-2.6125 -4.4485 -6.449 -4.5275 -14.83482 -17.26072 -5.091 -12.16972 -12.16972 -3.3715 -8.418 -8.961 -6.103001 -6.134 -6.070001 -3.5345 -6.6745 -7.661 -3.7855 
-5.475 -7.5525 -6.722 -17.79482 -19.92582 -17.26072 -17.58052 -12.16972 -15.54122 -8.418 -12.6505 -11.9343 -9.723001 -9.238001 -6.7565 -7.121 -9.7215 -7.661 
-8.686501 -7.733 -20.48112 -22.88582 -19.92582 -29.75024 -17.58052 -15.54122 -20.58772 -12.6505 -15.6238 -15.5543 -12.8468 -9.897 -10.8298 -10.0505 -9.7215 
-8.854 -21.50632 -25.57212 -22.88582 -32.41534 -29.75024 -20.95202 -20.58772 -24.82022 -15.6238 -19.2438 -18.6781 -13.5058 -14.0357 -13.7593 -10.0505 
-2.7295 -2.7765 -3.197 -4.2285 -4.414 -2.7455 -3.3195 -1.934 -1.4985 -3.452 -1.7565 0 -11.128 0 -3.881 -2.3345 -9.819 
-4.065 -4.745501 -7.781501 -6.6755 -5.828 -6.134 -5.3225 -2.6125 -4.4485 -4.8515 -1.7565 -11.128 -11.128 -3.881 -4.5275 -10.7025 
-6.017 -9.051001 -10.6833 -8.1385 -8.561 -7.636001 -5.9445 -5.475 -5.398 -4.8515 -13.8337 -11.128 -15.009 -4.5275 -13.6625 
-10.228 -12.0778 -12.1463 -11.2899 -9.309 -8.4995 -9.074 -6.258 -5.398 -17.9763 -13.8337 -15.009 -15.6555 -13.6625 
-13.2548 -13.5408 -15.2977 -12.0379 -11.0999 -11.7298 -10.2755 -6.258 -19.2642 -17.9763 -17.7147 -15.6555 -24.7905 
-2.7295 -2.7765 -3.047 -1.4985 -4.2285 -3.914 -2.264 -5.1845 -3.3195 -1.934 -1.4985 -3.452 -9.753 -3.881 -2.3345 -10.2505 0 
-4.065 -4.5075 -4.095 -5.319 -6.761001 -5.922501 -7.422001 -7.8665 -5.3225 -2.6125 -4.4485 -14.2758 -13.7504 -4.5275 -12.9156 -10.2505 
-5.696 -5.387 -8.158001 -8.224501 -8.726001 -11.5305 -10.403 -10.3345 -5.9445 -5.475 -15.7095 -18.2732 -14.3969 -15.8756 -12.9156 
-6.5735 -9.185 -11.1285 -10.6465 -14.4572 -14.5115 -12.871 -10.9565 -9.074 -16.8352 -19.7069 -18.9197 -25.745 -15.8756 
-10.114 -12.2157 -13.5505 -16.3777 -17.4382 -16.9795 -13.493 -14.086 -20.4958 -20.8326 -20.3534 -30.2678 -25.745 
