-4.759 
n/a 
n/a 
n/a 
n/a 
-4.759 
n/a 
n/a 
n/a 
n/a 
-4.759 
n/a 
n/a 
n/a 
n/a 
-4.759 
n/a 
n/a 
n/a 
n/a 
-2.5195 -1.4985 -3.9785 -1.7565 -4.602 -4.153 -3.995 -4.1455 0 -4.1115 -2.186 -1.4985 -3.784 -4.237 -2.95 
-3.1695 -4.496 -4.924 -6.552001 -5.112 -7.973001 -6.749001 -4.1455 -4.1115 -6.279 -3.339 -4.6165 -7.665 -7.9595 
-6.0535 -4.959 -9.1715 -6.637001 -8.6335 -10.9782 -6.749001 -7.849501 -6.279 -7.386 -6.113 -8.256001 -10.209 
-6.6455 -9.262501 -9.215501 -9.4545 -11.7181 -10.9782 -10.411 -11.0104 -7.386 -10.5056 -9.722501 -10.4505 
-10.5035 -9.31 -12.132 -12.7879 -11.7181 -14.6402 -13.5719 -12.1174 -10.5056 -14.1151 -11.9582 
-1.4985 -4.4765 -3.981 -1.756 -1.4985 -4.8155 -1.7565 -1.4985 -3.741 -4.9135 -2.186 -4.895 -3.433 -1.7565 -1.4985 -4.4125 -3.2955 -1.756 -1.4985 -3.741 -3.6615 0 -5.4395 -2.5045 -1.4985 -2.95 -1.7565 -3.741 -3.4635 -3.833 
-5.7165 -8.9385 -6.0415 -3.0405 -5.776501 -5.775001 -2.4195 -4.967 -9.094 -7.4315 -8.1975 -7.602 -4.1845 -2.4195 -5.4965 -7.218 -5.223 -3.0405 -4.967 -6.99 -3.6615 -5.4395 -6.989501 -3.1915 -3.9285 -4.3785 -5.945001 -5.775001 -6.5935 
-9.837501 -10.4855 -7.2305 -7.352 -6.532001 -6.3945 -6.3605 -10.543 -12.2892 -13.8112 -10.9169 -8.038501 -4.6515 -6.315001 -8.226 -9.933001 -6.1755 -6.525 -7.559501 -6.99 -9.747001 -6.989501 -7.1115 -4.5155 -4.676 -9.379001 -7.596001 -10.238 
-11.4645 -11.6745 -11.73 -7.918 -7.188001 -9.6485 -12.2831 -13.7382 -18.6689 -16.5306 -11.3534 -8.542001 -9.431 -9.0675 -11.0012 -10.2685 -9.7465 -9.086 -7.559501 -13.3755 -11.4128 -7.1115 -7.423501 -4.837 -10.485 -11.1908 -11.8372 
-12.6535 -16.174 -12.296 -8.5425 -10.673 -15.6413 -15.4783 -20.1179 -21.3883 -16.9671 -11.8569 -13.5299 -12.2989 -11.8135 -11.3367 -14.2505 -12.5595 -9.086 -14.257 -15.0413 -11.5348 -7.423501 -7.6825 -10.702 -12.2968 -15.432 
-3.345 -4.113 -4.008 -3.837 -3.6065 -3.4775 0 -3.402 -1.7565 -4.237 -4.8065 0 -5.014 -4.237 -2.742 -4.0195 -1.4985 -3.6615 -1.934 -5.473 -4.9995 0 
-8.160501 -6.521001 -8.087501 -7.370501 -6.7605 -3.4775 -3.402 -7.0365 -5.66 -8.869 -4.8065 -5.014 -8.201 -6.9695 -5.431 -5.159 -4.9455 -4.437 -7.5435 -12.1647 -4.9995 
-10.8689 -9.657001 -12.0872 -10.476 -6.7605 -6.1515 -7.0365 -11.2734 -10.218 -8.869 -10.322 -8.201 -11.4981 -8.432 -6.0795 -8.514501 -5.731 -8.198 -14.6358 -12.1647 
-14.0049 -14.2387 -15.1927 -10.476 -9.279 -10.004 -11.2734 -15.8314 -10.218 -14.6137 -13.7052 -11.4981 -12.9606 -8.8195 -9.2465 -8.975 -9.643001 -16.0199 -14.6358 
-18.5866 -17.3442 -15.1927 -12.9945 -13.6333 -14.3029 -15.8314 -15.8314 -15.9627 -17.9969 -17.0023 -12.9606 -13.3481 -12.1087 -10.586 -13.0084 -17.6111 -16.0199 
-3.741 -5.276 -2.186 -1.4985 -3.5785 -1.7565 -3.5855 -1.756 -3.433 -1.7695 -5.035 -1.4985 -3.1715 -1.7565 -1.4985 -4.6985 -2.0935 -1.8085 -3.739 -2.95 -1.756 -1.8085 -3.7855 -3.5135 -3.6835 -5.164 -2.674 -4.9885 -1.7695 -5.035 -1.4985 -3.741 -6.023 -2.0935 -6.142 0 
-6.724501 -7.303 -3.339 -4.471 -4.7405 -4.6335 -4.5585 -4.5825 -5.0945 -5.4345 -5.6745 -3.994 -4.207 -2.4195 -5.1995 -6.3825 -3.385 -5.027 -6.469501 -4.287 -3.584 -4.803 -6.855 -7.917 -5.399 -6.7945 -6.1085 -5.3 -5.4345 -5.6745 -4.967 -10.254 -7.832 -6.961 -6.142 
-8.3255 -8.474501 -6.611 -5.142 -7.3535 -5.386 -5.0205 -6.413 -8.540501 -6.004 -8.441001 -4.613 -4.719501 -6.2165 -7.1785 -7.547501 -6.1635 -7.0295 -7.9245 -6.191 -7.2405 -7.1165 -10.1185 -10.061 -6.91 -9.72 -6.183 -8.4575 -6.004 -7.5105 -10.31 -10.2735 -10.3225 -6.961 
-9.400001 -9.4355 -6.9615 -7.6155 -7.734001 -5.6845 -7.024 -9.597501 -9.1145 -8.755501 -8.6005 -5.3785 -7.5205 -8.132501 -8.210501 -9.647 -8.4545 -8.504001 -9.2875 -9.216001 -9.427 -10.1335 -10.161 -10.1605 -9.739501 -9.735001 -9.085501 -8.792001 -7.9635 -10.316 -10.32 -10.353 -10.3225 
-9.6575 -9.438001 -8.605 -8.000501 -7.8735 -7.607 -9.6805 -9.6675 -9.7015 -8.863501 -8.792001 -7.6645 -9.3485 -9.243501 -9.6625 -9.6675 -9.451 -9.451 -9.671 -9.6555 -10.1555 -10.1605 -10.1765 -10.1675 -9.755001 -10.1435 -9.417001 -9.951 -10.3155 -10.326 -10.355 -10.353 
