-4.759 
n/a 
n/a 
n/a 
n/a 
-4.759 
n/a 
n/a 
n/a 
n/a 
-4.759 
n/a 
n/a 
n/a 
n/a 
-4.759 
n/a 
n/a 
n/a 
n/a 
-3.034 -4.35 -4.7715 -5.1805 -2.4945 -5.189 -3.345 -2.8965 -3.1435 -5.2125 -3.894 -1.756 -3.8755 0 
-8.2985 -9.781501 -9.081 -7.347 -6.8215 -8.5015 -4.4605 -7.315001 -8.157001 -8.2885 -5.115 -5.7875 -3.8755 
-14.3112 -14.2026 -11.7765 -12.0144 -9.7405 -9.451 -7.943 -12.6613 -11.4466 -8.9455 -7.954501 -5.7875 
-18.7323 -16.8981 -16.4439 -14.9334 -10.9718 -13.3377 -13.6149 -15.9509 -12.1036 -12.2822 -7.954501 
-21.4278 -21.5655 -19.3629 -16.1647 -14.8585 -19.0096 -16.9045 -16.6079 -15.4403 -12.2822 
-7.581501 -4.7715 -2.4945 -3.8755 -2.3345 -1.4985 -4.153 -1.756 -3.0465 -5.1895 0 
-11.136 -6.6695 -5.463 -4.4955 -3.233 -5.274 -5.4605 -4.477 -8.105 -5.1895 
-13.034 -9.491 -6.347 -5.454 -7.094501 -6.783 -8.547001 -9.351501 -8.105 
-15.8555 -10.4435 -7.0245 -9.195001 -8.598001 -9.151001 -13.6353 -9.351501 
-16.808 -11.121 -11.0785 -10.7649 -11.2062 -14.4991 -13.6353 
-5.378 -3.8845 -3.8755 -3.433 -1.7565 -1.4985 -4.153 -1.7565 -1.4985 -3.995 
-9.13 -8.236501 -6.9465 -4.1845 -2.4195 -5.274 -5.717 -2.4195 -4.712 
-13.754 -11.7521 -7.37 -4.6515 -6.4395 -6.134 -6.319001 -5.2205 
-17.2696 -12.1756 -8.075001 -7.5925 -7.644 -6.644001 -8.844501 
-17.6931 -12.8806 -11.1226 -8.262 -8.1415 -9.305 
-5.2495 -4.763 -4.153 -1.7565 -12.16972 -1.7695 -3.5185 -1.4985 -3.6615 0 
-10.523 -9.553 -5.717 -14.87542 -13.93922 -4.134 -4.9765 -4.9455 -3.6615 
-15.313 -11.2212 -19.59212 -16.64492 -16.30372 -5.28 -8.525001 -4.9455 
-16.9812 -25.09632 -21.36162 -19.00942 -17.44972 -8.786 -8.525001 
-30.85632 -26.86582 -23.72612 -20.15542 -20.95572 -8.786 
