-4.759 
n/a 
n/a 
n/a 
n/a 
-4.759 
n/a 
n/a 
n/a 
n/a 
-4.759 
n/a 
n/a 
n/a 
n/a 
-4.759 
n/a 
n/a 
n/a 
n/a 
-4.5965 0 -6.759 -10.5675 0 -5.7865 0 
-4.5965 -6.759 -17.8147 -10.5675 -5.7865 -5.7865 
-10.75 -17.8147 -17.8147 -16.5996 -5.7865 
-21.8057 -17.8147 -23.8468 -16.5996 
-21.8057 -23.8468 -23.8468 
-4.5965 0 -6.759 -10.5675 0 -5.7865 0 
-4.5965 -6.759 -17.8147 -10.5675 -5.7865 -5.7865 
-10.75 -17.8147 -17.8147 -16.5996 -5.7865 
-21.8057 -17.8147 -23.8468 -16.5996 
-21.8057 -23.8468 -23.8468 
-4.5965 0 -9.280001 -12.16972 0 -5.7865 0 
-4.5965 -9.280001 -21.83812 -12.16972 -5.7865 -5.7865 
-14.2667 -21.83812 -21.83812 -17.95622 -5.7865 
-26.82482 -21.83812 -27.62462 -17.95622 
-26.82482 -27.62462 -27.62462 
-4.5965 0 -8.0175 -12.16972 0 -5.7865 0 
-4.5965 -8.0175 -20.53122 -12.16972 -5.7865 -5.7865 
-13.0042 -20.53122 -20.53122 -17.95622 -5.7865 
-25.51792 -20.53122 -26.31772 -17.95622 
-25.51792 -26.31772 -26.31772 
