-4.759 
n/a 
n/a 
n/a 
n/a 
-4.759 
n/a 
n/a 
n/a 
n/a 
-4.759 
n/a 
n/a 
n/a 
n/a 
-4.759 
n/a 
n/a 
n/a 
n/a 
-3.594 -1.756 -4.858 -2.186 -3.0835 -4.4895 -1.934 -7.680501 -4.0965 0 
-4.857 -6.2795 -7.573 -5.597 -6.178 -5.366 -9.620001 -9.521501 -4.0965 
-9.2375 -8.784 -11.3966 -7.775001 -6.7455 -13.7354 -11.485 -9.521501 
-11.8496 -12.9114 -13.5746 -8.398001 -15.5073 -15.6004 -11.485 
-15.977 -15.0894 -14.1976 -17.569 -17.3723 -15.6004 
-1.4985 -3.729 -3.9195 -2.186 -3.8755 -2.5045 -9.352 -2.229 -3.8405 0 
-4.763 -5.707 -5.929 -5.2415 -5.907001 -12.5515 -11.9702 -6.798501 -3.8405 
-7.3855 -8.0745 -9.555 -7.303 -16.6574 -15.1697 -16.5397 -6.798501 
-9.1055 -11.8457 -11.7873 -18.8014 -19.2756 -19.7392 -16.5397 
-12.9765 -14.078 -23.2857 -21.4196 -23.8451 -19.7392 
-3.594 -1.7565 -6.9985 -4.4215 -3.152 -4.834 -3.5455 -7.680501 -3.8405 0 
-4.857 -8.1745 -12.2748 -6.4195 -6.279 -7.262 -10.254 -9.217001 -3.8405 
-12.2174 -13.9464 -14.2728 -7.68 -8.103001 -14.3867 -12.1239 -9.217001 
-17.9893 -15.9444 -15.5333 -9.166 -15.4231 -16.2566 -12.1239 
-19.9873 -17.2049 -17.0193 -16.5897 -17.293 -16.2566 
-7.539001 -4.205 -4.2215 -1.934 -10.201 -3.8405 
-10.647 -9.0825 -4.885 -13.1414 -14.0415 
-15.5245 -9.368501 -16.8428 -16.9819 
-15.8105 -21.3733 -20.6833 
-27.8153 -25.2138 
