-4.759 
n/a 
n/a 
n/a 
n/a 
-4.759 
n/a 
n/a 
n/a 
n/a 
-4.759 
n/a 
n/a 
n/a 
n/a 
-4.759 
n/a 
n/a 
n/a 
n/a 
-3.4225 -4.1265 -3.9235 -3.955 -4.8925 -2.9705 -2.186 -3.9615 -2.3345 -1.4985 -6.638 -2.186 -4.8185 -2.356 -3.9465 
-6.775001 -8.228001 -8.673 -6.912001 -7.237 -3.89 -5.73 -6.346 -3.233 -9.253501 -8.785501 -7.976001 -6.2515 -6.559501 
-9.09 -13.3387 -12.1868 -9.128 -7.992001 -7.102 -7.8325 -7.5935 -11.256 -11.6274 -14.9179 -9.494 -10.341 
-14.4873 -16.8525 -14.4028 -10.065 -10.7495 -9.247001 -8.93 -15.8361 -13.6299 -17.7598 -16.4359 -13.6467 
-18.0011 -19.0685 -15.3398 -12.8225 -12.8945 -9.845 -17.2644 -18.21 -19.7623 -19.2778 -20.5886 
-3.9615 -2.3345 -5.2475 -3.955 -4.8925 -3.918 -3.222 -3.4225 -4.0965 -3.9685 0 
-6.346 -7.4395 -9.3465 -6.912001 -8.7775 -7.563001 -7.538 -4.2 -8.001 -3.9685 
-11.9512 -12.1093 -9.783501 -11.4486 -13.6801 -12.4222 -8.8085 -8.012501 -8.001 
-16.621 -12.5463 -14.4741 -16.3512 -18.5393 -13.6927 -13.0366 -8.012501 
-17.058 -17.2369 -19.3767 -21.2104 -19.8098 -17.9208 -13.0366 
-3.9615 -1.7695 -5.2475 -3.955 -4.8925 -2.186 -4.7695 -3.4225 -4.0965 -1.756 -3.9465 
-5.845 -7.094501 -9.3465 -6.912001 -6.55 -6.515 -8.4595 -4.2 -5.706 -5.895 
-10.0475 -10.275 -9.783501 -8.778501 -11.468 -10.382 -10.647 -5.86 -7.6685 
-13.4404 -11.0794 -11.804 -13.8211 -15.335 -12.5695 -12.307 -7.6715 
-14.2448 -13.0999 -16.8466 -17.6881 -17.5225 -14.2295 -14.1185 
-3.955 -4.8925 -3.9615 -7.9335 -3.613 -4.1735 -2.356 -3.9465 
-6.912001 -7.9545 -12.6566 -11.8743 -8.307 -7.6545 -6.559501 
-10.022 -16.8758 -16.5974 -16.5683 -12.3162 -10.5975 
-19.5393 -20.8166 -21.2914 -20.5775 -15.2592 
-23.4801 -25.5106 -25.3006 -23.5205 
