-4.759 
n/a 
n/a 
n/a 
n/a 
-4.759 
n/a 
n/a 
n/a 
n/a 
-4.759 
n/a 
n/a 
n/a 
n/a 
-4.759 
n/a 
n/a 
n/a 
n/a 
-3.873 -2.229 -3.784 -4.142 -2.5195 -4.1115 -3.518 -2.186 -5.0845 -4.653 0 
-6.4125 -6.0055 -6.7155 -6.678 -6.382 -5.3935 -5.4795 -8.0825 -9.9135 -4.653 
-10.368 -9.0565 -8.638 -9.301001 -7.2415 -7.265 -10.281 -13.3915 -9.9135 
-13.419 -10.944 -12.1908 -9.377501 -8.967 -10.564 -15.8228 -13.3915 
-15.3065 -14.4968 -12.2673 -10.42 -12.9208 -16.5502 -15.8228 
-4.244 -4.3425 -1.7565 -3.873 -3.325 -1.4985 -4.3355 -2.186 -5.0845 -4.653 
-7.876 -5.2755 -5.002 -6.495 -3.898 -5.199 -6.5745 -8.0825 -9.9135 
-8.331501 -9.764 -7.203001 -6.9685 -7.562 -6.8785 -12.8584 -13.3915 
-13.1934 -12.0868 -7.7345 -9.1485 -9.536 -13.291 -18.1674 
-15.5162 -12.6183 -10.001 -10.4115 -15.9211 -18.6 
-3.995 -2.229 -3.784 -4.142 -2.186 -3.458 -6.315001 -1.7695 -8.039001 -2.5195 -4.1115 -3.518 
-5.324 -6.0055 -6.7155 -6.1185 -5.6835 -9.2085 -8.122001 -9.7655 -10.5135 -6.382 -5.3935 
-7.8665 -9.0565 -8.345501 -8.584001 -10.204 -10.383 -16.535 -12.4226 -14.376 -7.2415 
-12.2289 -9.764001 -9.9455 -13.3185 -11.6343 -18.796 -19.1921 -16.2851 -15.2355 
-12.9364 -11.5112 -14.68 -14.7488 -20.0473 -21.4531 -23.0546 -17.1446 
-1.4985 -3.784 -4.142 -1.7565 -3.873 -2.186 -12.16972 -2.5195 -4.1115 0 
-4.6165 -6.7155 -5.3145 -5.002 -5.709 -15.56612 -14.68922 -6.382 -4.1115 
-7.1585 -7.1085 -7.342 -6.910501 -19.66732 -18.08562 -18.55172 -6.382 
-7.291 -10.111 -9.7705 -21.03182 -22.18682 -21.94812 -18.55172 
-10.1675 -10.724 -24.03902 -23.55132 -26.04932 -21.94812 
