-4.759 
n/a 
n/a 
n/a 
n/a 
-4.759 
n/a 
n/a 
n/a 
n/a 
-4.759 
n/a 
n/a 
n/a 
n/a 
-4.759 
n/a 
n/a 
n/a 
n/a 
-2.847 -4.2215 -2.847 -3.956 -1.7695 -6.648 
-8.3365 -7.695001 -6.922 -5.823 -9.301001 
-10.7335 -12.2252 -8.93 -13.9433 
-15.2637 -14.2332 -17.3115 
-17.2717 -22.6147 
-3.0365 -2.186 -2.847 -4.2705 -1.756 -3.956 -2.0935 -4.3055 -6.648 
-3.66 -4.1045 -7.061501 -5.7145 -5.3425 -6.0045 -6.824501 -9.846001 
-4.256001 -8.4895 -8.921 -6.435 -7.241 -11.4727 -12.678 
-8.511001 -9.5445 -9.580501 -8.920501 -13.1114 -17.3262 
-9.586 -10.14 -12.1164 -14.8073 -18.9649 
-2.847 -4.2705 -1.756 -3.956 -2.0935 -6.648 
-7.061501 -5.7145 -5.3425 -6.0045 -9.481001 
-8.921 -6.435 -7.241 -14.1292 
-9.580501 -8.920501 -15.7679 
-12.1164 -17.4638 
-4.3055 -6.341 -2.8645 -2.847 -6.387 -1.756 -2.847 -4.2705 0 
-7.64 -8.7075 -4.6285 -9.932501 -8.238501 -4.6065 -7.061501 -4.2705 
-9.7805 -10.2985 -12.6928 -11.9462 -11.3864 -9.032001 -7.061501 
-11.3847 -18.3628 -14.7065 -15.0941 -15.8119 -9.032001 
-19.449 -20.3765 -17.8544 -19.5196 -15.8119 
