-4.759 
n/a 
n/a 
n/a 
n/a 
-4.759 
n/a 
n/a 
n/a 
n/a 
-4.759 
n/a 
n/a 
n/a 
n/a 
-4.759 
n/a 
n/a 
n/a 
n/a 
-3.693 -3.0835 -3.8725 -3.3165 0 
-6.940001 -5.134501 -7.783501 -3.3165 
-9.660501 -8.827001 -7.783501 
-13.4114 -8.827001 
-13.4114 
-3.693 -3.3165 -1.7695 -1.4985 -3.0835 -3.8725 0 
-6.666 -3.881 -2.7955 -3.535 -5.134501 -3.8725 
-7.315 -4.638 -5.171 -5.3195 -5.134501 
-7.8815 -6.782001 -7.73 -5.3195 
-10.054 -9.39 -7.73 
-3.693 -4.1555 -1.7695 -3.0835 -3.8725 
-7.6885 -4.988501 -5.301 -5.134501 
-8.256001 -8.415501 -8.4095 
-11.9058 -11.799 
-15.2893 
-3.693 -4.1555 -1.7695 -3.0835 -4.126 0 
-7.6885 -4.988501 -5.301 -5.856501 -4.126 
-8.256001 -8.415501 -8.6505 -5.856501 
-11.9058 -12.04 -8.6505 
-15.5303 -12.04 
