-4.759 
n/a 
n/a 
n/a 
n/a 
-4.759 
n/a 
n/a 
n/a 
n/a 
-4.759 
n/a 
n/a 
n/a 
n/a 
-4.759 
n/a 
n/a 
n/a 
n/a 
-1.4985 -7.575 -3.5965 -2.186 -3.2955 -1.934 -3.6115 -3.188 -3.8275 0 
-10.7175 -11.9199 -5.619 -4.348001 -4.2285 -5.603 -5.7875 -4.801 -3.8275 
-15.0624 -13.9424 -7.296 -5.3545 -8.434 -8.39 -5.8365 -4.801 
-17.0849 -15.6194 -8.89 -9.523001 -10.717 -8.496 -5.8365 
-18.7619 -17.2134 -13.2341 -11.9084 -10.7585 -8.496 
-20.458 0 -1.8085 -5.149 -3.8955 -3.9615 -1.4985 -3.2875 -1.7565 -6.2305 -1.934 -3.7745 -3.9465 
-11.3645 -1.8085 -5.830501 -7.957 -6.759 -4.716 -4.127 -4.3315 -7.764501 -8.5275 -5.196 -7.3655 
-9.942 -5.830501 -8.627501 -10.322 -7.429 -6.7385 -4.75 -9.136001 -9.227 -10.007 -7.9135 
-13.9694 -8.627501 -10.634 -10.992 -9.226001 -7.043 -9.3225 -10.1345 -10.6475 -10.021 
-16.7736 -10.634 -11.304 -12.789 -9.407001 -10.586 -10.2485 -11.563 -10.6695 
-1.934 -3.6115 -4.2875 -3.8275 -2.9645 -1.4985 -12.16972 -3.5965 
-5.603 -7.989501 -5.364501 -7.989 -3.957 -14.76202 -15.76622 
-10.8732 -8.425 -9.4875 -8.9305 -17.53972 -18.35852 
-11.3087 -12.8006 -10.576 -22.64502 -21.13622 
-15.6843 -13.8891 -24.29052 -26.24152 
-8.5255 -3.6115 -3.188 -3.8275 -1.7695 -4.2635 -3.135 -4.526 -8.530001 -4.161 -2.4945 -3.2955 0 
-12.0485 -5.7875 -4.801 -5.9455 -4.6145 -6.709001 -7.157001 -14.044 -12.8832 -6.052 -4.6305 -3.2955 
-13.6588 -5.8365 -7.2995 -9.2615 -7.068 -10.368 -17.298 -18.3972 -14.7742 -7.487 -4.6305 
-13.6643 -7.743001 -10.3475 -12.0296 -10.6465 -20.509 -21.6512 -20.2882 -16.2092 -7.487 
-15.2288 -10.3745 -13.1156 -15.6081 -20.7875 -24.8622 -23.5422 -21.7232 -16.2092 
