-4.759 
n/a 
n/a 
n/a 
n/a 
-4.759 
n/a 
n/a 
n/a 
n/a 
-4.759 
n/a 
n/a 
n/a 
n/a 
-4.759 
n/a 
n/a 
n/a 
n/a 
-3.5715 -2.7035 0 -1.4985 -12.16972 -2.229 -3.757 -5.571 -2.5195 -3.091 -3.275 -3.433 -1.7565 -4.0415 -4.6225 
-5.5965 -2.7035 -1.4985 -14.76202 -14.39872 -5.521 -8.360001 -6.3935 -4.8225 -6.0575 -6.776 -4.1845 -5.4955 -7.939 
-5.5965 -4.8545 -14.76202 -16.99102 -17.69072 -9.456 -9.5635 -7.269 -7.0015 -8.546 -7.8395 -8.1055 -9.048 
-7.5735 -18.33222 -16.99102 -20.28302 -21.62572 -10.7585 -10.3835 -7.8945 -9.1455 -9.065001 -11.9959 -12.071 
-21.52162 -20.56122 -20.28302 -24.21802 -22.92822 -11.5785 -11.009 -10.0215 -9.474501 -13.3618 -15.9614 
-3.5715 -4.642 -3.4635 -1.4985 -4.0415 -5.5335 -2.3335 -4.0875 -3.5015 -1.934 -12.16972 0 -3.757 -7.9175 -4.7215 -5.984 -6.925 -2.7415 -4.226 -2.5195 -3.519 0 
-6.4055 -9.107 -4.6325 -4.9725 -6.650001 -7.2495 -5.637 -5.143 -4.704 -15.11012 -12.16972 -3.757 -12.7215 -13.184 -11.2605 -9.897 -9.535501 -5.661 -4.796 -6.2055 -3.519 
-10.674 -9.594001 -8.2445 -7.505 -7.9015 -9.1215 -6.0175 -5.692 -18.38092 -15.11012 -15.92672 -12.7215 -17.988 -19.723 -15.1735 -13.0809 -12.455 -6.2765 -7.6875 -6.2055 
-11.161 -13.206 -8.779 -8.292001 -9.6975 -9.229501 -6.4845 -19.55492 -18.38092 -18.86712 -24.89122 -17.988 -24.527 -23.636 -18.3574 -16.0004 -13.0705 -8.3 -7.6875 
-14.773 -13.7405 -9.9005 -9.835501 -9.761001 -9.547501 -20.51622 -19.55492 -22.13792 -27.83162 -30.15772 -24.527 -28.44 -26.8199 -21.2769 -16.6159 -15.094 -8.3 
-3.5715 -2.7035 -3.757 -6.8725 -8.706 -5.984 -8.1455 -5.571 -3.433 -1.7565 -1.4985 -4.257 -4.6225 -1.934 -12.16972 
-5.5965 -7.356 -11.6765 -16.2701 -14.9006 -15.1309 -14.2959 -7.660501 -4.1845 -2.4195 -5.0245 -9.176001 -5.716001 -15.11012 
-9.583 -15.6807 -21.0741 -22.4647 -24.0475 -21.2813 -16.3854 -8.0245 -4.6515 -5.709001 -10.553 -10.3105 -19.67832 
-18.1213 -25.0783 -27.2687 -31.6116 -30.1979 -23.3708 -16.7494 -8.782001 -8.7325 -11.3999 -11.6875 -24.52362 
-27.5189 -31.2729 -36.4156 -37.762 -32.2874 -23.7348 -17.5069 -12.9608 -14.8738 -12.5344 -25.90062 
-3.5715 -2.7035 0 -3.5455 -1.4985 -4.257 -4.6225 -1.934 -5.0375 0 -3.757 -6.2425 -6.475 -6.9095 -8.1455 -2.8645 -3.1125 -5.246 -2.5195 -1.4985 -3.275 
-5.5965 -2.7035 -3.5455 -3.91 -5.0245 -9.176001 -5.716001 -7.1245 -5.0375 -3.757 -8.759501 -8.524 -8.3345 -8.6105 -9.984 -3.5345 -6.6295 -6.578 -3.1695 -4.7845 
-5.5965 -6.826 -3.91 -8.173 -10.553 -10.3105 -11.6927 -7.1245 -9.26 -8.759501 -8.965 -8.677 -8.632501 -10.238 -10.548 -7.148 -7.556 -6.9165 -6.444 
-9.59 -7.1085 -8.173 -14.2877 -11.6875 -16.538 -11.6927 -10.2755 -10.4515 -8.965 -8.996 -8.8255 -10.2485 -10.726 -14.1615 -8.005 -7.87 -9.1175 
-9.966001 -11.6089 -14.2877 -15.4222 -17.915 -16.538 -14.8437 -11.6178 -11.089 -8.996 -9.2405 -10.5865 -10.7265 -14.3395 -15.0185 -8.199 -10.2805 
