-4.759 
n/a 
n/a 
n/a 
n/a 
-4.759 
n/a 
n/a 
n/a 
n/a 
-4.759 
n/a 
n/a 
n/a 
n/a 
-4.759 
n/a 
n/a 
n/a 
n/a 
-3.0365 -2.186 -2.847 -4.2205 -3.498 -2.0935 -3.873 0 
-3.66 -4.1045 -7.039001 -7.9825 -5.785501 -5.872 -3.873 
-4.256001 -7.77 -10.6215 -10.111 -10.354 -5.872 
-7.785001 -11.7329 -13.2608 -14.9327 -10.354 
-11.7617 -14.3722 -18.0825 -14.9327 
-3.0365 -2.186 -2.847 -4.0005 -4.8925 -2.0935 -1.4985 -3.7075 -2.5045 -1.4985 -3.995 0 
-3.66 -4.1045 -7.2845 -7.97 -6.513 -2.9725 -4.6235 -6.5525 -3.583 -4.712 -3.995 
-4.256001 -7.9835 -11.8632 -9.473001 -7.211501 -6.442501 -6.752 -7.4995 -6.903501 -4.712 
-8.0175 -12.9454 -13.3662 -9.993001 -10.9487 -8.9285 -7.6785 -8.9065 -6.903501 
-13.0064 -14.4484 -13.8862 -14.1894 -13.4347 -10.078 -8.927 -8.9065 
-1.4985 -3.7075 -2.186 -1.8085 -4.02 -2.3085 0 -2.4285 -4.318 -8.409 0 -3.757 0 
-4.6235 -5.825 -3.164 -5.4725 -6.772 -2.3085 -2.4285 -6.432 -12.2715 -8.742001 -3.757 -3.757 
-5.975501 -7.0575 -7.4495 -8.583 -6.772 -5.7775 -6.432 -12.1425 -9.740001 -12.9787 -3.757 
-7.307001 -10.0215 -9.832001 -8.583 -9.925 -10.2645 -10.559 -10.559 -14.2675 -12.9787 
-10.0955 -10.069 -9.832001 -10.4675 -10.557 -10.58 -10.559 -15.5035 -14.2675 
-11.0235 -11.0555 -12.16972 -6.388 -12.16972 -9.778501 -11.0235 0 
-22.079 -23.22522 -18.55772 -18.92492 -21.94822 -20.8926 -11.0235 
-34.24872 -29.61322 -31.09464 -28.70342 -33.06232 -20.8926 
-40.63672 -42.15014 -40.87314 -39.81752 -33.06232 
-53.17364 -51.92864 -51.98724 -39.81752 
