-4.759 
n/a 
n/a 
n/a 
n/a 
-4.759 
n/a 
n/a 
n/a 
n/a 
-4.759 
n/a 
n/a 
n/a 
n/a 
-4.759 
n/a 
n/a 
n/a 
n/a 
-12.16972 -1.756 -12.16972 -2.4945 -1.4985 -3.699 -4.167 -1.7565 -2.3335 -3.5015 0 
-13.92572 -14.93432 -14.66422 -3.9315 -5.264 -7.2945 -5.5915 -4.314 -5.909 -3.5015 
-27.10404 -17.42882 -16.10122 -7.0825 -8.4175 -8.064 -8.6645 -7.0255 -5.909 
-29.59854 -18.86582 -19.25222 -10.389 -8.8015 -10.6465 -12.0226 -7.0255 
-31.03554 -22.01682 -22.55872 -10.773 -11.361 -14.0046 -12.0226 
-5.2 -1.756 -5.908 -4.4525 -4.167 0 
-6.8875 -7.951 -11.3911 -9.586 -4.167 
-8.7635 -13.7287 -16.5246 -9.586 
-14.7136 -18.8622 -16.5246 
-19.8471 -18.8622 
-5.2 -1.756 -5.908 -2.4945 -3.1435 -3.699 -4.167 0 
-6.8875 -7.951 -9.236501 -6.248 -6.5515 -7.2945 -4.167 
-8.7635 -9.863 -13.0052 -9.452001 -10.1265 -7.2945 
-10.442 -13.6317 -16.2092 -12.9882 -10.1265 
-14.2107 -16.8357 -19.7454 -12.9882 
-4.489 -3.9555 -1.756 -3.85 -4.7145 -2.4945 -3.1435 -3.699 -4.167 0 
-8.342001 -5.06 -5.8365 -8.309 -8.054501 -6.248 -6.5515 -7.2945 -4.167 
-10.4657 -10.4983 -10.8433 -12.247 -12.0714 -9.452001 -10.1265 -7.2945 
-15.904 -15.5051 -14.7813 -16.2639 -15.2754 -12.9882 -10.1265 
-20.9108 -19.4431 -18.7982 -19.4679 -18.8116 -12.9882 
