-4.759 
n/a 
n/a 
n/a 
n/a 
-4.759 
n/a 
n/a 
n/a 
n/a 
-4.759 
n/a 
n/a 
n/a 
n/a 
-4.759 
n/a 
n/a 
n/a 
n/a 
-4.5095 -2.186 -3.0465 -1.934 -3.922 0 
-6.3355 -6.316 -4.8825 -7.3215 -3.922 
-9.824 -7.9605 -10.586 -7.3215 
-11.4703 -13.965 -10.586 
-17.4748 -13.965 
-5.463 -3.7075 -3.7555 -3.6975 
-9.131001 -8.453 -7.987 
-14.5219 -13.0195 
-19.0884 
n/a 
-5.463 -3.9535 -1.7695 -5.362 -1.4985 -4.9405 0 
-10.2335 -5.098001 -6.619 -6.848001 -6.347501 -4.9405 
-11.528 -9.380501 -8.4505 -12.1692 -6.347501 
-15.8105 -10.7605 -13.8905 -12.1692 
-17.1905 -16.2005 -13.8905 
-1.4985 -7.647 -3.0465 -2.645 -5.112 
-8.7335 -11.2265 -4.8855 -7.946 
-12.575 -13.0655 -10.586 
-14.414 -18.766 
-20.1145 
