-4.759 
n/a 
n/a 
n/a 
n/a 
-4.759 
n/a 
n/a 
n/a 
n/a 
-4.759 
n/a 
n/a 
n/a 
n/a 
-4.759 
n/a 
n/a 
n/a 
n/a 
-1.4985 -3.1385 -1.756 -1.4985 -4.065 -3.5435 -3.321 -4.816 -2.3335 -2.985 -3.669 -2.7415 -4.225 -1.756 -4.4015 -1.7695 -4.2675 -3.277 0 
-4.2575 -4.6325 -3.0405 -4.824 -6.1265 -6.915 -7.8745 -5.693501 -4.917 -6.4735 -6.034 -6.2155 -5.6785 -5.6735 -4.6435 -4.8665 -6.432 -3.277 
-5.7255 -5.789001 -6.267 -6.2165 -9.0465 -11.8263 -8.7395 -8.056001 -8.136001 -8.0905 -10.054 -7.323 -10.001 -5.874001 -7.33 -6.802001 -6.432 
-6.463 -8.991 -7.678 -9.0655 -14.058 -12.6913 -11.2118 -11.3868 -9.092 -12.3707 -11.1615 -11.9535 -10.275 -8.762001 -9.5565 -6.802001 
-10.28 -10.001 -10.5854 -14.0774 -14.923 -15.1636 -14.5426 -12.3428 -13.3672 -13.4782 -15.792 -12.2275 -13.3486 -10.5745 -9.5565 
-2.872 -3.882 -4.065 -3.5435 -1.756 -3.237 -4.816 -2.985 -4.1635 -1.756 -5.6 -1.756 -4.3285 -2.5685 -2.985 -4.798 0 
-6.153501 -8.091001 -6.1265 -4.862 -4.7635 -8.5185 -7.298501 -6.8945 -5.5565 -6.606 -6.5185 -5.845 -6.828 -5.283 -6.6145 -4.798 
-10.717 -10.368 -7.392 -6.5185 -11.1218 -10.674 -11.6146 -8.326 -11.3575 -7.918 -10.733 -8.161 -9.697001 -8.458 -6.6145 
-12.994 -11.6335 -9.786 -13.8678 -13.2773 -14.9901 -13.0461 -14.2264 -12.6695 -12.4557 -13.049 -11.5028 -10.762 -8.458 
-14.2595 -14.0275 -17.2113 -16.0233 -17.5934 -16.4216 -18.9465 -15.5384 -17.2072 -14.7717 -16.3908 -12.5678 -10.762 
-3.882 -3.3785 -3.237 -1.756 -4.065 -3.5435 -5.5105 -2.985 -3.818 -1.756 -4.3655 -4.056 -5.314 -1.756 -4.3285 -2.985 -4.678 
-7.7685 -4.9495 -4.9395 -5.8995 -6.1265 -8.476501 -7.931001 -6.2215 -5.4255 -6.118 -5.959 -10.0965 -6.354 -5.845 -7.1895 -6.337501 
-10.7025 -6.3435 -9.901001 -8.356501 -9.943001 -11.5474 -9.887501 -8.2945 -8.8205 -6.99 -12.3491 -11.1861 -11.1184 -8.335501 -11.0066 
-12.0965 -11.442 -12.358 -12.3036 -12.9771 -13.5039 -12.2113 -11.9815 -10.647 -13.5623 -13.4387 -15.9505 -13.6089 -12.2042 
-17.195 -13.899 -16.3051 -15.3377 -14.9336 -15.8277 -15.8983 -13.808 -17.2193 -14.6519 -18.2031 -18.441 -17.4776 
-3.882 -1.4985 -4.065 -3.5435 -2.7415 -5.0545 -1.7695 -1.8085 -3.8685 -1.7695 -4.2675 -1.4985 -4.798 -4.17 -2.985 -4.835 -4.422 
-5.3145 -4.824 -6.1265 -5.902 -6.4785 -6.1045 -3.41 -5.120501 -5.2975 -4.8665 -5.025001 -5.6545 -8.740001 -6.747 -7.485 -7.3485 
-8.103001 -6.2165 -7.7935 -9.377001 -7.487 -7.773 -6.397501 -5.75 -7.9875 -5.5985 -8.787001 -10.9147 -11.5114 -11.862 -10.4909 
-9.280001 -7.809501 -11.4427 -10.1155 -8.951501 -10.1105 -8.303 -8.240001 -8.704 -9.010501 -14.0808 -13.6861 -16.6264 -14.8679 
-10.9334 -11.4685 -12.1812 -11.58 -11.3922 -12.016 -11.1388 -8.950001 -12.2404 -14.2743 -16.8522 -18.8011 -19.6323 
