-4.759 
n/a 
n/a 
n/a 
n/a 
-4.759 
n/a 
n/a 
n/a 
n/a 
-4.759 
n/a 
n/a 
n/a 
n/a 
-4.759 
n/a 
n/a 
n/a 
n/a 
-3.17 -1.7565 -1.4985 -3.5585 -2.4945 -3.3425 -1.4985 -3.5435 -3.8135 -3.3155 -3.301 -3.6045 -2.186 -3.672 0 
-4.179 -2.4195 -4.8755 -5.0345 -4.8005 -4.0125 -4.2755 -6.547 -6.4925 -6.894001 -5.5525 -5.5625 -4.538 -3.672 
-4.497 -5.725 -6.231 -7.443 -5.695 -7.707 -7.830501 -8.988001 -9.7215 -8.7045 -8.037001 -8.615001 -4.538 
-7.019 -7.1485 -8.463 -8.111501 -9.238501 -11.7726 -10.088 -12.3492 -11.755 -10.434 -10.3475 -8.615001 
-8.056001 -9.7615 -9.1225 -11.8466 -13.2711 -14.0301 -13.4492 -14.3827 -13.4845 -13.0087 -10.3475 
-4.4285 -1.7565 -1.4985 -3.5585 -2.4945 -4.9135 -1.934 -3.5435 -4.454 0 -3.7875 -3.299 -3.723 -1.7565 -3.4005 0 
-4.6405 -2.4195 -4.8755 -5.0345 -6.297501 -6.1235 -5.459 -7.205501 -4.454 -3.7875 -6.7005 -5.9405 -5.216001 -4.473 -3.4005 
-5.2 -5.725 -6.231 -7.646 -7.5275 -9.2185 -9.8465 -7.205501 -7.805 -6.7005 -10.01 -6.361001 -7.458 -4.473 
-7.4595 -7.1485 -8.601501 -8.492001 -10.2755 -14.088 -9.8465 -10.4345 -11.0454 -10.01 -10.693 -8.234501 -7.458 
-8.4475 -9.651001 -9.5565 -11.318 -15.1356 -14.088 -13.0755 -13.6749 -14.3549 -10.693 -12.5665 -8.234501 
-3.17 -1.7565 -1.4985 -3.5585 -6.1315 -1.4985 -3.5435 -3.8135 -1.756 -1.4985 -3.6045 -1.7565 -3.4005 -2.186 -3.074 -3.301 0 
-4.179 -2.4195 -4.8755 -8.878 -7.133 -4.2755 -6.547 -4.976501 -3.0405 -4.621 -4.455 -4.473 -5.4505 -4.156 -6.131001 -3.301 
-4.497 -5.725 -10.2755 -9.981001 -10.4035 -7.830501 -7.5715 -6.278501 -5.942 -4.7795 -6.4475 -6.4475 -7.3935 -6.614 -6.131001 
-7.019 -10.634 -11.3785 -13.2515 -13.9585 -8.856001 -8.708501 -8.887501 -6.0705 -6.6025 -7.9435 -8.377501 -10.275 -6.614 
-12.3086 -11.737 -14.649 -16.8065 -14.984 -9.665501 -11.4533 -8.9335 -8.0165 -8.081 -9.5295 -11.2826 -10.275 
-3.17 -1.7565 -1.4985 -3.5585 -3.6515 -1.7695 -6.0655 -3.8135 -3.098 -3.433 -1.4985 -3.6045 -1.7565 -1.4985 -3.833 -3.0365 -3.098 -3.301 
-4.179 -2.4195 -4.8755 -7.0735 -3.9135 -8.408501 -8.758 -6.938 -5.6145 -4.3795 -4.621 -4.455 -2.4195 -5.7675 -6.8605 -6.469 -6.061 
-4.497 -5.725 -8.463 -7.563 -11.4927 -10.341 -12.6723 -9.320001 -6.621 -7.3645 -4.7795 -5.1925 -6.3195 -8.508 -10.9014 -9.210501 
-7.019 -9.083001 -8.843 -15.5014 -13.4252 -15.1427 -15.0543 -10.3895 -9.298 -7.5385 -5.3475 -7.998 -8.866501 -12.7233 -13.6429 
-10.1945 -9.606501 -16.881 -17.4339 -18.2269 -17.5247 -16.1238 -13.4457 -9.7395 -7.93 -8.335501 -10.5635 -13.3104 -15.4648 
