-4.759 
n/a 
n/a 
n/a 
n/a 
-4.759 
n/a 
n/a 
n/a 
n/a 
-4.759 
n/a 
n/a 
n/a 
n/a 
-4.759 
n/a 
n/a 
n/a 
n/a 
-2.5645 -4.392 0 -12.16972 0 0 -6.5875 
-7.330501 -4.392 -12.16972 -12.16972 0 -6.5875 
-7.330501 -17.50432 -12.16972 -12.16972 -6.5875 
-21.13522 -17.50432 -12.16972 -18.75722 
-21.13522 -17.50432 -18.75722 
-2.5645 -4.392 0 -12.16972 0 0 -9.030001 
-7.330501 -4.392 -12.16972 -12.16972 0 -9.030001 
-7.330501 -17.50432 -12.16972 -12.16972 -9.030001 
-21.13522 -17.50432 -12.16972 -21.19972 
-21.13522 -17.50432 -21.19972 
-4.392 0 -6.5875 
-4.392 -6.5875 
-11.1355 
n/a 
n/a 
-6.9565 0 -12.16972 0 0 -9.030001 
-7.330501 -12.16972 -12.16972 0 -9.030001 
-21.13522 -12.16972 -12.16972 -9.030001 
-21.13522 -12.16972 -21.19972 
-21.13522 -21.19972 
