-4.759 
n/a 
n/a 
n/a 
n/a 
-4.759 
n/a 
n/a 
n/a 
n/a 
-4.759 
n/a 
n/a 
n/a 
n/a 
-4.759 
n/a 
n/a 
n/a 
n/a 
-1.4985 -4.442 -2.9705 -4.4035 -3.894 -3.849 -7.778501 -2.4265 -2.186 -1.934 -1.4985 -3.6885 -3.4425 -1.934 -3.3715 -4.0145 -3.849 -4.2085 0 
-5.455501 -6.582001 -7.033501 -6.9665 -7.6885 -12.653 -9.552 -3.292 -4.0835 -2.6125 -4.992001 -6.1715 -5.188 -4.622 -7.267 -7.736 -8.181001 -4.2085 
-7.5885 -8.0275 -9.612501 -11.0054 -16.7535 -14.5998 -10.578 -5.206 -4.6915 -6.152 -7.4855 -7.7015 -8.002501 -9.388 -11.5849 -12.364 -8.181001 
-9.1745 -11.2875 -13.9598 -20.0704 -18.5565 -15.2136 -12.3353 -5.7495 -8.335 -8.6215 -9.117001 -10.3345 -13.0385 -13.7967 -16.2129 -12.364 
-12.7891 -15.6348 -23.0248 -21.8734 -19.1703 -16.9711 -12.8123 -9.328 -10.9595 -10.155 -12.0362 -15.4555 -17.4472 -18.4247 -16.2129 
-3.354 -1.7565 -4.442 -2.9705 -4.7195 -3.894 -2.186 -3.849 -2.5045 -6.8725 -1.934 -3.6135 -4.1455 -2.645 -3.264 -1.7565 -4.442 -2.186 -3.849 -2.5045 -4.2085 
-4.273 -5.6725 -6.582001 -8.717501 -7.708 -6.205 -4.8565 -6.305 -10.2385 -8.691 -5.716 -8.568501 -7.3395 -6.818001 -3.6125 -5.6725 -6.6365 -4.8565 -6.305 -7.1 
-8.030001 -7.764 -12.9182 -11.9922 -10.3815 -8.425 -7.104 -14.3631 -12.253 -12.675 -11.3104 -11.9513 -11.8403 -6.996001 -6.9655 -7.6 -9.108001 -7.104 -11.0041 
-9.718 -14.1398 -16.1929 -14.6657 -12.6015 -10.5535 -15.2919 -16.1571 -16.3186 -18.4676 -14.6932 -16.4521 -12.0183 -10.553 -8.8915 -9.779 -11.4691 -11.9329 
-16.1652 -17.4145 -18.8664 -16.8857 -14.73 -18.7414 -17.0859 -20.2227 -22.0226 -21.8504 -19.194 -16.6301 -15.5753 -12.479 -11.1287 -12.2417 -16.298 
-3.3715 -4.0455 -2.4945 -4.3185 -1.8085 -3.5015 -2.186 -3.849 -4.2085 -1.756 -2.4265 -4.3185 -1.934 -3.6135 -3.5015 -2.186 -3.849 -4.8665 -4.2085 0 
-7.816001 -6.871 -8.551001 -5.34 -4.642 -5.481 -4.8565 -8.181001 -5.729001 -3.949 -6.7275 -6.8345 -5.716 -7.1185 -5.481 -4.8565 -8.628 -7.629001 -4.2085 
-10.757 -13.1973 -9.830501 -8.9265 -7.275001 -7.687 -9.384501 -9.8225 -8.074 -9.1225 -9.4575 -11.4753 -10.4505 -9.581 -7.687 -9.752001 -11.6155 -7.629001 
-17.0833 -14.4768 -13.417 -12.1123 -9.452001 -12.2056 -11.0354 -12.1675 -13.4609 -12.1127 -13.9083 -16.2098 -12.913 -11.8458 -12.5731 -12.8683 -11.6155 
-18.3628 -18.0633 -16.6028 -14.2893 -14.1396 -13.8565 -13.3804 -17.5544 -16.4511 -16.5635 -18.6428 -18.6723 -15.1778 -16.7319 -15.6894 -12.8683 
-1.4985 -4.442 -2.9705 -4.4035 -1.934 -3.2795 -2.4945 -3.849 -9.2145 -3.034 -4.442 -3.962 -1.934 -5.285 -1.934 -3.6885 -4.5435 0 -2.4265 -2.186 -3.849 -2.5045 -4.2085 0 
-5.455501 -6.582001 -7.033501 -5.6775 -5.671 -5.888 -5.410501 -13.2241 -12.4325 -7.5555 -8.522001 -4.8165 -6.706 -7.0835 -5.257 -7.594 -4.5435 -2.4265 -3.292 -4.8565 -6.305 -7.1 -4.2085 
-7.5885 -8.0275 -7.861501 -10.5975 -8.963 -8.5895 -15.0792 -16.4421 -16.954 -12.4301 -9.038501 -9.5175 -10.2085 -10.476 -9.087501 -7.594 -6.988501 -3.292 -5.872 -7.104 -11.0041 -7.1 
-9.1745 -9.128501 -13.0337 -13.8895 -11.7237 -18.3548 -18.2972 -20.9636 -21.8286 -12.9466 -14.0121 -13.0878 -13.601 -14.3065 -9.087501 -10.4505 -7.498001 -5.872 -8.048 -11.9329 -11.0041 
-10.163 -14.3901 -16.3257 -16.6502 -21.489 -21.5728 -22.8187 -25.8382 -22.3451 -17.9202 -17.5824 -16.4803 -17.4315 -14.3065 -12.4794 -10.96 -10.111 -8.048 -12.9051 -11.9329 
