-4.759 
n/a 
n/a 
n/a 
n/a 
-4.759 
n/a 
n/a 
n/a 
n/a 
-4.759 
n/a 
n/a 
n/a 
n/a 
-4.759 
n/a 
n/a 
n/a 
n/a 
-4.7475 -3.757 -3.4795 -2.186 -5.3055 -3.9525 -5.084 -3.1575 -5.3775 -3.4795 0 
-9.4895 -8.023001 -5.9865 -7.668 -8.6895 -8.9905 -7.1315 -6.896 -9.2935 -3.4795 
-13.9933 -9.992001 -11.429 -11.881 -14.1598 -11.399 -11.2438 -10.316 -9.2935 
-15.9623 -16.1895 -16.0212 -17.8754 -16.7765 -15.5113 -14.6638 -10.316 
-22.1598 -20.7499 -21.6122 -20.2839 -20.8888 -18.9313 -14.6638 
-4.7475 -2.871 -3.757 -3.193 -2.186 -9.827001 -4.449 -3.1575 -5.3775 -3.193 0 
-7.1355 -6.1185 -7.585501 -5.2605 -12.27 -14.272 -5.3685 -6.896 -8.067 -3.193 
-10.1855 -10.4265 -9.613501 -15.5263 -18.1184 -15.4311 -9.725201 -9.658001 -8.067 
-14.4935 -12.4545 -20.5569 -21.2997 -19.0379 -19.7878 -12.4872 -9.658001 
-16.5215 -23.3979 -25.8465 -22.2192 -23.3946 -22.5498 -12.4872 
-4.122 -1.8085 -3.972 -3.193 -1.756 -5.3775 -2.8965 -3.1575 -9.827001 -3.535 
-5.706 -7.109 -8.1005 -4.7435 -6.908 -8.9945 -4.4055 -12.2975 -13.358 
-11.5295 -11.7151 -9.4045 -10.8389 -10.9758 -10.038 -15.6286 -17.6407 
-16.1356 -13.0191 -16.4217 -14.9067 -12.0193 -22.2961 -20.4786 
-17.4396 -20.0363 -20.4895 -15.9502 -24.2774 -26.6717 
-6.6695 -3.757 -2.186 -4.7805 -2.3345 -5.3055 -3.9525 
-10.9575 -5.846 -6.4855 -6.764 -7.691501 -8.6895 
-13.0465 -10.7299 -8.444 -12.4095 -11.727 
-17.9304 -12.6884 -14.0277 -17.1313 
-19.8889 -18.2721 -18.7495 
