-4.759 
n/a 
n/a 
n/a 
n/a 
-4.759 
n/a 
n/a 
n/a 
n/a 
-4.759 
n/a 
n/a 
n/a 
n/a 
-4.759 
n/a 
n/a 
n/a 
n/a 
-3.5745 -5.4425 -6.5625 -4.532 -5.5965 
-9.3615 -7.282 -11.8905 -11.2311 
-10.576 -13.1488 -18.5896 
-17.6186 -19.8479 
-24.3177 
-4.532 -1.7695 -5.296 -8.881001 -6.5625 0 
-5.484 -6.671 -15.1988 -10.958 -6.5625 
-11.6145 -16.9282 -17.2758 -10.958 
-21.8717 -19.0052 -17.2758 
-23.9487 -19.0052 
-2.186 -5.4425 -6.5625 -9.655001 -4.6015 0 
-8.290501 -7.282 -17.0135 -14.4183 -4.6015 
-10.1555 -18.2718 -21.7768 -14.4183 
-21.1453 -23.0351 -21.7768 
-25.9086 -23.0351 
-2.7415 -5.4425 -6.5625 -3.687 -2.9905 -6.303 0 
-8.531 -7.282 -10.0645 -5.673 -9.174001 -6.303 
-10.6029 -10.5635 -12.0505 -10.459 -9.174001 
-13.8844 -12.5495 -16.8365 -10.459 
-15.8704 -17.3355 -16.8365 
