-4.759 
n/a 
n/a 
n/a 
n/a 
-4.759 
n/a 
n/a 
n/a 
n/a 
-4.759 
n/a 
n/a 
n/a 
n/a 
-4.759 
n/a 
n/a 
n/a 
n/a 
-2.3615 -3.468 -3.535 -3.9075 -8.821 -4.3245 -1.934 -3.5455 -2.5045 -5.749 -3.1715 -9.582001 -7.902 -1.756 -4.0225 -6.557 
-7.373 -7.38 -7.1675 -10.841 -13.7207 -6.4395 -4.8495 -6.2325 -8.8275 -7.3445 -14.0569 -17.5862 -9.551001 -5.6715 -12.0029 
-11.939 -11.7193 -14.6608 -15.7407 -15.8357 -9.27 -8.856501 -13.2039 -10.0345 -18.7575 -22.0611 -19.2352 -13.6863 -13.6117 
-16.2783 -19.2126 -19.5605 -17.8557 -18.6662 -13.5192 -16.4021 -14.4109 -21.4475 -26.7617 -23.7101 -23.3705 -21.6265 
-23.7716 -24.1123 -21.6755 -20.6862 -22.9154 -21.0648 -17.6091 -25.8239 -29.4517 -28.4107 -27.8454 -31.3107 
-5.1845 -5.74 -2.229 -3.8175 -3.9075 -7.400001 0 -4.4665 -2.5195 -10.105 -4.783 -4.06 -1.934 -3.5455 -5.749 -1.756 -4.79 -3.222 -1.4985 -3.1715 
-5.7465 -7.966001 -5.692 -7.149 -8.524 -7.400001 -4.4665 -6.247 -13.2981 -15.0544 -8.1675 -4.483 -4.8495 -8.137501 -7.3505 -6.485 -6.43 -3.7835 -3.994 
-7.9785 -10.733 -8.504 -12.6787 -8.524 -12.5663 -6.247 -17.5918 -18.2475 -18.4389 -8.443501 -6.680501 -8.525001 -9.351 -10.7175 -7.7745 -6.742001 -6.4225 
-10.733 -13.545 -14.4449 -12.6787 -13.9107 -14.3468 -17.5918 -22.5412 -21.632 -18.7149 -10.758 -10.4518 -9.7335 -12.841 -12.007 -7.9945 -9.3675 
-13.545 -19.4859 -14.4449 -18.0654 -15.6912 -25.6916 -22.5412 -25.9257 -21.908 -21.0294 -14.5293 -11.6603 -13.2789 -14.1305 -12.227 -10.752 
-1.934 -2.3615 -3.1715 -7.235 -2.186 -1.4985 -3.699 -5.8415 -3.5455 -5.749 -3.1715 -4.4545 -2.186 -3.8755 -2.264 -10.105 -4.147 -1.756 -4.79 -2.5195 -3.0365 0 
-3.539 -5.249 -11.7099 -8.9995 -3.339 -5.264 -9.740001 -8.616 -8.137501 -7.3445 -8.7165 -6.419 -5.2415 -5.377 -13.401 -14.4184 -5.971001 -6.485 -5.863 -5.2895 -3.0365 
-5.6405 -14.608 -13.4744 -10.3615 -6.9335 -10.372 -10.889 -11.3895 -10.0166 -13.4171 -10.3815 -9.814501 -6.6985 -17.7114 -17.7144 -16.2424 -9.1245 -8.1175 -8.769001 -5.2895 
-15.2721 -16.3725 -14.8364 -13.956 -12.6263 -12.1425 -14.6427 -13.7634 -16.0892 -15.0821 -14.0282 -11.4789 -20.1663 -22.0248 -19.5384 -19.3959 -11.2338 -9.842 -8.769001 
-17.0366 -17.7345 -18.4309 -19.6488 -14.3848 -16.626 -17.1582 -19.836 -17.7542 -18.7288 -15.6926 -24.9467 -24.4797 -23.8488 -22.6919 -21.5052 -12.9583 -9.842 
-1.4985 -3.699 -3.9075 -7.400001 -4.305 -2.5195 -12.16972 -4.0685 -1.756 -3.6955 -1.7695 -6.557 
-5.264 -7.947001 -8.524 -12.4048 -6.4645 -15.36282 -16.23822 -5.7015 -5.3915 -4.4705 -8.764 
-9.443501 -13.1767 -13.7492 -14.5643 -20.25622 -19.43132 -17.87122 -9.09 -6.275 -12.0824 
-14.6852 -18.4019 -15.9087 -28.35602 -24.32472 -21.06432 -21.25972 -9.554001 -14.3087 
-19.9104 -20.5614 -29.70042 -32.42452 -25.95772 -24.45282 -21.72372 -17.9485 
