-4.759 
n/a 
n/a 
n/a 
n/a 
-4.759 
n/a 
n/a 
n/a 
n/a 
-4.759 
n/a 
n/a 
n/a 
n/a 
-4.759 
n/a 
n/a 
n/a 
n/a 
-3.321 -8.445001 -3.9955 -1.4985 -4.219 -1.7565 -3.6825 -3.499 -4.219 
-12.6744 -13.1723 -5.0175 -5.129 -5.549 -6.070001 -6.273 -8.005501 
-17.4017 -14.1943 -6.9585 -5.878 -8.929501 -7.691501 -10.523 
-18.4237 -16.1353 -8.7825 -9.183001 -11.0708 -12.2145 
-20.3647 -17.9593 -12.2749 -11.4065 -15.5938 
-2.872 -1.934 -3.6825 -3.499 -1.7565 -4.5375 -4.304 -3.794 0 -7.5605 -3.9955 -2.356 -4.4285 -4.1855 0 
-4.659 -6.5925 -6.273 -4.306 -5.984001 -6.076 -6.991 -3.794 -7.5605 -10.932 -6.636 -7.2705 -7.7095 -4.1855 
-9.824 -9.452001 -7.904 -8.176001 -8.040501 -9.480501 -6.991 -12.4825 -10.932 -13.5725 -10.168 -9.232 -7.7095 
-12.6835 -11.266 -11.877 -8.700001 -11.6396 -9.480501 -16.1437 -15.854 -13.5725 -17.1045 -12.6699 -9.232 
-14.4975 -15.239 -12.401 -12.5037 -11.6396 -18.7682 -19.5152 -18.4945 -17.1045 -19.6064 -12.6699 
-2.872 0 -3.17 -1.7565 -5.831 -6.249 -3.499 -3.917 -3.741 -8.445001 0 
-2.872 -3.17 -4.179 -7.900001 -6.4665 -8.202 -7.22 -8.115001 -12.755 -8.445001 
-5.3695 -4.179 -11.6467 -8.2405 -8.410501 -12.302 -10.757 -17.1724 -12.755 
-5.822001 -11.6467 -11.9872 -10.071 -12.6851 -15.839 -19.8144 -17.1724 
-13.9587 -11.9872 -13.8177 -14.5178 -16.2221 -24.8964 -19.8144 
-2.872 -3.6825 -3.515 -8.445001 -7.259501 -4.037 -3.6065 -3.973 0 
-7.813001 -7.625 -13.0094 -16.4363 -12.0081 -7.954 -8.785501 -3.973 
-12.1669 -17.6564 -21.0007 -21.1849 -15.9251 -13.9326 -8.785501 
-22.1983 -25.6477 -25.7493 -25.1019 -21.9037 -13.9326 
-30.1896 -30.3963 -29.6663 -31.0805 -21.9037 
