-4.759 
n/a 
n/a 
n/a 
n/a 
-4.759 
n/a 
n/a 
n/a 
n/a 
-4.759 
n/a 
n/a 
n/a 
n/a 
-4.759 
n/a 
n/a 
n/a 
n/a 
-12.16972 -4.0905 0 -3.6885 -8.3985 
-16.26022 -4.0905 -3.6885 -13.2894 
-16.26022 -8.205 -13.2894 
-20.37472 -18.2791 
-30.44882 
-9.8555 -4.1455 0 -4.824 -3.6885 
-10.4855 -4.1455 -4.824 -8.060501 
-10.4855 -9.1155 -8.060501 
-16.0167 -12.7422 
-19.6434 
-4.1455 -2.3345 -8.066501 -2.356 -3.6885 -4.426 
-5.2685 -10.647 -11.1995 -6.4335 -6.1405 
-14.3596 -13.78 -15.277 -8.8345 
-17.4926 -17.8575 -17.678 
-21.5701 -20.2585 
-8.395 -4.1455 0 -3.6885 -4.894 
-9.389501 -4.1455 -3.6885 -7.875501 
-9.389501 -8.412001 -7.875501 
-14.066 -13.211 
-18.865 
