-4.759 
n/a 
n/a 
n/a 
n/a 
-4.759 
n/a 
n/a 
n/a 
n/a 
-4.759 
n/a 
n/a 
n/a 
n/a 
-4.759 
n/a 
n/a 
n/a 
n/a 
-3.5065 -4.06 -1.934 -4.255 -3.875 0 -1.934 -4.764 -4.2645 -3.982 0 -8.644 -1.756 -2.985 -5.709 -3.152 -3.0365 0 
-8.896 -4.483 -5.4475 -8.390501 -3.875 -1.934 -7.465 -8.755501 -8.785501 -3.982 -8.644 -10.0045 -4.2025 -7.9525 -7.929 -5.5585 -3.0365 
-9.479501 -8.085501 -9.281 -8.390501 -5.726501 -7.465 -11.8137 -13.5791 -8.785501 -10.254 -10.0045 -12.5126 -9.0755 -9.58 -10.6219 -5.5585 
-13.2078 -12.7096 -9.281 -10.126 -12.0363 -11.8137 -16.6373 -13.5791 -15.3571 -11.8367 -12.5126 -17.3856 -10.451 -12.3691 -10.6219 
-17.8319 -12.7096 -11.1433 -16.5248 -16.385 -16.6373 -16.6373 -20.1507 -16.9398 -14.3448 -17.3856 -18.7611 -13.2401 -12.3691 
-3.5065 -3.1435 -2.7415 -4.99 -1.934 -1.4985 -3.9785 -1.7565 -3.875 0 -3.982 -1.756 -4.489 -3.152 -1.934 -4.2645 -2.356 -1.4985 -7.7285 -3.959 0 
-5.4065 -7.1735 -6.748 -5.477 -2.6125 -4.496 -4.924 -5.1745 -3.875 -3.982 -5.4715 -6.4755 -7.953501 -4.9115 -6.7845 -5.9815 -3.1615 -5.063 -7.831501 -3.959 
-9.139501 -11.4634 -7.422501 -5.791 -4.783 -4.959 -8.041 -5.1745 -6.424 -5.4715 -6.951 -8.4545 -9.767 -8.9595 -7.1225 -6.634 -7.3945 -7.627501 -7.0825 
-13.7346 -12.1379 -7.777 -7.365 -5.0745 -8.066 -8.041 -8.384501 -8.189 -6.951 -8.915 -10.1635 -13.757 -9.068001 -7.532001 -9.818001 -10.3535 -8.087501 
-14.4091 -12.4924 -8.948001 -7.4055 -8.1105 -8.066 -9.916 -9.548 -9.387 -8.915 -10.5865 -14.1535 -13.8655 -9.448001 -11.8604 -12.8614 -9.5065 
-3.982 0 -4.489 -1.756 -2.985 -4.2645 -2.4945 -4.5905 -1.934 -3.7745 -4.6195 -3.433 -2.925 -3.152 -1.934 -3.7745 -3.355 -1.7565 -3.875 
-3.982 -4.489 -6.2105 -4.2025 -7.366 -7.3355 -7.284 -6.780001 -5.196 -7.3645 -7.7305 -4.511 -4.203 -4.9115 -5.196 -6.2975 -3.725 -5.1745 
-6.33 -6.2105 -8.964001 -8.679501 -10.1 -12.3396 -9.259501 -10.7674 -10.041 -10.304 -8.7305 -5.6655 -5.7635 -8.567 -8.422 -6.3705 -7.009 
-7.127 -8.964001 -13.5744 -11.6763 -15.2531 -14.3151 -13.4031 -15.6124 -13.3369 -11.304 -9.7955 -7.4085 -9.842501 -11.884 -8.495501 -9.028 
-10.646 -13.5744 -16.5712 -16.8294 -17.2286 -18.4587 -18.2481 -18.9083 -14.3369 -12.369 -11.5651 -11.7625 -13.1779 -11.9575 -10.041 
-2.5195 -3.875 -3.307 -4.39 -3.2795 0 -4.176 0 -4.489 -3.321 -2.8965 -3.6135 -4.39 -3.152 -3.918 
-5.8335 -7.985001 -9.526501 -7.811001 -3.2795 -4.176 -4.176 -4.489 -8.423 -6.6315 -6.196 -8.2775 -6.959001 -6.462501 
-10.4345 -15.0515 -13.0483 -7.811001 -7.808001 -4.176 -7.555 -8.423 -11.8895 -9.6475 -9.371 -10.575 -10.0505 
-17.911 -18.5733 -13.0483 -12.8903 -7.808001 -7.555 -12.3354 -11.8895 -14.9055 -13.0187 -11.8881 -13.6665 
-21.4328 -18.5733 -18.1276 -12.8903 -9.2065 -12.3354 -15.8019 -14.9055 -18.2767 -15.5358 -14.9796 
