-4.759 
n/a 
n/a 
n/a 
n/a 
-4.759 
n/a 
n/a 
n/a 
n/a 
-4.759 
n/a 
n/a 
n/a 
n/a 
-4.759 
n/a 
n/a 
n/a 
n/a 
-7.297 -2.674 -4.4925 -4.821 
-10.647 -8.0165 -9.616001 
-15.9895 -13.4248 
-21.3978 
n/a 
-3.436 -2.925 -3.2955 -1.7695 -4.1695 -1.934 -8.1475 -4.7005 -1.7565 -5.9835 
-5.0005 -5.588 -3.9425 -5.2185 -6.338 -9.441501 -10.3165 -4.764 -8.3995 
-8.3035 -5.948 -7.2125 -6.8615 -14.5253 -11.8375 -10.3785 -12.104 
-8.794001 -9.097 -8.5485 -15.334 -16.9213 -11.8995 -17.7185 
-10.6215 -10.1725 -17.519 -17.73 -16.9833 -19.2395 
-2.4265 -4.6015 -2.645 -3.264 -1.7565 -4.758 -5.572 0 
-6.066 -6.8395 -6.818001 -3.6125 -6.340001 -8.828501 -5.572 
-8.13 -11.8061 -6.996001 -8.269501 -10.199 -8.828501 
-13.1338 -11.9841 -12.1698 -12.3181 -10.199 
-13.3118 -17.1579 -16.2184 -12.3181 
-3.0465 -3.222 -1.4985 -3.539 -3.7575 -5.292 
-5.0985 -3.7835 -5.7965 -6.5305 -8.4685 
-5.6045 -8.1385 -6.842501 -11.8271 
-9.781 -10.074 -12.3723 
-12.1291 -15.9102 
