-4.759 
n/a 
n/a 
n/a 
n/a 
-4.759 
n/a 
n/a 
n/a 
n/a 
-4.759 
n/a 
n/a 
n/a 
n/a 
-4.759 
n/a 
n/a 
n/a 
n/a 
-3.6705 -1.4985 -5.5145 -1.7565 -3.5125 0 -2.7295 -2.7765 -3.6785 -2.3335 -1.4985 -4.435 -1.7565 -3.485 -5.1845 -3.1385 -3.251 -3.1125 -4.3155 -2.925 -3.402 -2.264 -3.1495 -4.385 0 
-4.5585 -6.633 -6.4645 -5.191 -3.5125 -2.7295 -4.065 -5.237 -4.529 -3.3515 -5.442 -5.090001 -5.1025 -9.513 -7.4095 -5.812 -4.28 -5.910501 -5.624001 -6.9745 -3.793 -4.869 -6.041 -4.385 
-9.880501 -7.043 -8.9505 -5.191 -6.2245 -4.065 -6.2145 -5.9615 -5.4365 -7.3625 -5.6825 -8.206 -10.4505 -11.7734 -9.742001 -6.7625 -6.7035 -6.693501 -9.948001 -7.0485 -5.9755 -7.497 -6.041 
-10.438 -9.2965 -8.9505 -7.462501 -7.6025 -6.2145 -6.645 -6.84 -9.783001 -7.673 -8.877501 -13.8536 -13.0925 -14.1059 -10.5665 -9.0465 -7.399 -11.5561 -9.985001 -9.2165 -7.8405 -7.497 
-12.6915 -9.2965 -11.3726 -8.724001 -9.462501 -6.645 -7.292 -11.2685 -9.959001 -10.9664 -14.5979 -16.4956 -15.425 -14.9304 -12.8505 -10.1675 -12.5526 -11.5931 -12.2116 -10.6605 -7.8405 
-2.9325 -3.874 -2.489 -1.4985 -3.5125 -2.229 -4.352 -5.5965 -5.1845 -4.9225 -4.2945 -3.898 -2.186 -3.402 -2.264 -1.4985 -3.7515 -3.2275 
-5.8685 -5.66 -3.9675 -4.7015 -6.116 -6.585001 -10.019 -11.753 -9.13 -8.834001 -8.935 -5.717 -4.6135 -3.793 -2.9195 -4.4675 -7.4345 
-8.995501 -7.058001 -8.0935 -8.314501 -10.0675 -12.5966 -16.5261 -15.6985 -13.1761 -13.7357 -10.9996 -8.012 -4.731 -4.34 -6.02 -7.507501 
-9.2675 -11.641 -11.7697 -12.4458 -16.0791 -19.1037 -20.4716 -19.7446 -18.0778 -15.8003 -13.2946 -8.096001 -5.172 -6.628 -8.955501 
-13.9259 -15.3172 -15.901 -18.4574 -22.5862 -23.0492 -24.5177 -24.6463 -20.1424 -18.0953 -13.3786 -8.661 -8.335 -9.0745 
-3.5125 -4.352 -2.4945 -3.6705 -2.7295 -4.1585 -2.3335 -1.4985 -3.4775 -2.229 -5.1845 -4.9225 -4.2945 -2.186 -5.095 -2.925 -1.4985 -3.7515 -4.814 0 
-8.27 -7.0225 -6.003 -5.2445 -6.2605 -5.438 -3.3515 -6.021501 -4.1725 -7.7055 -9.13 -8.834001 -6.1025 -8.657001 -6.3505 -4.202 -4.4675 -9.103001 -4.814 
-11.3845 -10.76 -8.5835 -9.39 -8.344501 -6.228 -8.4525 -6.698501 -9.920501 -12.1814 -13.1761 -10.4185 -13.1151 -10.0715 -7.992001 -7.7695 -9.264501 -9.103001 
-15.122 -13.3405 -12.7978 -11.5004 -9.113 -10.586 -9.02 -12.9803 -14.513 -16.2275 -14.7606 -17.4311 -14.5296 -12.0278 -11.8041 -12.8205 -9.264501 
-17.7025 -17.5548 -14.9082 -12.2689 -13.5404 -11.1535 -15.4318 -17.5728 -18.5591 -17.812 -21.7732 -18.8456 -16.4859 -15.8399 -16.8551 -12.8205 

n/a 
n/a 
n/a 
n/a 
