-4.759 
n/a 
n/a 
n/a 
n/a 
-4.759 
n/a 
n/a 
n/a 
n/a 
-4.759 
n/a 
n/a 
n/a 
n/a 
-4.759 
n/a 
n/a 
n/a 
n/a 
-4.832 -5.3225 -2.3615 -2.95 -2.645 -1.756 -2.645 
-11.1165 -7.6365 -4.4645 -5.8985 -4.776 -3.898 
-13.4305 -10.335 -7.207 -7.707 -5.009 
-16.129 -13.0775 -9.319 -7.7415 
-18.8715 -15.1895 -9.3535 
-2.5045 -2.3615 -2.95 -4.9115 -4.2655 -4.4755 -2.5685 -3.2295 
-4.3105 -4.4645 -8.513 -7.343501 -8.5795 -6.844 -4.661 
-4.89 -9.579 -11.2014 -10.647 -10.533 -7.0025 
-10.163 -12.3734 -14.5049 -12.6005 -10.664 
-13.072 -15.6769 -16.4584 -12.7315 
-3.5455 -2.3615 -3.8405 -3.098 0 -1.4985 -4.7875 -3.892 -4.4755 -3.2295 -2.645 
-5.013 -5.371 -6.6335 -3.098 -1.4985 -5.610001 -8.9055 -8.773001 -6.05 -6.2105 
-5.726 -8.063 -6.6335 -4.514 -5.610001 -9.530001 -13.9597 -9.606501 -7.9315 
-8.346001 -8.063 -7.9215 -8.9925 -9.530001 -14.6506 -14.7932 -11.431 
-8.346001 -8.745501 -12.5774 -12.9345 -14.6506 -15.4841 -16.6177 
-2.5045 -2.3615 -4.126 -3.098 -1.4985 -4.9115 -4.2655 -2.8645 -3.1125 -8.487 -4.4715 0 
-4.3105 -5.538 -7.323001 -4.514 -7.0705 -7.343501 -6.6745 -3.5345 -12.116 -14.6055 -4.4715 
-5.6785 -7.9945 -8.394501 -10.375 -8.5735 -9.6295 -7.475 -13.2732 -18.3803 -14.9671 
-8.068001 -8.9075 -14.2991 -11.878 -10.1985 -10.588 -17.5495 -18.8249 -18.3803 
-8.9565 -14.8305 -15.8021 -13.503 -11.157 -20.6625 -23.0896 -18.8249 
