-4.759 
n/a 
n/a 
n/a 
n/a 
-4.759 
n/a 
n/a 
n/a 
n/a 
-4.759 
n/a 
n/a 
n/a 
n/a 
-4.759 
n/a 
n/a 
n/a 
n/a 
-2.9805 -2.186 -1.4985 -4.693 -1.7565 -8.240001 -4.3225 -3.38 
-4.1635 -3.339 -5.528501 -5.195 -10.5535 -10.1305 -7.454 
-5.312 -6.1025 -5.778501 -14.3172 -12.444 -10.335 
-6.979001 -6.390501 -15.1885 -16.2077 -12.6485 
-7.1965 -15.9407 -17.079 -16.4122 
-2.9805 -4.306 -5.6305 -5.995 -4.3225 -1.8085 -3.8195 -3.8935 -3.86 -3.074 
-6.219501 -11.4401 -8.373 -10.119 -6.477 -5.3355 -6.133 -6.6435 -6.712 
-14.2616 -14.1826 -10.66 -12.2735 -8.564 -7.5245 -8.936501 -9.6955 
-17.0041 -16.4696 -12.8145 -14.3605 -9.718 -9.823501 -12.1181 
-19.2911 -18.6241 -14.9015 -15.5145 -12.7766 -13.0509 
-2.9805 -9.985001 -8.240001 -4.3225 -3.7955 -4.296 -3.3035 
-14.3679 -18.225 -10.1305 -7.382501 -7.5635 -7.937 
-22.6079 -20.1155 -13.6151 -11.8595 -12.1577 
-24.4984 -23.6001 -18.0921 -16.4537 
-27.983 -28.0771 -22.6863 
-2.9805 -2.8645 -3.9535 -1.8085 -3.8935 -3.3035 -4.281 -2.5045 -9.870501 -4.3225 
-4.3245 -5.669 -5.581 -5.6765 -5.7385 -6.907001 -5.893 -13.2924 -10.2865 
-7.181001 -6.703 -8.779 -7.172501 -9.0835 -8.6265 -17.0417 -13.7084 
-8.172001 -9.9665 -8.9355 -9.566501 -10.8568 -19.9494 -17.4577 
-11.5685 -10.258 -11.5617 -11.3534 -22.1797 -20.3654 
