-4.759 
n/a 
n/a 
n/a 
n/a 
-4.759 
n/a 
n/a 
n/a 
n/a 
-4.759 
n/a 
n/a 
n/a 
n/a 
-4.759 
n/a 
n/a 
n/a 
n/a 
-2.9805 -4.6485 -3.091 -3.5205 -4.235 -3.819 0 -1.934 -4.5255 -3.091 -4.235 -4.424 -1.934 -1.8085 -3.7425 -4.6105 
-5.994 -8.0555 -4.613 -6.772 -7.4965 -3.819 -1.934 -5.7045 -7.736001 -5.1065 -6.508 -5.195 -3.2685 -5.519 -6.7685 
-9.392501 -9.712501 -7.108 -9.606001 -7.4965 -5.237 -5.7045 -7.9855 -9.573501 -7.012 -7.293 -6.338 -7.028501 -7.410501 
-11.2647 -12.2075 -10.1425 -9.606001 -9.297 -9.302 -7.9855 -9.753 -11.613 -7.7425 -8.295 -8.408501 -7.664001 
-13.7597 -15.242 -10.1425 -11.5255 -13.3428 -11.688 -9.753 -11.8053 -12.3435 -8.719501 -10.304 -8.5255 
-3.986 -4.235 -4.424 -1.934 -4.5255 -2.5045 -3.7425 -4.6105 
-8.703501 -6.508 -5.195 -5.7045 -7.065001 -6.880501 -6.7685 
-11.4213 -7.293 -7.863501 -7.633501 -11.821 -9.986001 
-12.2063 -9.691501 -8.878 -12.6193 -14.9265 
-14.6048 -10.7856 -14.5032 -15.7248 
-3.986 -4.24 -3.091 -3.5205 -4.706 -3.098 -3.819 -1.756 -1.934 -4.5255 -3.091 -4.706 -4.424 -1.934 -1.8085 -3.7425 -4.6105 
-8.142 -6.25 -4.613 -7.8 -8.087501 -5.6375 -5.438 -4.0205 -5.7045 -7.736001 -6.035501 -7.177001 -5.195 -3.2685 -5.519 -6.7685 
-9.079 -8.063001 -8.4425 -10.7495 -10.281 -6.851 -7.667 -7.707 -7.9855 -11.0233 -8.212501 -8.121501 -6.338 -7.028501 -7.410501 
-11.4204 -12.1319 -11.391 -12.943 -11.4945 -8.455 -11.7637 -9.821501 -11.3544 -13.2003 -9.176001 -9.1 -8.408501 -7.664001 
-15.4893 -15.0804 -13.5845 -14.1565 -13.0985 -12.9847 -13.8782 -13.4134 -13.5314 -14.1638 -9.840501 -11.3727 -8.5255 
-3.986 -2.8645 -3.7285 -3.962 -3.091 -3.399 -4.235 -4.732 -3.1015 0 -1.934 -4.5255 -2.9805 -4.424 -1.934 -3.7425 -4.6105 
-5.6415 -5.096 -5.347 -6.517 -6.2115 -7.165 -8.595 -6.285501 -3.1015 -1.934 -5.7045 -6.814 -5.500501 -5.195 -6.2385 -6.7685 
-7.673501 -6.56 -7.921 -9.547501 -7.885 -11.8616 -10.586 -6.285501 -4.8375 -5.7045 -7.039001 -9.2615 -6.1885 -8.672001 -7.5965 
-9.986501 -8.744 -10.494 -11.3512 -12.8694 -13.8526 -10.586 -8.134501 -9.390501 -7.039001 -9.510501 -9.7145 -10.0573 -9.585501 
-12.3593 -11.4662 -12.2977 -16.3356 -14.8604 -13.8526 -12.435 -12.8389 -10.889 -9.510501 -9.9165 -13.5833 -10.9708 
