-4.759 
n/a 
n/a 
n/a 
n/a 
-4.759 
n/a 
n/a 
n/a 
n/a 
-4.759 
n/a 
n/a 
n/a 
n/a 
-4.759 
n/a 
n/a 
n/a 
n/a 
-4.961 -3.8875 -2.9705 -2.186 -1.934 -5.3885 -2.186 -1.4985 -3.6115 -4.4665 -3.8875 
-7.358001 -6.902 -3.89 -4.0835 -6.4035 -7.7415 -3.339 -4.081 -6.555501 -8.4715 
-9.9785 -7.323501 -5.7145 -9.22 -8.5155 -8.509001 -5.563 -6.8335 -10.7175 
-10.214 -9.128 -10.6215 -11.438 -9.576 -10.1545 -7.572001 -10.749 
-12.1889 -14.3026 -12.8395 -12.4985 -11.2215 -12.6919 -11.7097 
-5.3885 -2.229 -4.961 -3.8875 -2.186 -3.6115 -4.1735 -3.8875 -1.934 -3.188 0 
-7.854 -6.9405 -7.358001 -6.015 -5.979 -5.7235 -8.1455 -5.89 -5.387 -3.188 
-10.016 -9.786501 -9.2495 -9.692 -8.3995 -9.394001 -9.007 -9.632501 -5.387 
-10.0525 -11.8264 -13.2275 -12.3435 -12.3764 -9.813001 -13.0519 -9.632501 
-12.1664 -15.8044 -15.879 -16.3204 -12.7954 -14.2345 -13.0519 
-1.4985 -3.6115 -4.4665 -6.0515 -1.934 -1.4985 -3.188 -2.186 -9.630501 -1.934 -5.3885 
-4.081 -6.555501 -11.8642 -7.8105 -2.6125 -3.619 -5.1175 -13.0269 -11.6769 -6.4035 
-6.8335 -14.6196 -13.6232 -8.599 -4.377 -5.318 -16.4206 -15.0733 -16.1464 
-14.94 -16.3786 -14.4117 -10.4765 -6.01 -16.7273 -18.467 -19.5428 
-16.699 -17.1671 -16.2892 -12.1095 -17.5217 -18.7737 -22.9365 
-4.834 -3.6115 -4.4665 -3.8875 -2.186 -4.961 -3.8875 -4.06 -1.934 -5.3885 
-7.544 -6.555501 -8.4715 -6.015 -8.1385 -7.358001 -7.218 -4.483 -6.4035 
-9.504 -10.7175 -11.2216 -10.688 -10.2085 -10.443 -7.725 -8.426001 
-13.7748 -13.4676 -15.8946 -12.758 -13.2935 -10.7475 -12.0394 
-16.5249 -18.1406 -17.9646 -15.843 -13.598 -15.0619 
