-4.759 
n/a 
n/a 
n/a 
n/a 
-4.759 
n/a 
n/a 
n/a 
n/a 
-4.759 
n/a 
n/a 
n/a 
n/a 
-4.759 
n/a 
n/a 
n/a 
n/a 
-2.3615 -3.992 -2.186 -3.383 -4.079 -1.7695 -4.7135 -3.7015 -6.8335 0 
-6.0885 -5.739 -4.438 -5.4065 -5.261 -6.9455 -8.999001 -8.9455 -6.8335 
-7.0415 -7.7475 -6.259 -6.496 -11.3544 -11.493 -14.5434 -8.9455 
-9.502001 -10.1185 -7.1945 -12.7974 -15.9019 -17.0374 -14.5434 
-11.9134 -11.054 -13.6767 -17.3449 -21.4463 -17.0374 
-2.3615 -3.992 -4.809 -1.7695 -5.8025 -1.7695 -3.383 -4.079 0 
-6.0885 -8.595 -6.198 -8.498 -8.2515 -5.849 -5.4065 -4.079 
-11.7123 -9.781 -13.4593 -11.2254 -12.5876 -8.460501 -5.4065 
-12.8983 -17.1739 -16.1867 -15.5615 -15.1991 -8.460501 
-20.2912 -19.9013 -20.5228 -18.173 -15.1991 
-2.3615 -3.992 -2.7415 -3.7015 -4.176 -2.229 -6.978 0 
-6.0885 -6.505 -6.2755 -7.481 -6.807 -8.822001 -6.978 
-7.77 -8.866 -9.8695 -10.553 -14.0004 -8.822001 
-10.3884 -12.644 -13.1225 -17.7464 -14.0004 
-14.1664 -15.897 -20.3159 -17.7464 
-2.3615 -3.998 -3.2955 -3.383 -3.4915 -2.0935 -1.4985 -6.463 -4.6845 
-6.512 -8.599001 -6.371 -4.8075 -5.06 -2.9725 -9.6975 -12.0781 
-11.3094 -11.8329 -7.956501 -5.7585 -5.797 -11.4483 -15.4752 
-14.5433 -13.4184 -9.5565 -6.5005 -14.6946 -17.226 
-16.1288 -15.0184 -10.3515 -15.9993 -20.4723 
