-4.759 
n/a 
n/a 
n/a 
n/a 
-4.759 
n/a 
n/a 
n/a 
n/a 
-4.759 
n/a 
n/a 
n/a 
n/a 
-4.759 
n/a 
n/a 
n/a 
n/a 
-1.934 -3.458 -4.4675 -1.756 -3.3635 0 -3.6835 -3.898 -5.1905 -4.1175 0 -1.4985 -3.188 -4.221 -2.0935 -3.691 -2.186 -1.4985 -3.2825 -3.59 0 -3.4225 -4.39 -5.391 -5.2955 -4.958 -4.191 -3.5215 0 
-5.207 -6.769 -6.0795 -5.835 -3.3635 -3.6835 -6.150001 -9.739 -9.7235 -4.1175 -1.4985 -3.619 -7.6635 -6.081 -5.940001 -5.832 -3.339 -3.712 -6.7485 -3.59 -3.4225 -4.7525 -10.3165 -12.4101 -11.2993 -9.409 -5.777 -3.5215 
-9.805 -6.814 -8.2615 -5.835 -7.035501 -6.150001 -13.4658 -15.0828 -9.7235 -5.5765 -3.619 -7.821 -9.734 -9.7995 -8.071 -6.955 -4.8425 -7.114 -6.7485 -5.243 -4.7525 -10.634 -17.3356 -18.4139 -15.7503 -11.1598 -5.777 
-9.9645 -8.319 -8.2615 -10.0445 -9.418 -13.4658 -18.8096 -15.0828 -11.1557 -8.628 -7.821 -10.044 -13.4289 -11.9801 -9.228001 -8.6485 -7.735001 -7.114 -9.503 -8.66 -10.634 -17.6531 -23.3394 -22.8649 -17.5011 -11.1598 
-11.4695 -8.319 -12.5938 -12.468 -17.2022 -18.8096 -18.8096 -16.515 -14.2072 -13.234 -10.044 -13.7581 -15.6095 -13.1371 -10.9677 -9.3035 -7.735001 -9.759501 -12.5436 -14.7265 -17.6531 -23.6569 -27.7904 -24.6157 -17.5011 
-3.458 -4.4675 -1.7695 -3.3635 0 -3.9345 -1.7695 -7.5435 -3.898 -3.473 0 -3.691 -2.7415 -3.917 -2.6615 -3.5215 -2.5045 -1.4985 -3.2825 -4.1265 -1.7695 -3.511 -1.934 -1.4985 -3.188 -2.3345 -1.4985 -3.4225 -4.39 
-6.769 -6.188 -5.988 -3.3635 -3.9345 -3.94 -10.1385 -12.0539 -6.437 -3.473 -3.691 -6.588 -5.6245 -7.4385 -5.6825 -5.4595 -3.583 -3.712 -8.165501 -6.0045 -4.633 -4.582 -2.6125 -3.619 -5.536 -3.233 -3.9655 -4.7525 
-8.864 -8.1405 -5.988 -6.894 -3.94 -12.9098 -14.6489 -14.5929 -6.437 -8.014 -6.588 -9.150001 -9.147501 -9.634501 -7.0705 -6.77 -5.8065 -8.323501 -9.972001 -8.47 -5.375 -5.3785 -4.377 -5.807 -6.7815 -5.532 -5.0455 
-10.674 -8.1405 -8.5415 -6.897 -12.9098 -17.4202 -17.1879 -14.5929 -12.1734 -10.7335 -9.150001 -12.9284 -11.8081 -10.7515 -9.537001 -8.759001 -9.842 -10.0775 -10.4985 -9.153001 -6.1305 -7.1705 -6.456501 -6.932 -8.962501 -6.2125 
-10.674 -10.8966 -8.544001 -16.159 -17.4202 -19.9592 -17.1879 -20.3293 -14.8929 -13.2955 -12.9284 -15.589 -12.9251 -13.218 -11.5762 -12.9289 -11.5348 -10.708 -10.5525 -10.233 -7.6005 -9.499001 -7.433001 -9.031 -9.2305 
-3.458 -1.4985 -3.277 -4.4675 -1.756 -3.3635 0 -3.9345 -1.7695 -8.4185 -2.264 -3.6835 -3.898 0 -3.982 -12.16972 -2.6615 -3.5215 -2.5045 -3.691 -1.4985 -3.2825 -3.59 -1.934 -1.4985 -3.188 -1.7695 -3.511 
-4.063 -4.8015 -7.2215 -6.0795 -5.835 -3.3635 -3.9345 -3.94 -10.0475 -11.2893 -5.34 -6.150001 -3.898 -3.982 -17.66532 -14.83122 -5.6825 -5.4595 -6.571501 -5.5505 -3.712 -6.7485 -5.272 -2.6125 -3.619 -5.2365 -4.633 
-6.7965 -7.7335 -8.509501 -8.2615 -5.835 -6.894 -3.94 -12.8188 -13.5499 -14.3653 -8.205501 -6.150001 -8.036 -17.66532 -20.32682 -17.85222 -7.0705 -10.057 -8.1485 -7.642 -7.114 -7.614501 -5.747 -4.377 -5.3635 -7.3035 
-8.878 -8.739 -10.5535 -8.2615 -8.3085 -6.897 -12.8188 -16.3212 -16.6259 -17.2308 -8.205501 -11.7628 -22.23272 -20.32682 -23.34782 -19.24022 -12.4362 -11.7096 -10.6056 -9.534 -7.6675 -7.672501 -6.1975 -5.9995 -7.4985 
-9.017 -10.7025 -10.5535 -10.6595 -8.312 -16.068 -16.3212 -19.3972 -19.4914 -17.2308 -13.9713 -25.95952 -24.89422 -23.34782 -24.73582 -24.60592 -14.0888 -14.1667 -12.4976 -9.6475 -7.7175 -7.7005 -7.3075 -7.6895 
-3.5455 -1.4985 -3.8405 -2.5195 -4.4675 -1.7695 -3.3635 0 -3.402 -2.264 -1.4985 -3.6835 -3.898 -10.4975 0 -3.691 -2.7415 -4.536 -2.6615 -3.5215 -2.5045 -1.4985 -3.2825 -3.59 -1.7695 -3.511 -1.934 0 -2.3345 -1.4985 -3.4225 -4.39 -3.9235 0 
-3.91 -4.7545 -5.6585 -6.433 -6.188 -5.988 -3.3635 -3.402 -3.793 -2.9195 -4.7155 -6.150001 -15.6221 -10.4975 -3.691 -6.588 -5.6955 -8.1945 -5.6825 -5.4595 -3.583 -3.712 -6.7485 -5.3875 -4.633 -4.582 -1.934 -2.3345 -3.233 -3.9655 -4.7525 -7.3765 -3.9235 
-5.4455 -5.969 -8.098001 -6.727 -8.1405 -5.988 -7.002 -3.793 -4.34 -6.1695 -7.706501 -19.3489 -15.6221 -14.1885 -6.588 -9.231501 -9.6295 -9.852501 -7.0705 -6.77 -5.8065 -7.114 -7.991 -7.547501 -5.375 -4.582 -5.376 -3.233 -5.532 -5.0455 -7.396 -7.3765 
-6.642 -8.277 -8.249001 -8.337501 -8.1405 -9.002501 -7.0725 -4.34 -7.831 -9.522 -21.3952 -19.3489 -19.3131 -17.0855 -9.231501 -13.4035 -11.3183 -11.7901 -9.537001 -8.759001 -8.303 -8.158 -8.4715 -7.863501 -5.375 -7.785501 -6.2185 -5.532 -6.2125 -7.644 -7.396 
-8.925 -8.4215 -9.666 -8.337501 -10.6875 -9.0535 -7.7905 -7.831 -11.3813 -23.5735 -21.3952 -23.0399 -22.2101 -19.729 -13.4035 -15.0923 -13.2559 -14.2566 -11.5762 -11.3899 -9.596001 -8.823501 -8.604 -7.863501 -8.318501 -8.904 -8.918 -6.2125 -8.9005 -7.644 
