-4.759 
n/a 
n/a 
n/a 
n/a 
-4.759 
n/a 
n/a 
n/a 
n/a 
-4.759 
n/a 
n/a 
n/a 
n/a 
-4.759 
n/a 
n/a 
n/a 
n/a 
-1.8085 -3.6385 -4.361 -4.916 -7.3 -5.375 -4.6805 -1.7565 -3.949 0 -5.507 
-4.581 -7.8145 -7.6365 -13.208 -13.2776 -10.4451 -4.722 -5.8935 -3.949 -5.507 
-9.3925 -11.6598 -16.4371 -19.1856 -18.3477 -10.4866 -9 -5.8935 -7.794001 
-13.3434 -20.4604 -22.4147 -24.2557 -18.3892 -14.7646 -9 -9.1785 
-22.144 -26.438 -27.4848 -24.2972 -22.6672 -14.7646 -13.0676 
-3.6835 -5.0295 -4.486 -3.757 -1.4985 -4.486 -1.7565 -1.4985 -4.361 -4.916 -3.949 -1.756 -5.507 
-7.895501 -9.045 -7.6555 -4.9595 -5.5485 -5.308 -2.4195 -5.8175 -7.6365 -9.322001 -5.48 -6.343 
-12.176 -12.4349 -9.242001 -8.672001 -5.979 -5.989 -6.672 -8.344501 -12.5511 -9.6645 -6.995 
-15.5659 -14.0214 -13.0159 -9.106501 -6.6785 -10.9597 -9.244 -13.6423 -12.8936 -12.1813 
-17.1524 -17.7953 -13.4504 -9.556001 -11.722 -13.5317 -14.3218 -13.9848 -15.4104 
-1.8085 -3.6385 -5.0295 -2.186 -3.949 -5.3285 -4.142 
-4.581 -7.561 -6.8165 -7.416 -9.764 -9.634501 
-9.052501 -10.2435 -12.5283 -13.7328 -14.4144 
-11.9554 -15.9553 -18.8451 -18.3832 
-17.6672 -22.2721 -23.4955 
-3.6385 -4.5605 -1.756 -4.2305 -1.7565 -3.8315 -3.383 -3.469 -1.756 -4.1165 0 
-8.5425 -5.773 -6.1605 -5.3675 -5.5375 -7.571501 -5.41 -5.1025 -6.2195 -4.1165 
-9.185 -10.2135 -7.9355 -9.638 -9.5235 -10.0065 -6.7175 -9.660501 -6.2195 
-15.1063 -11.9987 -12.5424 -14.1106 -12.0635 -11.6302 -11.6361 -9.660501 
-16.8915 -16.6056 -17.015 -16.6506 -13.6872 -16.5488 -11.6361 
