-4.759 
n/a 
n/a 
n/a 
n/a 
-4.759 
n/a 
n/a 
n/a 
n/a 
-4.759 
n/a 
n/a 
n/a 
n/a 
-4.759 
n/a 
n/a 
n/a 
n/a 
-3.1495 -3.737 -7.746 -9.3245 -7.0205 -3.849 -8.5955 0 
-8.2985 -12.6564 -10.862 -16.4892 -10.2185 -12.6051 -8.5955 
-17.4133 -15.7724 -18.0267 -19.6872 -18.9746 -12.6051 
-20.5293 -22.9371 -21.2247 -28.4433 -18.9746 
-27.694 -26.1351 -29.9808 -28.4433 
-12.16972 -9.3245 -7.746 -2.186 -3.9205 -2.5045 -8.5955 
-21.49422 -17.2147 -9.702001 -4.9645 -4.449 -12.0174 
-29.38442 -19.1707 -12.5389 -5.539 -13.6927 
-31.34042 -22.0076 -13.1134 -15.2675 
-34.17732 -22.5821 -22.8419 
-3.1495 -3.9205 -2.5045 0 -8.5955 0 
-7.512501 -4.449 -2.5045 -8.5955 -8.5955 
-8.748501 -4.449 -12.0174 -8.5955 
-8.748501 -13.6927 -12.0174 
-18.0998 -13.6927 
-3.1495 -4.7615 -2.5195 0 -7.746 0 -9.3245 -4.122 -3.849 -3.098 -1.7565 0 -8.8655 0 
-9.4375 -8.243 -2.5195 -7.746 -7.746 -9.3245 -13.5907 -7.3595 -7.25 -4.3615 -1.7565 -8.8655 -8.8655 
-12.849 -8.243 -10.75 -7.746 -10.862 -13.5907 -16.8282 -11.1229 -8.666 -4.3615 -10.586 -8.8655 
-12.849 -16.8401 -10.75 -10.862 -15.1282 -16.8282 -20.5916 -12.5389 -8.666 -13.8394 -10.586 
-21.4461 -16.8401 -13.866 -15.1282 -18.3657 -20.5916 -22.0076 -12.5389 -18.1659 -13.8394 
