-4.759 
n/a 
n/a 
n/a 
n/a 
-4.759 
n/a 
n/a 
n/a 
n/a 
-4.759 
n/a 
n/a 
n/a 
n/a 
-4.759 
n/a 
n/a 
n/a 
n/a 
-3.1015 -1.8085 -3.4795 -2.645 -4.9225 -2.4945 -3.951 -7.708 -2.0935 -8.5955 
-5.0505 -6.392 -6.1205 -8.141001 -6.9525 -6.1485 -12.8562 -10.3965 -11.68 
-6.6635 -9.018001 -12.3223 -9.726501 -10.586 -15.7883 -15.5447 -19.983 
-9.092 -15.483 -13.9078 -13.4844 -20.2258 -18.4768 -25.1312 
-15.62 -17.0685 -17.6657 -23.1242 -22.9143 -28.0633 
-8.866501 -3.074 -3.3715 -3.881 -3.1435 -4.3955 
-12.2347 -6.0315 -7.7805 -7.804 -6.295 
-15.1922 -10.382 -12.2507 -10.703 
-19.5427 -14.8522 -15.1497 
-24.0129 -17.7512 
-2.3615 -2.95 -2.186 -3.3715 -3.499 -3.881 -2.264 -3.397 -4.3755 -2.264 -8.5955 
-4.4645 -4.817 -6.375501 -6.1545 -8.073 -5.5655 -6.43 -7.989 -6.8335 -10.9575 
-6.3795 -9.318001 -9.5755 -11.7201 -9.6715 -9.668 -11.5826 -11.063 -16.1232 
-10.2585 -12.6828 -15.1265 -13.3186 -13.6998 -15.3296 -14.6566 -20.3527 
-13.7379 -18.2338 -16.725 -17.3469 -19.3614 -18.4036 -23.9463 
-2.3615 -2.95 -3.074 -3.3715 -4.5355 -4.0385 0 
-4.4645 -6.227 -6.0315 -6.852 -8.061501 -4.0385 
-7.259501 -8.845 -9.861 -9.986501 -8.061501 
-9.848001 -12.8221 -13.0615 -9.986501 
-13.8335 -16.0226 -13.0615 
