-4.759 
n/a 
n/a 
n/a 
n/a 
-4.759 
n/a 
n/a 
n/a 
n/a 
-4.759 
n/a 
n/a 
n/a 
n/a 
-4.759 
n/a 
n/a 
n/a 
n/a 
-2.4265 -2.186 -4.2745 -2.3335 -1.4985 -3.4225 -4.0965 -2.186 -1.8085 -5.3715 -2.871 -2.4285 -1.8085 -5.8725 -3.5435 -1.756 -1.4985 -4.698 -1.934 -5.1045 -2.186 -1.4985 -3.5085 -4.0735 -1.7565 -1.4985 -3.4225 -4.0965 0 
-3.292 -6.047501 -7.449 -3.3515 -3.9655 -4.2 -6.4115 -3.164 -6.021501 -8.267501 -4.4275 -4.126 -6.606501 -8.533501 -4.862 -3.0405 -5.740001 -6.177001 -6.4855 -7.3325 -3.339 -4.4755 -8.0555 -5.2645 -2.4195 -3.9655 -4.2 -4.0965 
-7.581 -9.103001 -9.033001 -5.858 -5.179 -6.851 -7.353001 -7.3435 -8.595501 -10.361 -6.416 -8.997001 -9.0065 -9.767501 -5.71 -7.235 -7.238501 -8.574501 -8.253 -8.5725 -6.065 -8.989 -9.495001 -5.6325 -4.6245 -5.179 -4.2 
-10.4105 -10.335 -11.6485 -7.503 -6.9825 -7.5865 -11.9875 -9.689501 -10.564 -10.729 -12.2372 -11.5852 -10.111 -10.6245 -8.197001 -8.6555 -9.578001 -10.4105 -9.940001 -11.5473 -11.0231 -9.734501 -9.8865 -7.2115 -6.037 -5.179 
-11.6425 -12.9505 -13.2935 -8.472 -7.644 -12.6554 -14.3335 -11.6586 -10.932 -16.5502 -14.8254 -12.6897 -10.968 -13.1115 -9.472 -10.609 -11.4918 -12.0975 -12.9148 -16.5054 -11.7686 -10.0345 -11.4655 -8.52 -6.037 
-2.4265 -2.186 -4.6505 -2.3335 -3.4225 -4.0965 -2.186 -1.4985 -5.3715 -2.4285 -5.8725 -3.5435 -1.756 -5.1045 -4.698 -2.8645 -1.4985 -3.962 -4.9295 -3.2895 -2.0935 -1.4985 -3.4225 -4.0965 0 
-3.292 -6.0075 -5.5595 -6.791 -4.2 -6.4115 -3.339 -6.5205 -7.411 -7.845 -8.533501 -4.862 -6.8635 -7.608001 -6.5245 -4.3545 -4.324 -9.153001 -9.8125 -5.6595 -2.9725 -3.9655 -4.2 -4.0965 
-7.205 -7.906 -9.876 -8.460501 -6.851 -7.224501 -8.174 -9.157001 -10.4765 -10.4505 -9.767501 -9.514501 -10.089 -9.627001 -8.116 -7.3335 -9.236501 -14.2484 -12.2559 -6.543 -5.709 -5.179 -4.2 
-7.945 -12.1911 -11.5753 -9.121 -7.983 -12.7317 -11.0713 -12.2263 -13.082 -11.6845 -14.4186 -12.8996 -12.108 -11.2469 -11.6948 -12.487 -14.3501 -16.6918 -13.1394 -8.820001 -6.998 -5.179 
-12.2585 -13.8904 -12.2358 -11.2684 -13.7786 -15.629 -14.1406 -14.8318 -14.316 -16.3356 -17.8037 -14.9186 -13.7279 -14.8257 -16.8483 -17.6006 -16.7935 -17.5753 -15.4164 -9.832001 -6.998 
-3.4225 -4.39 -2.4945 -3.9785 -2.4285 -5.8725 -3.5435 0 -2.3615 -4.93 -3.7965 -2.5685 -3.2895 -1.7565 -3.641 -6.28 -4.698 
-4.7525 -6.3665 -7.1415 -6.541 -7.845 -8.533501 -3.5435 -2.3615 -8.253 -10.27 -5.4915 -3.4935 -4.9075 -5.457 -8.095501 -10.5975 
-7.699 -11.4521 -8.971001 -12.9533 -10.4505 -8.533501 -6.2665 -8.253 -14.044 -12.0978 -8.653501 -6.9285 -9.394501 -9.084001 -10.757 
-12.979 -13.2816 -15.9785 -15.5588 -10.4505 -10.622 -12.674 -14.044 -15.8718 -15.2598 -9.6215 -12.1131 -13.3485 -11.8181 
-14.8085 -20.2891 -18.584 -15.5588 -12.539 -17.0295 -18.465 -15.8718 -19.0338 -16.2278 -15.2865 -16.0671 -16.0826 
-2.4265 -2.7415 -4.6505 -2.3335 -1.4985 -3.5045 -2.7415 -1.8085 -7.1765 -2.4285 -1.8085 -5.8725 -3.5435 -1.756 -2.3335 -1.4985 -4.698 -1.934 -5.1045 -3.251 -4.4725 -3.5445 -1.4985 -4.6195 -1.7565 -1.4985 -2.985 -3.2785 -3.894 
-3.681 -6.5785 -5.5595 -3.3515 -4.4045 -6.6815 -3.891 -9.945001 -11.314 -4.126 -6.606501 -8.533501 -4.862 -4.016 -3.3515 -5.740001 -6.177001 -6.4855 -8.6145 -6.509501 -7.0085 -4.002 -5.557 -5.464 -2.4195 -4.1115 -4.88 -7.886 
-7.051 -7.462 -6.154 -6.5195 -6.9615 -8.172501 -11.875 -12.8792 -13.1952 -8.997001 -9.0065 -9.767501 -6.992001 -4.964 -7.1195 -7.238501 -8.574501 -9.793501 -11.886 -9.7095 -7.4195 -7.752 -6.015 -6.0085 -5.0205 -5.686501 -9.394001 
-7.4755 -7.9585 -9.430501 -8.1195 -8.333 -16.8153 -15.4054 -14.5562 -18.4834 -11.5852 -10.111 -11.8961 -7.8415 -9.0185 -9.29 -9.578001 -12.2191 -13.118 -15.086 -9.9585 -11.4349 -7.9685 -6.3585 -8.8085 -6.5395 -9.545 
-7.967 -11.2488 -10.7505 -9.396001 -17.017 -19.8145 -17.0824 -19.8444 -21.0716 -12.6897 -12.2396 -12.7456 -10.476 -11.4852 -11.7145 -13.3004 -15.5436 -16.318 -15.335 -13.9739 -11.6514 -8.120001 -9.165501 -10.6095 -10.9638 
