-4.759 
n/a 
n/a 
n/a 
n/a 
-4.759 
n/a 
n/a 
n/a 
n/a 
-4.759 
n/a 
n/a 
n/a 
n/a 
-4.759 
n/a 
n/a 
n/a 
n/a 
-1.934 -1.4985 -5.1875 -4.2655 0 -4.361 -5.633 -2.186 -4.6505 -4.9595 0 
-2.6125 -5.496 -7.408 -4.2655 -4.361 -6.104 -7.226 -6.0075 -8.1875 -4.9595 
-7.187 -7.738501 -7.408 -6.983 -6.104 -7.661 -11.4597 -9.4635 -8.1875 
-8.455501 -7.738501 -10.5261 -10.7175 -7.661 -12.0841 -14.9157 -9.4635 
-8.455501 -10.9702 -14.2606 -12.2745 -12.0841 -15.5401 -14.9157 
-2.3615 -3.452 -2.186 -3.881 -4.9595 -2.3345 -3.769 
-4.5465 -5.049 -5.3 -7.704 -7.085501 -5.517 
-5.4745 -6.856 -10.007 -10.7575 -10.123 
-7.23 -12.4572 -12.9983 -13.795 
-13.159 -15.4485 -16.0358 
-3.882 -2.3615 -5.1995 -3.3715 -1.7565 -3.277 -3.881 -4.9595 0 
-5.4545 -8.4975 -8.7845 -4.3215 -4.25 -7.331 -7.704 -4.9595 
-12.5789 -12.4947 -9.874001 -5.4255 -7.937001 -11.7098 -7.704 
-16.5761 -13.5842 -11.101 -8.6835 -12.6124 -11.7098 
-17.6656 -14.8112 -14.359 -13.6929 -12.6124 
-3.321 -2.4265 -2.7765 -6.2095 -2.3345 -3.3715 -4.3125 0 
-4.872 -4.346 -10.7178 -8.1225 -5.279 -8.2115 -4.3125 
-6.5795 -12.9323 -12.6308 -11.5098 -10.513 -8.2115 
-15.4268 -14.8453 -16.0181 -16.7438 -10.513 
-17.3398 -18.2326 -21.2521 -16.7438 
