-4.759 
n/a 
n/a 
n/a 
n/a 
-4.759 
n/a 
n/a 
n/a 
n/a 
-4.759 
n/a 
n/a 
n/a 
n/a 
-4.759 
n/a 
n/a 
n/a 
n/a 
-3.5155 -4.257 -5.663 -3.9535 -3.3425 -3.684 -4.2695 -1.7695 -4.834 -1.4985 -5.572 0 
-8.054001 -7.526 -9.528501 -5.968 -6.4795 -6.481 -5.457 -5.4245 -5.57 -6.444 -5.572 
-11.9442 -11.7539 -11.6668 -9.599501 -8.1385 -7.7945 -9.215 -5.994 -11.0993 -6.444 
-16.1721 -13.8922 -15.2983 -11.4175 -9.1955 -11.8035 -9.854501 -11.6549 -11.0993 
-18.3104 -17.5237 -17.1163 -12.4745 -13.3633 -12.443 -15.6638 -11.6549 
-3.2495 -3.515 -9.21 -3.013 -2.6165 -3.8185 -1.4985 -4.4715 
-7.153 -13.7744 -12.457 -3.724 -5.833 -4.662 -5.762501 
-17.9462 -17.0214 -13.168 -6.3275 -6.405 -7.3255 
-21.1932 -17.7324 -15.7715 -6.8475 -9.382 
-21.9042 -20.3359 -16.2915 -9.864501 
-3.2495 -3.515 -4.231 -2.4945 -2.6165 -4.446 -1.7565 -4.758 -4.546 -4.299 
-7.153 -6.1425 -5.8785 -3.8065 -5.7205 -4.7305 -6.340001 -9.088501 -8.630501 
-8.7045 -7.873 -7.242001 -6.2775 -5.8345 -9.5235 -11.3257 -13.245 
-10.4425 -9.471001 -9.023001 -6.383 -10.9127 -14.8404 -15.4822 
-12.0405 -11.2684 -9.067 -11.6696 -16.2296 -18.9969 
-3.5155 -3.7575 -5.6605 -3.013 -5.651501 -3.3785 -2.7455 -1.4985 -4.758 -5.572 -1.7695 -4.301 -1.4985 -3.4155 -4.4125 
-6.8825 -10.304 -8.387 -8.529501 -6.4335 -4.6985 -3.637 -5.7415 -8.828501 -7.4215 -4.541 -5.191 -4.4155 -7.498 
-13.7826 -13.0305 -13.5869 -11.0545 -9.464001 -5.497 -7.8765 -10.1855 -9.616001 -9.481501 -5.4225 -8.7075 -8.608 
-16.5091 -18.2304 -14.7074 -10.5085 -10.592 -9.469001 -12.6915 -10.973 -12.4244 -10.478 -8.910501 -13.189 
-21.709 -19.3509 -16.5479 -11.516 -14.378 -14.2632 -13.479 -13.7814 -13.4209 -13.966 -13.4144 
