-4.759 
n/a 
n/a 
n/a 
n/a 
-4.759 
n/a 
n/a 
n/a 
n/a 
-4.759 
n/a 
n/a 
n/a 
n/a 
-4.759 
n/a 
n/a 
n/a 
n/a 
-7.022 -1.4985 -6.933001 -5.1845 -4.245 0 -10.9655 -1.756 -8.4165 -7.556 -2.4945 -1.4985 -3.594 -4.367 -4.1455 -2.356 -4.405 -4.7255 
-7.573 -8.120501 -9.477001 -7.991 -4.245 -10.9655 -12.7215 -11.136 -16.2383 -10.634 -3.9315 -5.2345 -5.7105 -8.399 -6.085 -6.771001 -7.4725 
-14.5696 -10.513 -10.444 -7.991 -16.1763 -12.7215 -22.1015 -18.9578 -19.3163 -12.071 -7.4195 -8.734 -10.647 -10.0675 -9.245001 -10.195 
-16.9621 -11.48 -10.444 -20.2417 -17.9323 -22.1015 -29.9233 -22.0358 -20.7533 -15.559 -10.078 -12.3973 -12.3155 -13.2275 -12.9906 
-17.9291 -11.48 -22.6947 -21.9977 -27.3123 -29.9233 -33.0013 -23.4728 -24.2413 -18.2175 -14.5343 -14.0658 -15.4755 -16.9731 
-1.934 -9.804001 -4.245 -2.7295 -2.7765 -3.047 -4.1455 -2.356 -4.405 -3.942 -1.934 -9.907001 -1.756 -10.546 0 
-12.7444 -14.3064 -6.81 -4.065 -4.5075 -8.036 -6.085 -6.771001 -8.332001 -5.197001 -12.8474 -12.4106 -13.3106 -10.546 
-17.2468 -16.8714 -8.3155 -5.696 -9.876 -10.5425 -9.245001 -10.2235 -9.767 -16.7142 -15.351 -23.9652 -13.3106 
-19.8118 -18.3769 -9.675501 -11.1655 -12.4937 -13.7025 -13.0191 -11.8505 -21.3266 -19.2178 -26.9056 -23.9652 
-21.3173 -19.7369 -15.4004 -13.7832 -15.6537 -17.4766 -14.6461 -23.4101 -23.8302 -30.7724 -26.9056 
-1.934 -7.044 -5.1845 -6.05 -3.115 -9.907001 0 -10.546 -2.7295 -2.7765 -3.557 -4.1455 -2.356 -1.4985 -5.0415 -1.7565 -3.3195 
-9.215 -10.2815 -10.2385 -9.448 -13.7976 -9.907001 -10.546 -13.2755 -4.065 -7.158501 -8.3575 -6.085 -3.1615 -5.958 -6.159 -4.8675 
-12.6093 -15.8227 -13.6365 -20.2518 -13.7976 -21.2006 -13.2755 -14.611 -8.512501 -12.4448 -10.335 -7.207 -7.397 -6.4475 -8.481 
-18.1505 -19.2207 -24.4403 -20.2518 -25.0912 -23.9301 -14.611 -19.0585 -13.8622 -14.4223 -11.457 -10.4675 -7.7735 -8.6265 
-21.5485 -30.0245 -24.4403 -31.5454 -27.8207 -25.2656 -19.0585 -24.4082 -15.8397 -15.5443 -14.7175 -10.844 -9.791501 
-1.934 -5.1845 -4.245 0 -9.907001 -1.756 -10.546 -4.9405 -2.7765 -2.489 -4.236 -5.392 0 
-6.564 -7.991 -4.245 -9.907001 -12.4106 -13.3106 -15.4865 -7.7925 -3.495 -5.3765 -9.0915 -5.392 
-9.073501 -7.991 -15.1178 -12.4106 -23.9652 -18.2511 -18.3385 -8.065001 -5.5885 -9.742001 -9.0915 
-9.073501 -19.1832 -17.6214 -23.9652 -28.9057 -21.1031 -18.611 -10.5151 -10.114 -9.742001 
-20.3623 -21.6868 -29.176 -28.9057 -31.7577 -21.3756 -21.0611 -15.0406 -10.114 
