-4.759 
n/a 
n/a 
n/a 
n/a 
-4.759 
n/a 
n/a 
n/a 
n/a 
-4.759 
n/a 
n/a 
n/a 
n/a 
-4.759 
n/a 
n/a 
n/a 
n/a 
-9.242001 -13.038 -2.7455 -4.0215 
-22.772 -15.31 -7.3115 
-24.7 -20.411 
-29.801 
n/a 
-12.16972 -3.355 -2.7455 -3.6485 0 
-15.52472 -6.113 -6.5495 -3.6485 
-18.28272 -10.1945 -6.5495 
-22.36422 -10.1945 
-22.36422 
-9.242001 -4.126 -2.186 -3.644 -2.7455 -5.079 0 
-13.516 -5.985001 -6.868501 -6.078501 -7.408 -5.079 
-15.375 -10.9769 -8.733001 -11.1656 -7.408 
-20.3669 -12.8414 -14.1553 -11.1656 
-22.2314 -18.2637 -14.1553 
-12.16972 -6.8215 -4.6525 -1.4985 -3.6485 
-18.99122 -12.8742 -5.5135 -5.0065 
-25.04392 -13.7352 -9.772501 
-25.90492 -17.9942 
-30.16392 
