-4.759 
n/a 
n/a 
n/a 
n/a 
-4.759 
n/a 
n/a 
n/a 
n/a 
-4.759 
n/a 
n/a 
n/a 
n/a 
-4.759 
n/a 
n/a 
n/a 
n/a 
-1.934 -1.4985 -4.723 -4.219 -2.9805 -3.9955 -2.356 -1.8085 -3.6885 -4.4095 -1.756 -4.3195 -1.4985 -4.156 -4.328 -1.7565 -5.1845 -5.74 0 
-2.6125 -6.543 -9.0225 -6.663501 -5.513 -6.636 -3.4075 -4.3555 -6.9875 -6.2845 -5.563 -5.1515 -4.9965 -6.2095 -5.0935 -6.580501 -5.7465 -5.74 
-7.345 -9.3505 -11.6184 -8.469501 -7.887 -7.352 -5.658 -7.194 -8.314501 -9.948 -6.3685 -7.491 -6.746 -7.0935 -8.5175 -6.961501 -5.7465 
-9.883 -12.0288 -13.4244 -9.871501 -8.619 -9.7225 -8.736 -8.4255 -12.3532 -10.172 -8.495001 -8.889 -7.527 -8.547501 -8.524 -6.961501 
-12.5979 -13.8348 -14.8264 -10.613 -11.0713 -10.515 -9.861 -12.5512 -12.5772 -12.6869 -10.2745 -9.1895 -9.059501 -8.55 -8.524 
-1.4985 -4.219 -2.7415 -4.005 -1.934 -4.723 -1.934 -2.3335 -4.219 -2.9805 -3.9955 -1.756 -2.9805 -4.3195 -2.5045 -4.156 -4.328 
-5.129 -6.3585 -5.236 -4.808 -5.897 -6.6905 -4.359 -6.7335 -6.663501 -5.513 -6.33 -4.3555 -5.4865 -6.9885 -5.844 -6.2095 
-6.86 -7.305501 -5.8105 -8.6005 -7.3725 -8.9145 -7.5195 -8.7425 -8.469501 -7.785501 -8.0895 -6.8945 -8.146501 -10.6964 -7.9175 
-7.888 -8.043 -9.279 -9.9375 -9.634501 -12.576 -9.141001 -10.442 -10.3095 -8.8835 -10.3745 -9.001 -12.0926 -12.7699 
-8.907001 -11.8575 -10.4195 -12.2693 -13.3574 -14.1975 -11.0091 -12.282 -11.4075 -11.2955 -12.481 -13.2313 -14.1661 
-1.934 -4.723 -4.219 -4.687 -3.9955 -4.4285 -1.756 -2.9805 -4.3195 -1.8085 -4.432 -4.328 -1.7565 -6.557 
-5.897 -9.0225 -9.637501 -8.18 -8.657001 -6.411 -4.3555 -5.4865 -5.0655 -5.709001 -4.899 -5.0935 -7.653501 
-10.335 -14.5924 -13.1305 -12.8119 -10.757 -8.718 -6.8945 -6.0965 -8.2505 -6.8925 -6.046 -9.074 
-16.0941 -18.0854 -17.7624 -14.9119 -13.064 -10.634 -7.5265 -9.438001 -9.5135 -8.3345 -11.2595 
-19.5871 -22.7173 -19.8624 -17.2189 -14.98 -11.266 -10.646 -10.3295 -10.0655 -13.724 
-1.934 -4.723 -4.219 -2.9805 -3.9955 -2.3345 -1.8085 -4.3125 -4.4095 -1.756 -4.3195 -1.4985 -4.156 -4.328 -1.7565 -6.557 0 
-5.897 -9.0225 -6.663501 -5.513 -5.7745 -3.8605 -4.6875 -7.5335 -6.2845 -5.563 -5.1515 -4.9965 -6.2095 -5.0935 -7.653501 -6.557 
-10.335 -11.6184 -8.469501 -7.6565 -6.9015 -6.745 -7.5915 -8.683001 -9.948 -6.3685 -7.491 -6.746 -7.0935 -9.074 -7.653501 
-13.1201 -13.4244 -9.6955 -8.304501 -9.018001 -7.693 -8.698 -12.6455 -10.172 -8.495001 -8.889 -7.527 -9.129001 -9.074 
-14.9261 -14.6504 -10.1055 -9.7665 -9.1435 -8.7355 -12.6755 -12.8695 -12.6869 -10.2745 -9.1895 -9.415501 -9.129001 
