-4.759 
n/a 
n/a 
n/a 
n/a 
-4.759 
n/a 
n/a 
n/a 
n/a 
-4.759 
n/a 
n/a 
n/a 
n/a 
-4.759 
n/a 
n/a 
n/a 
n/a 
-1.934 -3.539 -3.0105 -1.756 -7.372 -2.8845 0 -3.6135 -4.9225 -2.4945 -3.918 -1.756 -4.35 -1.4985 -3.6135 -4.61 -1.934 -2.3335 -4.889 -1.756 -4.3075 -2.7415 -5.764 
-5.011 -4.7395 -5.199 -9.9035 -9.0165 -2.8845 -3.6135 -9.402 -6.9525 -6.31 -6.752 -5.724 -5.7345 -4.4525 -7.851 -6.294 -4.359 -7.599 -6.4655 -6.0265 -6.673501 -7.571 
-6.3455 -7.068501 -14.1551 -11.548 -9.0165 -6.457 -9.402 -11.4782 -10.322 -8.1215 -11.4838 -7.083 -9.612501 -8.433001 -9.0725 -8.8765 -9.381001 -9.122001 -11.43 -8.7495 -10.513 
-7.4385 -16.2866 -15.7996 -11.548 -12.7258 -13.0237 -11.4782 -14.8477 -12.1335 -13.0645 -12.8428 -11.1368 -13.683 -9.901001 -11.8732 -14.0443 -11.0434 -14.1341 -14.153 -12.6932 
-16.779 -17.9311 -15.7996 -15.2573 -19.2925 -15.0999 -14.8477 -16.6592 -17.0765 -14.4235 -16.8966 -15.2073 -15.151 -12.7699 -17.041 -15.7067 -16.0555 -16.8571 -18.0967 
-1.934 -3.539 -3.0105 0 -3.508 -2.8845 -4.9225 -3.918 -3.894 -1.756 -4.3035 -1.7695 -3.2345 -4.61 0 -2.5045 -2.3335 -2.95 -4.0085 -5.036 -1.4985 -5.3205 0 -6.95 -1.4985 -3.711 
-5.011 -4.7395 -3.0105 -3.508 -4.7045 -8.563 -9.2755 -6.265 -5.115 -5.6665 -4.6755 -3.713 -9.000501 -4.61 -2.5045 -4.744 -4.8245 -7.196 -8.903501 -6.7535 -6.593 -5.3205 -6.95 -8.479 -5.5565 
-6.3455 -4.7395 -5.0975 -4.7045 -11.1102 -13.3626 -10.2385 -7.5865 -8.406 -5.8595 -6.1115 -9.587501 -9.000501 -6.486 -4.744 -5.158 -8.851001 -12.5624 -11.7026 -10.5135 -6.593 -13.2337 -8.479 -12.7386 
-6.3455 -7.657001 -7.224 -11.1102 -15.9098 -14.3256 -11.7246 -10.485 -8.505 -7.2745 -12.3808 -9.587501 -11.0881 -8.828 -5.158 -9.139501 -14.255 -15.3615 -15.4626 -10.5135 -15.0166 -14.7627 -12.7386 
-9.795501 -7.859001 -13.8783 -15.9098 -16.8728 -15.8117 -14.6231 -10.509 -9.657001 -13.8012 -12.3808 -11.7427 -13.4301 -9.3325 -9.139501 -14.5541 -17.0541 -19.1215 -15.4626 -18.9371 -16.5456 -19.0223 
-3.1385 -4.3325 -1.7695 -3.2345 -1.4985 -8.862 -2.5045 -3.539 -3.0105 -1.756 -3.508 -5.389 -2.3335 -2.95 -4.0085 -3.6215 -3.4985 -1.4985 -3.8275 -2.0935 -3.3425 -4.2125 -4.889 0 
-7.9965 -6.028 -3.713 -4.328 -11.4543 -11.8835 -6.0275 -4.7395 -5.199 -6.0985 -6.1285 -6.548 -4.8245 -7.196 -5.2395 -8.161 -4.9685 -4.726 -5.976 -5.21 -7.296 -9.72 -4.889 
-9.595501 -7.1835 -4.717 -14.8206 -14.4758 -15.4065 -8.689001 -7.068501 -7.733001 -9.747001 -10.4425 -8.4095 -8.851001 -8.8715 -9.922501 -9.623 -8.7275 -6.648 -10.3815 -9.4335 -13.9511 -9.72 
-10.2605 -8.0175 -15.2864 -17.8421 -17.9988 -18.068 -10.2805 -8.7885 -9.771001 -12.258 -9.834001 -12.145 -10.5641 -13.8029 -11.5039 -13.382 -10.8733 -11.5009 -14.605 -15.9508 -13.9511 
-11.0945 -18.6527 -18.3079 -21.3651 -20.6603 -19.6595 -12.0005 -10.27 -12.9118 -12.8838 -14.0571 -14.1263 -15.4955 -15.3843 -15.2629 -15.5278 -15.7262 -15.7244 -21.1223 -15.9508 
-2.264 -3.539 -3.0105 -1.756 -3.508 -2.8845 -7.216001 -4.9225 -3.152 -4.465 -2.3345 -1.4985 -4.0085 -2.356 -1.4985 -5.152 -3.9545 -5.3205 
-4.87 -4.7395 -5.199 -6.0985 -4.7045 -10.8349 -12.9141 -7.4025 -6.9385 -5.2135 -3.233 -4.866 -6.739 -3.1615 -6.6215 -6.5165 -8.137001 
-8.216001 -7.068501 -7.733001 -7.696 -13.3821 -16.533 -15.3941 -11.4394 -7.3 -5.7335 -6.043 -7.314 -7.611001 -8.108001 -7.8615 -8.758 
-9.670001 -8.7885 -8.1195 -16.365 -19.0802 -19.013 -19.431 -11.8009 -7.814001 -8.903 -8.269 -8.095 -12.8865 -9.506001 -10.138 
-11.4614 -8.862 -16.8533 -22.0631 -21.5602 -23.0499 -19.7925 -12.3149 -10.533 -11.2318 -8.9585 -13.3879 -14.2845 -11.8041 
