-4.759 
n/a 
n/a 
n/a 
n/a 
-4.759 
n/a 
n/a 
n/a 
n/a 
-4.759 
n/a 
n/a 
n/a 
n/a 
-4.759 
n/a 
n/a 
n/a 
n/a 
-3.488 -11.876 -5.2775 0 -2.186 -1.8085 -7.8955 -4.202 -4.681 0 -3.0015 
-14.6726 -14.6001 -5.2775 -2.186 -3.164 -8.8315 -9.834001 -8.887501 -4.681 -3.0015 
-18.0561 -14.6001 -7.4055 -3.164 -11.2286 -11.5614 -14.5195 -8.887501 -8.460501 
-18.0561 -16.7281 -8.304501 -11.2286 -13.9585 -16.2469 -14.5195 -12.7828 
-20.1841 -17.6271 -16.6205 -13.9585 -18.644 -16.2469 -18.4148 
-3.488 -3.143 0 -5.112 -5.2775 0 0 -4.3685 -4.681 
-5.440001 -3.143 -5.112 -6.019001 -5.2775 0 -4.3685 -7.0985 
-5.440001 -8.8365 -6.019001 -6.019001 -5.2775 -4.3685 -7.0985 
-10.3745 -9.636001 -6.019001 -6.019001 -8.6645 -7.0985 
-10.4075 -9.636001 -6.019001 -8.6735 -12.1683 
-1.934 -3.488 -4.845 -5.112 -5.2775 0 -1.4985 -4.3685 -4.681 0 -3.0015 0 
-4.9205 -6.319 -10.543 -6.019001 -5.2775 -1.4985 -5.658501 -7.0985 -4.681 -3.0015 -3.0015 
-8.633 -12.784 -11.45 -6.019001 -6.4195 -5.658501 -8.271501 -7.0985 -8.460501 -3.0015 
-15.7388 -13.691 -11.45 -7.673501 -10.7495 -8.271501 -8.271501 -11.468 -8.460501 
-16.6458 -13.691 -13.1045 -12.6317 -13.3625 -8.271501 -12.9492 -11.468 
-3.488 -3.143 -5.112 -5.2775 0 -4.3685 -4.681 0 -3.002 
-5.440001 -8.8365 -6.019001 -5.2775 -4.3685 -7.0985 -4.681 -3.002 
-10.3745 -9.636001 -6.019001 -8.6645 -7.0985 -7.0985 -7.443501 
-10.4075 -9.636001 -8.6735 -12.1683 -7.0985 -10.6465 
-10.4075 -12.4109 -12.2205 -12.1683 -10.6465 
