-4.759 
n/a 
n/a 
n/a 
n/a 
-4.759 
n/a 
n/a 
n/a 
n/a 
-4.759 
n/a 
n/a 
n/a 
n/a 
-4.759 
n/a 
n/a 
n/a 
n/a 
-6.0775 0 -3.135 -1.7565 -1.4985 -10.6275 -4.269 -2.4945 -4.9445 -3.672 -3.8135 0 
-6.0775 -3.135 -3.9195 -2.4195 -9.656 -11.998 -6.0385 -6.4915 -8.332001 -5.506001 -3.8135 
-8.8125 -3.9195 -4.168 -10.658 -14.0756 -14.5851 -9.568001 -10.0885 -10.389 -5.506001 
-8.977501 -4.168 -13.3031 -14.8847 -15.9811 -18.1146 -13.4636 -12.1455 -10.389 
-10.019 -13.3031 -17.4282 -16.7902 -19.5106 -22.0102 -15.5206 -12.1455 
-5.269 -5.177 -4.269 0 -4.3705 -4.269 -2.4945 -3.958 -3.672 -3.4005 -3.9245 0 
-9.22 -8.4185 -4.269 -4.3705 -7.85 -6.0385 -5.478001 -8.200001 -6.6895 -5.9825 -3.9245 
-12.5983 -8.4185 -8.7925 -7.85 -9.217501 -9.818001 -9.351001 -11.5293 -9.856501 -5.9825 
-12.5983 -13.1232 -12.6072 -9.217501 -13.191 -13.8784 -13.1143 -14.6963 -9.856501 
-17.303 -16.9379 -13.9747 -13.191 -17.2514 -17.6417 -16.2813 -14.6963 
-4.263 -3.1385 -1.756 -3.135 -7.067 -2.4945 -3.958 -3.672 -3.8135 0 
-6.388 -4.6325 -4.5755 -9.759001 -9.8855 -5.478001 -8.200001 -5.506001 -3.8135 
-7.6555 -7.298501 -11.2827 -12.5775 -12.939 -9.351001 -10.007 -5.506001 
-9.876 -14.2791 -14.1012 -15.631 -16.812 -11.592 -10.007 
-16.9162 -17.0976 -17.1547 -19.504 -19.053 -11.592 
-3.135 -1.7565 -1.4985 -4.263 -4.9225 -1.756 -3.135 -1.7565 -1.4985 -4.485 -4.269 -2.4945 -4.318 -1.4985 -3.672 -4.328 
-3.9195 -2.4195 -5.314 -8.472 -6.156 -4.5755 -3.9195 -2.4195 -4.9985 -8.318001 -6.0385 -6.655 -5.394001 -4.936 -6.519 
-4.168 -6.199501 -8.877001 -10.6095 -9.145 -5.38 -4.168 -5.563 -9.450001 -9.918 -9.824 -7.56 -9.0205 -8.243 
-8.092501 -10.122 -11.3455 -13.5985 -9.8855 -5.6585 -8.776001 -9.786501 -11.151 -13.7035 -11.214 -11.4253 -12.3385 
-12.0644 -12.5905 -14.3345 -14.339 -10.1385 -10.2475 -13.0521 -11.5329 -14.9365 -15.0935 -15.0793 -14.7433 
