-4.759 
n/a 
n/a 
n/a 
n/a 
-4.759 
n/a 
n/a 
n/a 
n/a 
-4.759 
n/a 
n/a 
n/a 
n/a 
-4.759 
n/a 
n/a 
n/a 
n/a 
-3.845 0 -3.0835 -2.9775 -4.928 
-3.845 -3.0835 -5.4115 -7.925501 
-6.6555 -5.4115 -11.3127 
-10.0575 -11.3127 
-15.9939 
-3.999 0 -3.602 -1.7565 -3.0835 -2.9775 
-3.999 -3.602 -5.45 -5.237 -5.4115 
-8.672501 -5.45 -9.687 -7.574 
-9.857 -9.687 -12.3986 
-14.4056 -12.3986 
-3.74 0 -7.364501 -5.322 
-3.74 -7.364501 -13.3599 
-12.1025 -13.3599 
-18.0979 
n/a 
-3.581 -1.934 0 -3.473 -3.602 
-3.7885 -1.934 -3.473 -6.7115 
-3.7885 -6.3565 -6.7115 
-7.849501 -10.2576 
-12.924 
