-4.759 
n/a 
n/a 
n/a 
n/a 
-4.759 
n/a 
n/a 
n/a 
n/a 
-4.759 
n/a 
n/a 
n/a 
n/a 
-4.759 
n/a 
n/a 
n/a 
n/a 
-4.215 -4.5685 -3.152 -4.3895 0 
-7.9805 -7.1805 -5.911 -4.3895 
-10.4425 -9.164001 -5.911 
-12.426 -9.164001 
-12.426 
-4.215 -5.6265 -4.3505 -3.152 -4.3895 
-10.2815 -10.575 -7.328 -5.911 
-15.23 -13.5525 -9.181001 
-18.2075 -15.4055 
-20.0605 
-4.215 -5.778 -3.152 -3.43 0 
-8.9355 -8.507 -5.144 -3.43 
-12.0241 -10.575 -5.144 
-14.0921 -10.575 
-14.0921 
-3.2345 -1.4985 -10.4535 -5.305 
-4.328 -13.0458 -15.9803 
-16.4121 -18.5726 
-21.9389 
n/a 
