-4.759 
n/a 
n/a 
n/a 
n/a 
-4.759 
n/a 
n/a 
n/a 
n/a 
-4.759 
n/a 
n/a 
n/a 
n/a 
-4.759 
n/a 
n/a 
n/a 
n/a 
-3.488 -10.235 -8.2275 -3.193 
-15.5448 -18.4625 -9.8655 
-23.7723 -20.1005 
-25.4103 
n/a 
-3.488 0 -8.484 -8.2275 -3.193 
-3.488 -8.484 -17.1175 -9.8655 
-13.7938 -17.1175 -18.7555 
-22.4273 -18.7555 
-24.0653 
-3.488 0 -9.132 -3.3365 -4.4515 -7.6965 -3.193 
-3.488 -9.132 -9.8655 -5.861 -8.602001 -8.467501 
-10.634 -9.8655 -9.9265 -8.604 -8.654 
-11.3675 -9.9265 -9.961 -8.6555 
-11.4285 -9.961 -10.004 
-13.723 -3.3365 -4.4515 -3.193 0 
-18.8813 -5.861 -7.463 -3.193 
-21.4058 -7.817 -7.463 
-23.3618 -7.817 
-23.3618 
