-4.759 
n/a 
n/a 
n/a 
n/a 
-4.759 
n/a 
n/a 
n/a 
n/a 
-4.759 
n/a 
n/a 
n/a 
n/a 
-4.759 
n/a 
n/a 
n/a 
n/a 
-3.986 -2.674 -3.8535 -1.8085 -3.8175 -3.6615 -1.934 -1.4985 -5.4075 -3.9115 -2.3345 -3.737 -4.2905 -2.229 -3.6205 -1.7565 -5.538 -1.4985 -3.705 -2.0935 -1.4985 -3.1385 -3.0695 -5.49 -3.689 -3.1575 -3.2495 -6.4405 -5.8135 -1.756 -3.074 -5.949 -1.4985 -4.2695 -2.0935 -1.4985 -4.0225 -4.449 -3.689 -3.1575 -6.509501 
-6.8225 -4.9155 -5.448 -4.55 -5.9145 -4.437 -2.6125 -6.792001 -9.2335 -6.259 -5.275 -8.168501 -5.3455 -5.5065 -5.2835 -6.8195 -6.054 -4.925 -5.8915 -2.9725 -4.2575 -4.286 -7.086 -7.685 -4.168 -5.224 -8.6025 -8.493 -7.568 -4.566 -9.172501 -6.8865 -5.9895 -5.9605 -2.9725 -5.354 -5.6505 -8.371 -4.168 -6.696 
-8.785001 -6.0635 -8.068001 -8.781 -6.4075 -5.0245 -8.210501 -10.733 -11.7204 -8.837501 -9.9555 -8.508501 -7.2625 -6.8555 -11.1985 -7.2565 -8.910501 -7.2445 -6.5945 -5.5795 -5.1225 -9.970001 -8.459001 -7.769001 -5.8685 -10.0445 -10.3965 -10.7175 -9.820001 -10.2865 -9.7895 -11.9273 -7.5795 -6.541 -6.778501 -7.2025 -9.8785 -9.088501 -6.733 
-10.0815 -8.405001 -12.7918 -9.4215 -6.8975 -9.816 -12.3789 -13.2199 -14.2989 -13.5854 -10.59 -11.1521 -9.502001 -13.1965 -11.6355 -10.074 -11.8184 -7.732 -9.814 -6.4165 -11.0353 -11.343 -8.5195 -9.995501 -10.6345 -11.8793 -12.621 -12.9695 -15.6201 -10.759 -14.9365 -13.5173 -8.049001 -11.308 -8.1745 -11.9627 -10.302 -11.81 
-12.423 -13.5802 -13.4323 -9.780001 -11.995 -14.1262 -14.8658 -15.7984 -19.0468 -14.2199 -13.6052 -13.3916 -15.9302 -13.6335 -14.453 -12.9819 -12.3059 -11.3061 -10.3845 -12.6431 -12.4083 -11.4035 -10.8756 -15.2521 -12.4693 -14.1038 -14.873 -18.7696 -16.0926 -15.906 -16.5265 -13.9868 -13.1394 -12.704 -13.0831 -12.3862 -13.0235 
-3.986 -2.8645 -4.164 -1.4985 -3.4975 -3.705 -7.965 -1.756 -3.2345 -2.5045 -3.2495 -1.756 -3.957 -6.4405 -3.836 -2.645 -3.1575 -2.925 -4.1 -3.705 -1.756 -3.0465 -4.736 -2.264 -3.5905 -4.4915 
-5.6415 -5.1465 -5.1675 -4.3125 -7.0955 -13.2166 -9.544001 -4.5715 -6.201 -5.726 -5.2385 -5.5485 -9.569 -9.637501 -7.1755 -3.72 -5.244 -6.3345 -7.288001 -5.3065 -4.477 -8.296 -7.5205 -6.0865 -7.844 
-8.163501 -6.169 -8.316501 -7.7795 -17.7637 -14.7956 -12.6791 -7.627 -10.368 -7.8735 -6.9635 -10.111 -12.894 -13.1892 -7.595 -6.045 -7.8865 -9.368501 -8.870001 -8.192 -9.913 -10.674 -11.9792 -10.7654 
-8.8035 -9.275001 -12.1489 -19.3237 -19.3427 -17.9307 -15.7346 -12.2002 -12.5155 -9.599501 -12.6258 -13.436 -16.4457 -13.6087 -10.199 -8.338 -11.4787 -10.661 -11.9609 -14.2626 -12.4948 -15.1327 -16.6581 
-12.2561 -13.2546 -23.6931 -20.9027 -22.4778 -20.9862 -20.3078 -14.3477 -14.2415 -15.375 -15.9508 -16.9877 -16.8652 -16.2127 -12.492 -12.0158 -12.7712 -13.7519 -18.0315 -16.8444 -16.9535 -19.8116 
-3.986 -2.229 -4.1 -2.742 -3.0785 -1.4985 -4.0225 -3.4975 -4.449 -5.0855 -6.509501 -4.3515 -2.4285 -3.689 -2.742 -3.818 -4.2065 -2.985 -3.705 0 -3.9485 -2.356 -1.4985 -3.6075 -4.1 -4.3155 -2.3345 -8.0315 -2.9705 -2.742 -3.0785 -4.449 -5.0855 -7.066 -4.3515 -5.0285 0 
-4.8235 -6.1495 -6.281501 -4.6085 -4.869 -5.354 -7.5105 -6.1485 -8.7875 -9.1885 -8.107 -6.316 -4.762 -6.924 -6.0795 -6.449 -5.8125 -6.0435 -3.705 -3.9485 -4.311 -3.1615 -4.5495 -7.63 -8.541 -5.9085 -7.7 -9.348001 -4.601501 -4.6085 -7.2755 -8.7875 -9.388 -8.304 -8.1125 -5.0285 
-8.984 -8.4615 -8.3085 -6.071 -8.567 -8.39 -10.31 -10.4765 -12.1293 -11.136 -9.6505 -7.617 -7.313001 -10.411 -7.541 -8.157001 -7.905 -6.0435 -8.146501 -4.311 -4.981 -6.1285 -7.887 -12.4104 -10.3165 -11.0355 -11.0675 -11.003 -6.155 -8.5705 -12.3122 -12.6458 -11.632 -11.758 -8.1125 
-11.674 -10.335 -9.68 -9.684 -11.8322 -11.4809 -14.638 -14.0553 -14.7443 -12.1735 -10.636 -9.933001 -11.2068 -11.8725 -9.382 -10.2865 -7.905 -11.6588 -8.2805 -4.981 -8.127501 -9.2775 -12.861 -14.1859 -15.6107 -13.6253 -12.2437 -12.8409 -9.927501 -13.8688 -16.1705 -16.45 -16.1669 -11.9282 
-13.5475 -11.7065 -13.3328 -12.956 -14.9231 -15.8089 -18.2168 -16.6703 -16.2843 -13.3445 -13.0148 -14.0254 -12.6683 -13.7135 -11.5369 -10.2865 -14.6361 -11.7928 -8.922501 -8.127501 -11.3335 -14.3579 -14.6365 -19.4801 -18.0997 -15.466 -13.9044 -16.6134 -15.3266 -17.7271 -19.9747 -20.2777 -16.1669 
-3.986 -3.8565 -4.002 -2.8645 -4.168 -5.2185 -4.2695 -2.0935 -4.0225 -4.449 -2.356 -5.419 -1.7565 -3.325 0 -6.509501 0 -4.528 -1.4985 -3.2495 -1.756 -3.957 -3.836 -3.787 -4.2695 -3.2275 -2.3345 -4.2905 0 
-7.410001 -6.251 -7.2445 -6.235 -8.803 -8.3415 -5.9605 -5.8505 -5.6505 -6.406001 -6.488 -6.515 -6.165501 -3.325 -4.8065 -4.8065 -4.528 -5.071001 -4.1915 -5.2385 -5.5485 -8.741501 -7.167 -9.723001 -8.272 -5.7555 -6.535501 -4.2905 
-8.713 -8.786 -10.3345 -10.0885 -10.411 -9.7235 -9.137501 -6.6095 -7.7505 -9.288501 -7.438 -8.836 -6.165501 -6.900001 -4.8065 -9.992001 -5.071001 -9.0445 -6.481501 -6.9635 -10.749 -12.3727 -13.469 -13.8587 -11.3706 -9.9835 -6.535501 
-11.792 -11.9198 -14.188 -10.432 -10.439 -10.344 -9.1925 -8.6075 -9.5495 -9.915501 -9.382 -8.836 -8.846001 -6.900001 -9.992001 -10.602 -9.0445 -11.5515 -8.303 -13.2638 -14.3802 -18.6747 -17.6047 -16.9573 -15.5986 -9.9835 
-14.9258 -15.7733 -14.5315 -10.445 -10.452 -10.355 -10.1155 -9.953501 -10.0085 -10.4225 -9.382 -9.875 -8.846001 -12.5589 -10.602 -14.6443 -11.5515 -13.373 -14.9905 -16.895 -20.6822 -22.8104 -20.7033 -21.1853 -15.5986 
