-4.759 
n/a 
n/a 
n/a 
n/a 
-4.759 
n/a 
n/a 
n/a 
n/a 
-4.759 
n/a 
n/a 
n/a 
n/a 
-4.759 
n/a 
n/a 
n/a 
n/a 
-3.545 -1.7565 -4.3445 -2.8645 -2.645 -3.519 -3.1575 -1.4985 -3.545 -1.7565 -5.3 0 
-4.649 -5.633 -6.3995 -5.2085 -5.679 -6.317 -4.1355 -4.401 -4.649 -5.9935 -5.3 
-5.647 -7.9005 -8.943001 -7.4125 -6.740001 -7.0305 -7.304 -5.098001 -6.043 -5.9935 
-7.907 -10.3745 -10.674 -7.863 -7.3915 -9.502001 -8.246501 -6.307 -6.043 
-10.374 -10.6855 -10.7565 -8.415 -9.576001 -10.336 -9.267 -6.307 
-1.4985 -4.698 -3.251 -2.645 -3.519 -3.1575 -1.4985 -3.873 -4.3055 -5.1335 
-5.740001 -7.260501 -5.580501 -5.679 -6.317 -4.1355 -4.7405 -7.703 -10.9315 
-8.113001 -10.051 -7.9335 -6.740001 -7.0305 -7.706 -8.259501 -14.4852 
-10.9227 -12.3826 -8.443501 -7.3915 -10.5325 -11.429 -15.1545 
-13.2543 -12.8926 -9.142501 -11.0173 -14.7397 -18.324 
-5.831 -9.105 -2.8645 -3.93 -3.519 -3.1575 -5.6305 -7.1515 
-9.9725 -12.0699 -6.675 -6.335001 -6.317 -9.6665 -13.4392 
-13.0044 -15.8804 -8.9335 -8.0865 -13.333 -17.5398 
-16.8149 -18.1389 -9.5185 -15.2513 -21.2063 
-19.0734 -18.7239 -16.8359 -23.1246 
-8.160001 -4.4385 -2.4945 -3.7875 -3.3715 -4.0735 0 
-10.3225 -7.496 -5.3155 -6.787 -8.910001 -4.0735 
-13.38 -10.5745 -8.593 -12.5333 -8.910001 
-16.4585 -13.852 -14.4913 -12.5333 
-19.736 -19.7503 -14.4913 
