-4.759 
n/a 
n/a 
n/a 
n/a 
-4.759 
n/a 
n/a 
n/a 
n/a 
-4.759 
n/a 
n/a 
n/a 
n/a 
-4.759 
n/a 
n/a 
n/a 
n/a 
-5.3745 -3.5435 -3.4605 
-7.0985 -6.471001 
-10.4265 
n/a 
n/a 
-4.5065 -3.5435 -3.5025 
-8.0905 -7.0205 
-11.8793 
n/a 
n/a 
-1.4985 -3.915 -3.4605 -1.7565 -5.3745 -3.5435 0 
-4.5295 -5.1545 -5.245501 -7.016 -7.0985 -3.5435 
-5.748 -5.7 -9.430501 -9.124001 -7.0985 
-5.9175 -9.498 -12.2577 -9.124001 
-10.4425 -12.6558 -12.2577 
-4.426 -1.7565 -1.4985 -3.6115 -4.7285 -4.1555 -3.147 -3.5435 -1.7565 -4.5065 -3.4605 
-5.47 -2.4195 -4.081 -6.5495 -8.4455 -5.77 -7.3785 -4.9885 -6.2555 -7.948 
-5.9535 -5.180501 -6.670501 -9.978001 -9.541501 -10.195 -9.265 -7.5 -9.195001 
-8.462501 -7.797 -10.054 -11.0524 -13.9665 -12.0815 -12.0165 -10.9335 
-10.2375 -11.2985 -11.1648 -15.4774 -15.853 -14.833 -15.45 
