-4.759 
n/a 
n/a 
n/a 
n/a 
-4.759 
n/a 
n/a 
n/a 
n/a 
-4.759 
n/a 
n/a 
n/a 
n/a 
-4.759 
n/a 
n/a 
n/a 
n/a 
-7.425 -2.3335 -3.8235 -3.1495 -3.776 -3.331 -1.7565 -9.630501 0 
-10.5535 -6.001 -7.3525 -6.5125 -6.708 -6.303 -12.3362 -9.630501 
-14.221 -9.0255 -11.0895 -9.848001 -9.617001 -17.5061 -12.3362 
-17.2455 -13.1471 -14.425 -13.3668 -21.0095 -17.5061 
-21.3671 -16.4826 -17.9438 -24.7593 -21.0095 
-4.1145 -5.3285 -1.4985 -4.1145 -3.331 -3.2955 -2.0935 -5.1035 -1.7565 -3.1495 -3.9755 -1.7565 -4.2115 0 
-9.9628 -5.9025 -5.3525 -7.0605 -6.2375 -4.307 -7.636001 -5.786 -3.914 -5.5475 -4.312 -5.9335 -4.2115 
-10.5368 -10.4219 -7.9235 -9.540501 -7.2655 -10.4265 -8.481501 -7.749001 -6.348 -5.592 -7.627 -5.9335 
-15.0562 -12.9929 -9.737 -10.6131 -13.828 -10.773 -10.5645 -10.4585 -6.468 -8.565001 -7.627 
-17.6272 -14.8064 -10.7744 -17.1756 -14.1745 -12.856 -13.274 -10.4815 -9.384001 -8.565001 
-4.1145 -2.186 -1.4985 -6.25 -3.2955 -2.0935 -4.1145 -3.331 -2.0935 -4.2115 
-6.3365 -3.339 -6.9195 -9.364 -4.307 -6.874001 -7.0605 -4.973 -5.705501 
-7.6755 -8.7255 -10.1365 -10.8505 -8.7725 -9.338001 -8.7085 -7.9785 
-13.6578 -11.607 -11.6079 -15.7876 -11.9723 -11.4474 -12.173 
-17.0043 -13.374 -16.1262 -18.9874 -14.0817 -14.9119 
-1.4985 -3.8235 -4.1145 -4.612 -2.0935 -3.331 -4.1145 -2.9705 -4.2705 -1.934 -1.4985 -5.1035 -1.7565 -3.1495 -4.2115 0 
-4.53 -7.917 -9.6705 -5.441 -5.554 -6.6635 -7.2135 -5.831 -6.190001 -2.6125 -6.0895 -5.786 -3.914 -6.2675 -4.2115 
-7.993 -14.363 -9.901 -8.6715 -9.8485 -10.4035 -10.4035 -7.412001 -7.014 -7.2155 -6.146 -7.749001 -6.923 -6.2675 
-14.8552 -14.5935 -13.4713 -13.5198 -13.5885 -13.5935 -11.9845 -8.219001 -10.118 -7.254 -8.0745 -10.5225 -6.923 
-15.0857 -18.1638 -18.3196 -17.2598 -16.7785 -15.1745 -12.7915 -11.41 -10.1245 -8.912001 -10.9248 -10.5225 
