-4.759 
n/a 
n/a 
n/a 
n/a 
-4.759 
n/a 
n/a 
n/a 
n/a 
-4.759 
n/a 
n/a 
n/a 
n/a 
-4.759 
n/a 
n/a 
n/a 
n/a 
-4.426 -1.7565 -1.4985 -3.6115 -4.7285 -4.1555 -3.147 -3.995 -4.654 -1.7565 -1.8085 -4.365 -4.4155 0 -7.0495 -3.277 -4.365 -4.4155 -5.349 -4.4155 0 -3.5085 -4.365 -4.4155 0 -7.522501 0 -4.07 -2.3615 -6.0525 -4.3305 -3.277 -1.756 -4.0865 -3.277 -3.9785 -1.7565 -1.4985 -3.6065 -3.711 0 
-5.47 -2.4195 -4.081 -6.5495 -8.4455 -5.77 -7.914001 -7.856 -5.178 -3.2595 -5.928 -6.259 -4.4155 -7.0315 -10.0975 -7.7075 -6.259 -8.2165 -6.686501 -4.4155 -3.5085 -6.8455 -6.259 -4.4155 -7.522501 -7.522501 -4.07 -6.55 -9.824 -11.4678 -9.033001 -4.6195 -5.631001 -8.684 -7.583 -4.924 -2.4195 -4.8665 -7.134501 -3.711 
-5.9535 -5.180501 -6.670501 -9.978001 -9.541501 -10.3615 -12.1806 -9.377001 -6.008501 -6.6575 -7.378 -6.259 -12.9352 -8.9445 -13.7878 -10.4035 -9.039001 -8.706 -6.686501 -8.1555 -6.8455 -7.0075 -6.259 -13.4012 -7.522501 -12.4525 -6.55 -14.3653 -15.2661 -16.1703 -10.6885 -8.949501 -10.8451 -13.4346 -9.5845 -5.224 -5.668 -9.028501 -7.134501 
-8.462501 -7.797 -10.054 -11.0524 -14.133 -14.6281 -13.7016 -10.635 -9.0275 -8.3435 -7.378 -14.3467 -14.8482 -13.9456 -16.6416 -13.1835 -9.104 -8.706 -9.410501 -9.134501 -7.0075 -7.0075 -16.3507 -13.4012 -12.4525 -14.9325 -14.3653 -19.8074 -19.9686 -17.8258 -15.0185 -14.251 -15.5957 -15.4361 -9.640501 -10.195 -9.956 -9.028501 
-10.2375 -11.2985 -11.1648 -15.6439 -18.3996 -16.1491 -14.9596 -13.654 -11.8587 -8.3435 -15.9623 -16.2597 -19.8493 -16.6416 -19.4216 -13.2485 -9.104 -10.647 -10.3755 -9.1715 -7.0075 -17.6094 -16.3507 -18.3312 -14.9325 -22.7478 -19.8074 -24.5099 -21.6241 -22.1558 -20.32 -19.0016 -17.5972 -15.4921 -15.6723 -14.654 -9.956 
-2.3335 -3.0365 -2.186 -1.8085 -3.188 0 -2.5045 -4.5945 -2.5045 -5.2285 -1.756 -4.528 -3.8825 -1.7695 -2.4265 0 -1.934 -2.9705 -2.857 -5.6245 -3.882 -4.018 -3.1575 -5.43 -1.4985 -4.2635 -1.756 -1.4985 -5.6245 -1.7565 -2.8705 -3.515 -4.5635 -1.4985 -3.5065 -3.251 -3.0365 -3.1125 -1.8085 -3.188 -3.4765 -2.645 -3.8825 -1.7695 -5.2285 -1.934 -2.9705 -2.857 -5.6245 -3.882 -1.4985 -4.2635 -2.872 -1.4985 -5.6245 -1.7565 -2.8705 -3.515 -3.5725 -5.123 -1.4985 -6.6245 -3.1425 -2.674 -3.1125 -4.089 -3.034 -2.7295 -4.3845 -1.7565 -6.6245 -4.975 -2.7295 -4.3845 -1.7565 -2.9325 -2.186 -1.4985 -3.493 -1.934 -3.135 -3.768 -3.188 -2.4285 -4.834 
-4.2925 -3.66 -3.164 -4.8525 -3.188 -2.5045 -6.983001 -6.937 -6.5515 -6.475501 -6.216 -8.269001 -4.5575 -4.524 -2.4265 -1.934 -4.051 -6.254001 -7.8575 -9.321501 -8.4145 -4.2785 -8.453001 -6.204 -5.7815 -5.7325 -3.0405 -6.8555 -6.6975 -3.8505 -5.0815 -6.5125 -5.724 -4.3135 -6.733 -6.521501 -6.119 -4.4415 -4.8525 -6.539001 -4.7 -6.117001 -4.5575 -6.5105 -6.8665 -4.051 -6.254001 -7.8575 -9.321501 -4.821 -5.7815 -6.407001 -4.035 -6.8555 -6.6975 -3.8505 -5.0815 -7.093 -7.890501 -6.419 -7.227 -9.0415 -4.2225 -3.6315 -7.73 -6.8455 -4.536 -5.9145 -5.646 -7.860001 -9.554001 -7.126 -5.9145 -5.646 -4.416 -3.8335 -3.339 -4.207 -5.252501 -4.4015 -6.438001 -7.1235 -6.0275 -8.0935 
-4.7505 -4.218 -5.9125 -4.8525 -5.509 -6.983001 -8.188001 -11.712 -7.824501 -10.5975 -10.4035 -8.618001 -7.29 -4.524 -4.3385 -4.051 -7.027 -10.523 -11.8701 -13.851 -9.1645 -10.2865 -9.785001 -8.900001 -7.1035 -7.0585 -8.27 -7.3595 -8.9315 -6.275001 -9.0115 -7.610001 -7.243501 -7.057 -9.901501 -6.9405 -6.780001 -7.554501 -8.84 -7.953 -8.302501 -6.731 -7.1545 -7.8345 -8.4975 -7.027 -10.523 -11.8701 -10.311 -8.271 -7.6775 -7.5365 -9.210501 -7.3595 -8.9315 -6.275001 -8.867001 -9.6055 -9.015501 -12.6897 -9.318501 -9.750501 -4.8755 -7.9515 -9.874001 -8.771001 -6.749001 -6.6475 -12.2601 -10.264 -11.7422 -10.5728 -6.6475 -7.7155 -5.4605 -4.57 -5.429 -5.742001 -7.5035 -8.441001 -8.5515 -9.1005 -8.8725 
-5.2575 -7.082 -5.9125 -7.7485 -10.0345 -8.188001 -13.4824 -12.985 -12.0331 -14.785 -10.6865 -11.5017 -7.29 -6.0415 -7.2515 -7.027 -10.7565 -14.5356 -16.3996 -14.601 -15.2757 -11.6185 -12.481 -10.0995 -8.0625 -12.6242 -9.125 -9.541501 -11.4306 -10.6696 -9.918 -8.865001 -10.2584 -10.259 -10.1075 -7.603001 -10.238 -11.9782 -9.519 -11.8425 -8.5225 -9.2465 -8.286 -9.4505 -11.4863 -10.7565 -14.5356 -12.8596 -13.761 -10.4035 -8.644 -12.9416 -9.620001 -9.541501 -11.4306 -10.0885 -11.6193 -10.157 -15.425 -14.7812 -9.943501 -10.0155 -8.9075 -9.9505 -12.1317 -11.1314 -6.9005 -13.4392 -14.6641 -12.4522 -15.189 -11.3058 -8.795 -8.686501 -7.1285 -7.8485 -6.568501 -7.682 -10.6875 -8.796 -10.2815 -12.1485 
-7.902 -7.082 -9.4455 -12.2182 -11.5207 -13.4824 -14.7554 -17.1936 -16.2206 -15.068 -13.5702 -11.5017 -8.5155 -8.472501 -9.4505 -10.7565 -14.7691 -19.0651 -17.1496 -20.7122 -16.6077 -14.3145 -13.6805 -11.0585 -13.7522 -13.4792 -11.4278 -12.0672 -15.8252 -11.5761 -11.2796 -12.0871 -13.4604 -10.398 -10.8762 -10.5975 -14.6617 -12.6572 -13.4369 -12.0625 -11.2868 -10.4115 -9.759501 -12.5403 -15.2158 -14.7691 -15.5251 -16.3096 -15.8935 -11.37 -14.2281 -13.3511 -11.9108 -12.0672 -15.2441 -12.9638 -12.1708 -17.2331 -17.5165 -15.4062 -10.1275 -14.0475 -11.1279 -12.2928 -14.4921 -11.2829 -13.9246 -15.8432 -16.8523 -15.899 -15.922 -13.4533 -9.826 -10.1595 -9.2465 -8.9475 -8.262 -10.702 -10.726 -10.4765 -13.6119 
-3.995 -3.5765 -1.756 -4.739 -1.7565 -3.4625 0 -7.0495 -5.0285 -2.95 -2.871 -1.7565 -3.3365 -4.4695 -1.7695 -3.6065 -1.7565 -4.2895 0 
-7.8355 -5.365 -5.894 -5.4635 -5.1555 -3.4625 -7.0315 -11.4685 -8.386 -5.9425 -3.5385 -5.3655 -5.899 -6.528 -5.3625 -7.0225 -5.5605 -4.2895 
-10.185 -10.7916 -6.3185 -8.922501 -5.1555 -11.5521 -12.0115 -16.229 -11.9613 -6.502 -8.112 -8.129001 -7.566 -10.6875 -9.353001 -10.6335 -5.5605 
-15.9188 -11.2161 -9.534 -8.922501 -13.2877 -16.5321 -16.229 -19.8043 -12.5208 -11.4341 -10.2645 -10.298 -12.0491 -14.678 -13.1124 -10.6335 
-16.3433 -14.4316 -9.534 -17.1527 -18.2677 -20.7496 -19.8043 -20.3638 -17.4529 -13.5866 -12.5935 -14.7811 -16.0396 -18.4374 -13.1124 
-1.4985 -6.224 -4.4385 -3.074 -4.714 -4.287 -3.2295 -3.5215 -2.0935 -7.384001 -3.277 -2.4265 -2.186 -5.284 -2.264 -1.8085 -3.3365 -4.4695 -4.0325 -3.851 -1.7695 -7.522501 -2.4265 -2.186 -2.3615 -3.4625 -2.9705 -2.186 -4.107 -2.0935 -1.4985 -4.1755 -3.458 -1.8085 -3.757 -3.158 -1.756 -3.7685 -3.158 
-6.041 -9.794001 -7.5115 -6.6165 -7.058001 -6.995 -7.658 -5.3755 -9.441501 -9.6415 -5.4405 -3.292 -7.294001 -7.557501 -3.5925 -4.4295 -5.899 -8.1405 -7.849501 -4.0015 -9.967 -10.1595 -3.292 -4.4675 -5.4775 -6.3 -3.89 -4.93 -4.239501 -2.9725 -4.6635 -4.717 -5.0385 -5.3715 -8.2475 -4.703 -5.515 -8.141001 
-8.6735 -11.0495 -10.5975 -9.567 -9.343 -12.3505 -9.5745 -12.7255 -13.118 -12.239 -6.14 -8.420501 -8.856501 -8.2735 -6.0925 -7.3435 -10.155 -12.3867 -7.864501 -12.9138 -12.604 -10.6165 -5.796 -7.662001 -8.006001 -7.1265 -6.4455 -4.9675 -4.794001 -6.4875 -4.973001 -5.784501 -8.573 -9.624001 -10.0675 -9.297001 -9.8505 
-11.4842 -14.7129 -13.548 -11.9334 -15.2515 -14.267 -17.5127 -16.7503 -15.0445 -12.7375 -11.6889 -10.064 -9.762001 -11.2073 -9.3695 -12.0847 -14.6766 -12.4017 -17.0884 -15.5508 -13.061 -13.1205 -8.645 -9.713501 -8.7485 -10.2535 -6.4635 -5.5855 -7.824501 -6.9845 -5.898 -9.1385 -13.3889 -11.783 -14.7745 -13.8275 
-14.8602 -17.6634 -15.9144 -17.8419 -17.168 -22.2052 -21.0167 -18.6218 -15.543 -18.455 -13.3324 -11.1677 -12.7392 -14.4843 -14.4323 -16.6063 -14.6916 -21.6256 -19.7254 -16.0078 -15.565 -15.9695 -9.838 -10.37 -11.9715 -10.307 -7.088 -8.546 -8.222 -8.515 -9.229501 -14.0616 -15.5479 -16.49 -19.305 
