-4.759 
n/a 
n/a 
n/a 
n/a 
-4.759 
n/a 
n/a 
n/a 
n/a 
-4.759 
n/a 
n/a 
n/a 
n/a 
-4.759 
n/a 
n/a 
n/a 
n/a 
-11.1345 0 -5.7865 0 
-11.6833 -5.7865 -5.7865 
-14.9553 -5.7865 
-14.9553 
n/a 
-3.522 0 -12.16972 0 -5.7865 0 
-3.522 -12.16972 -12.16972 -5.7865 -5.7865 
-16.24052 -12.16972 -17.95622 -5.7865 
-16.24052 -17.95622 -17.95622 
-22.02702 -17.95622 
-3.522 -10.6645 0 -9.8175 0 
-14.7353 -10.6645 -9.8175 -9.8175 
-14.7353 -20.7562 -9.8175 
-24.827 -20.7562 
-24.827 
-3.522 0 -12.16972 0 -5.7865 0 
-3.522 -12.16972 -12.16972 -5.7865 -5.7865 
-16.24052 -12.16972 -17.95622 -5.7865 
-16.24052 -17.95622 -17.95622 
-22.02702 -17.95622 
