-4.759 
n/a 
n/a 
n/a 
n/a 
-4.759 
n/a 
n/a 
n/a 
n/a 
-4.759 
n/a 
n/a 
n/a 
n/a 
-4.759 
n/a 
n/a 
n/a 
n/a 
-5.3165 -4.8275 -2.0935 -4.221 -4.7135 
-10.7256 -8.740001 -6.522501 -9.386001 
-14.6381 -13.394 -12.2199 
-19.2921 -19.0914 
-24.9895 
-2.0935 -4.221 -4.971 -5.3165 -4.983 
-6.522501 -8.379 -10.443 -10.0285 
-9.892 -14.0336 -15.155 
-15.6246 -18.7456 
-20.3366 
-2.0935 -4.6945 -3.711 -3.0365 -2.4945 -5.3165 -3.5485 0 
-7.601501 -6.775001 -6.7405 -3.688 -9.2025 -9.214001 -3.5485 
-10.3088 -9.147001 -7.398001 -9.462001 -13.3536 -9.214001 
-12.6808 -10.224 -13.2554 -13.7709 -13.3536 
-13.7578 -16.0814 -17.5643 -13.7709 
-2.0935 -4.221 -4.971 -5.3165 -4.983 
-6.522501 -8.379 -10.443 -10.0285 
-9.892 -14.0336 -15.155 
-15.6246 -18.7456 
-20.3366 
