-4.759 
n/a 
n/a 
n/a 
n/a 
-4.759 
n/a 
n/a 
n/a 
n/a 
-4.759 
n/a 
n/a 
n/a 
n/a 
-4.759 
n/a 
n/a 
n/a 
n/a 
-3.3235 -3.9205 -1.7565 -3.2495 -7.4525 -4.179 
-4.8795 -6.207001 -4.5605 -11.757 -11.9673 
-7.3195 -9.211 -13.2016 -16.2718 
-10.6591 -18.0169 -17.7164 
-19.465 -22.5317 
-1.4985 -3.711 -1.7565 -7.4445 -2.9705 -2.4945 -3.3235 -3.9205 -2.4945 
-4.8355 -5.305 -8.527 -9.696001 -4.302 -5.2475 -4.8795 -7.026501 
-6.103 -13.2687 -11.1601 -10.624 -6.9785 -6.151 -7.702001 
-14.8755 -15.9018 -12.0881 -13.3005 -7.6125 -9.1815 
-17.5086 -16.8298 -14.7646 -13.9345 -10.0705 
-3.3235 -3.9205 -3.2495 -4.1145 -5.884501 -2.4945 
-4.8795 -7.762001 -8.4805 -10.703 -7.642001 
-8.5225 -13.247 -15.6038 -12.4605 
-14.0949 -20.3703 -17.3613 
-21.2182 -22.1278 
-3.3235 -3.9205 -3.2495 -4.1145 -4.49 
-4.8795 -7.762001 -8.4805 -9.342501 
-8.5225 -13.247 -14.2433 
-14.0949 -19.0098 
-19.8577 
