-4.759 
n/a 
n/a 
n/a 
n/a 
-4.759 
n/a 
n/a 
n/a 
n/a 
-4.759 
n/a 
n/a 
n/a 
n/a 
-4.759 
n/a 
n/a 
n/a 
n/a 
-5.693 -3.1385 -4.4715 -5.5465 -1.756 -4.1115 -4.73 -2.229 
-8.501 -6.842 -9.981001 -6.9495 -5.7375 -7.767 -6.478 
-12.3049 -12.9737 -10.499 -9.9585 -9.726 -10.637 
-18.4366 -13.4917 -13.508 -14.0226 -12.7036 
-18.9546 -16.5007 -17.5721 -17.0002 
-7.1525 -4.9225 -2.4945 -3.17 -1.7565 -5.5465 0 -1.756 -4.1115 -4.9225 
-12.6614 -6.9525 -5.279 -4.179 -7.4645 -5.5465 -1.756 -5.7375 -7.8225 
-14.6914 -9.696001 -6.928 -10.718 -7.4645 -6.9495 -5.7375 -9.5835 
-17.4349 -11.4016 -13.8312 -10.718 -8.797001 -9.9585 -9.5835 
-19.1405 -18.3048 -13.8312 -12.6809 -11.9086 -13.8801 
-3.17 -1.7565 -10.2775 -2.4945 -5.628 -1.756 -4.1115 -3.402 -3.1385 0 
-4.179 -12.9832 -12.8736 -8.2165 -6.6555 -5.7375 -7.0065 -7.662001 -3.1385 
-16.7299 -15.5793 -18.5956 -8.971001 -9.464001 -7.855 -11.8773 -7.662001 
-19.326 -21.3013 -19.3501 -11.8783 -11.7257 -12.8428 -11.8773 
-25.048 -22.0558 -22.2574 -14.14 -16.7135 -12.8428 
-3.17 -1.7565 -1.4985 -10.2775 -3.152 -5.628 -2.4285 -3.45 -4.589 -2.264 -1.4985 -4.1115 
-4.179 -2.4195 -10.7495 -13.5311 -8.052 -7.903501 -5.63 -7.716001 -5.1735 -2.9195 -4.843 
-4.497 -11.8613 -14.0031 -18.4311 -10.0155 -9.8015 -9.352501 -7.8875 -5.6275 -6.3165 
-14.4748 -15.1149 -18.9031 -20.3946 -11.9135 -13.6184 -9.488501 -8.687 -8.785501 
-17.7284 -20.0149 -20.8666 -22.2926 -15.7304 -13.7544 -10.705 -11.997 
