-4.759 
n/a 
n/a 
n/a 
n/a 
-4.759 
n/a 
n/a 
n/a 
n/a 
-4.759 
n/a 
n/a 
n/a 
n/a 
-4.759 
n/a 
n/a 
n/a 
n/a 
-5.593 -3.7855 -2.3345 -1.4985 -3.0835 -1.7695 -5.744 -3.7595 -5.031 -1.7695 -2.846 -3.972 -1.934 -4.7815 -1.7565 -4.4215 0 
-8.851501 -5.0075 -3.233 -3.535 -4.578 -7.733001 -8.268001 -8.396001 -5.172 -5.053 -7.5955 -5.598 -5.165 -5.2005 -5.693 -4.4215 
-9.340501 -5.5495 -5.7815 -4.658 -9.057501 -10.6314 -13.5347 -8.601001 -9.389501 -10.213 -9.092001 -9.7845 -5.2155 -10.322 -5.693 
-9.795 -7.797 -8.52 -9.539001 -12.0489 -15.8981 -13.7397 -12.9731 -14.5831 -11.7095 -13.5137 -9.798 -10.3285 -10.322 
-12.1513 -10.9649 -13.9832 -12.7492 -17.3156 -16.1031 -18.1118 -18.1667 -16.0796 -16.1312 -13.5272 -14.8752 -10.3285 
-2.5195 -3.0835 -10.939 -1.7695 -5.744 -10.939 -2.4945 -5.0355 -2.356 -2.846 -3.545 -1.934 -6.1155 -4.216 -2.742 -2.489 -5.0355 0 
-5.8835 -15.2327 -12.7085 -7.733001 -17.9618 -13.4335 -6.464001 -6.1725 -5.8195 -6.5675 -5.182 -8.177001 -7.7085 -7.044 -3.301 -6.0925 -5.0355 
-18.7327 -17.0022 -18.672 -20.3252 -20.4563 -17.403 -7.170501 -9.0175 -10.4035 -9.1 -11.8826 -10.459 -10.089 -7.64 -6.769 -6.0925 
-20.5022 -22.9657 -31.2642 -22.8197 -24.4258 -18.1095 -10.1813 -14.3173 -12.936 -15.7602 -14.1646 -12.8395 -10.7395 -11.4504 -6.769 
-26.4657 -35.5579 -33.7587 -26.7892 -25.1323 -21.1203 -15.4811 -16.8498 -19.5962 -18.0422 -16.5451 -13.49 -14.5499 -11.4504 
-1.4985 -3.509 -3.333 -2.5195 -1.4985 -3.0835 -4.2555 -1.7695 -2.846 -4.184 -4.2555 -5.6985 -1.4985 -3.4515 -1.7565 -1.4985 -5.2975 -9.914001 -1.7695 -2.846 -4.184 -7.3325 0 
-4.917 -6.3715 -4.781 -3.1695 -3.535 -5.8495 -6.391001 -5.053 -5.9665 -8.3915 -9.505501 -6.306 -4.432 -4.611 -2.4195 -7.075001 -16.5307 -11.8175 -5.053 -5.9665 -11.046 -7.3325 
-8.4375 -7.841001 -5.3865 -5.338 -5.959001 -7.9675 -10.1265 -7.731501 -10.7495 -13.6889 -9.826001 -9.3665 -4.8535 -5.1565 -8.1025 -19.1826 -18.4342 -15.101 -7.731501 -13.3887 -11.046 
-9.863001 -8.436001 -7.9715 -7.7045 -8.1295 -11.8766 -12.805 -12.9479 -16.0469 -14.0094 -13.0711 -9.665501 -5.329 -11.3301 -20.1883 -21.0861 -21.7177 -17.7795 -15.5871 -13.3887 
-10.154 -10.5325 -10.522 -9.167001 -12.081 -14.5551 -18.0214 -18.2453 -16.3674 -17.2545 -13.3701 -10.488 -11.653 -23.4159 -22.0918 -24.3696 -24.3962 -25.6351 -15.5871 
-3.0835 -4.126 -1.7565 -2.846 -4.184 -4.126 -1.7695 -3.6845 -3.509 -4.3895 
-5.856501 -5.221001 -5.0045 -5.9665 -7.836 -5.987 -4.2695 -6.4055 -8.7155 
-6.370501 -9.347501 -7.841001 -9.8675 -9.857 -8.080001 -7.338 -12.5836 
-10.678 -12.476 -12.3106 -11.9883 -12.053 -11.4087 -14.0189 
-13.8065 -16.9456 -14.4314 -14.1843 -15.3817 -18.0896 
