-4.759 
n/a 
n/a 
n/a 
n/a 
-4.759 
n/a 
n/a 
n/a 
n/a 
-4.759 
n/a 
n/a 
n/a 
n/a 
-4.759 
n/a 
n/a 
n/a 
n/a 
-4.5965 0 -10.4535 -9.8905 -10.1915 0 
-4.5965 -10.4535 -10.7665 -10.341 -10.1915 
-15.4402 -10.7665 -11.217 -10.341 
-15.7532 -11.217 -11.217 
-16.2037 -11.217 
-4.5965 0 -10.429 -12.16972 -10.1915 
-4.5965 -10.429 -22.96892 -22.36122 
-15.4157 -22.96892 -33.16042 
-27.95562 -33.16042 
-38.14712 
-4.5965 0 -10.4535 -9.8905 -12.16972 0 
-4.5965 -10.4535 -10.7665 -22.29182 -12.16972 
-15.4402 -10.7665 -23.16782 -22.29182 
-15.7532 -23.16782 -23.16782 
-28.15452 -23.16782 
-4.5965 0 -3.9625 0 -3.0415 -3.3715 -4.3945 -1.934 -3.6835 
-4.5965 -3.9625 -3.9625 -3.0415 -4.5985 -6.579 -5.991 -5.1975 
-8.894001 -3.9625 -5.9025 -4.5985 -7.8085 -8.149501 -9.9835 
-8.894001 -5.9025 -7.4215 -7.8085 -8.8585 -12.4962 
-11.137 -7.4215 -10.6095 -8.8585 -13.6684 
