-4.759 
n/a 
n/a 
n/a 
n/a 
-4.759 
n/a 
n/a 
n/a 
n/a 
-4.759 
n/a 
n/a 
n/a 
n/a 
-4.759 
n/a 
n/a 
n/a 
n/a 
-5.765 -1.756 -4.6805 -3.639 -5.1215 -3.152 -4.648 -1.934 -2.3615 -3.275 0 
-6.7935 -6.443 -7.8445 -6.719501 -7.1215 -6.538 -6.333 -3.539 -4.4505 -3.275 
-8.359501 -10.2418 -11.958 -8.693501 -10.749 -7.829 -8.119 -6.0465 -4.4505 
-12.4799 -14.3553 -13.932 -12.4876 -12.04 -10.0065 -11.3543 -6.0465 
-16.5934 -16.3293 -17.7261 -13.7786 -14.2175 -13.2418 -11.3543 
-5.765 -1.756 -3.9725 -2.229 -3.639 -5.1215 -3.152 -4.6075 -2.0935 -3.1495 -3.4025 -1.7565 -5.189 0 
-6.7935 -6.0275 -5.125 -5.929 -6.719501 -7.1215 -6.221001 -6.189 -4.7405 -6.2505 -6.1155 -5.684 -5.189 
-9.978001 -7.226 -8.291 -8.579 -8.693501 -10.298 -7.6385 -8.4245 -7.9985 -8.7865 -10.3285 -5.684 
-10.738 -10.4185 -11.1898 -9.972501 -12.0366 -11.7155 -9.679501 -11.9839 -10.523 -13.3281 -10.3285 
-13.9305 -13.6191 -12.5833 -13.4106 -13.4541 -13.7565 -13.4043 -14.5084 -15.0646 -13.3281 
-4.5055 -1.756 -4.6805 -3.639 -5.1215 -2.4945 -3.8055 -1.934 -2.3615 -3.8685 
-6.2255 -6.443 -7.8445 -6.719501 -6.8685 -5.9265 -4.951 -3.539 -5.351501 
-10.2185 -10.2418 -11.958 -8.4145 -10.275 -6.571 -7.102 -6.216 
-14.0173 -14.3553 -13.653 -11.9644 -10.9195 -8.6995 -8.357 
-18.1308 -16.0503 -17.2029 -12.6089 -13.048 -9.745501 
-5.765 -2.4285 -3.639 -5.1215 -4.648 -2.0935 -2.3615 -3.275 
-8.017 -5.964 -6.719501 -10.2085 -6.227 -3.854 -4.4505 
-10.5135 -8.2115 -12.1969 -11.7875 -7.83 -5.6705 
-10.549 -13.9001 -13.7759 -13.3905 -10.5325 
-17.2484 -15.4791 -15.3789 -16.093 
