-4.759 
n/a 
n/a 
n/a 
n/a 
-4.759 
n/a 
n/a 
n/a 
n/a 
-4.759 
n/a 
n/a 
n/a 
n/a 
-4.759 
n/a 
n/a 
n/a 
n/a 
-7.645 -3.152 -4.424 0 
-11.278 -8.638 -4.424 
-15.8132 -8.638 
-16.2206 
n/a 
-7.071 -4.744 -4.424 
-12.8246 -7.3205 
-15.4011 
n/a 
n/a 
-2.9905 -1.7565 -2.3615 0 -7.645 -4.744 -3.251 -4.424 0 
-3.6185 -3.523 -2.3615 -7.3345 -12.18 -6.940001 -6.013 -4.424 
-5.474 -3.523 -11.1707 -12.5774 -14.9386 -8.561501 -6.013 
-5.474 -12.7595 -16.4136 -14.9386 -16.5601 -8.561501 
-14.658 -18.0024 -18.7748 -16.5601 -16.5601 
-7.645 -3.152 -4.493 -1.934 -2.3335 0 
-11.278 -5.593 -5.1865 -4.359 -2.3335 
-11.8235 -6.176001 -7.6565 -4.359 
-10.911 -8.153001 -7.6565 
-13.8506 -8.153001 
