-4.759 
n/a 
n/a 
n/a 
n/a 
-4.759 
n/a 
n/a 
n/a 
n/a 
-4.759 
n/a 
n/a 
n/a 
n/a 
-4.759 
n/a 
n/a 
n/a 
n/a 
-13.512 -5.8475 -4.4815 -1.4985 -3.586 0 -1.7695 -4.079 -1.7565 -3.681 -3.644 0 
-19.4661 -10.3545 -6.176 -5.329 -3.586 -1.7695 -6.612501 -7.349 -4.955 -7.3205 -3.644 
-25.0315 -13.2002 -10.341 -5.329 -4.68 -6.612501 -10.485 -10.485 -8.351001 -7.3205 
-27.8772 -17.3652 -10.341 -7.284 -11.6502 -10.485 -13.621 -13.881 -8.351001 
-32.0422 -17.3652 -12.296 -14.5414 -15.5227 -13.621 -17.017 -13.881 
-6.277 -4.156 -1.756 -2.985 -7.14 -4.7815 -2.3335 -3.672 -3.9305 0 -3.237 -3.9305 -1.756 -4.3435 -4.045 -1.756 -4.21 -1.7565 -4.2125 -4.385 -3.9875 -1.7695 -1.7695 -4.0205 -3.729 -1.7565 -5.7745 -1.756 -2.985 -6.1965 0 
-6.327001 -5.846 -4.2025 -9.9865 -12.5691 -5.3995 -6.320001 -7.382 -3.9305 -3.237 -7.52 -5.153 -5.774 -8.607 -5.4175 -5.827 -5.086 -6.484001 -9.254 -8.456 -4.6185 -5.439 -6.1875 -7.703 -5.6535 -7.389501 -7.0325 -4.2025 -8.352501 -6.1965 
-7.914001 -8.6475 -11.4684 -15.4156 -13.1871 -8.9525 -9.758501 -7.382 -7.5915 -7.52 -9.500501 -10.0315 -9.788 -9.9645 -8.71 -6.3625 -10.082 -11.7311 -13.4718 -8.7025 -8.5045 -10.0215 -10.3475 -10.0745 -10.6735 -8.545 -9.429001 -8.7615 -8.352501 
-11.3147 -16.1978 -16.8975 -16.0336 -16.7401 -12.5386 -9.758501 -11.684 -8.960001 -9.500501 -14.5016 -14.1423 -11.3695 -13.3634 -10.7575 -11.8003 -15.3291 -15.9489 -13.7183 -12.7683 -13.3064 -14.3053 -12.719 -15.2365 -11.829 -10.533 -14.2266 -8.7615 
-18.865 -21.6269 -17.5155 -19.5866 -20.3262 -12.5386 -14.5705 -13.0525 -11.3177 -14.5016 -18.6124 -15.7238 -14.7684 -15.4109 -16.1953 -17.0474 -19.5469 -16.1954 -17.7841 -17.5702 -17.5902 -16.6768 -17.881 -16.392 -13.817 -15.3306 -14.2266 
-6.277 -4.156 -1.756 -2.985 -4.1645 -3.998 -3.4605 -2.742 -2.489 -2.645 -3.699 -1.756 -7.699501 -2.0935 -4.041 -1.756 -2.8965 -4.3435 -2.742 -3.2345 -2.645 -3.2015 -1.756 -7.878 0 
-6.327001 -5.846 -4.2025 -6.473001 -8.225 -8.5725 -5.822001 -3.301 -4.6205 -5.093 -5.4425 -9.1675 -8.881001 -6.391 -5.505001 -3.751 -7.2005 -7.0115 -4.746 -5.506001 -5.8865 -4.741 -9.6595 -7.878 
-7.914001 -8.6475 -7.591001 -10.9931 -13.2735 -11.219 -6.311 -5.529 -6.549 -6.832001 -13.9418 -10.598 -13.3697 -7.1215 -7.199501 -7.8385 -9.493501 -9.425 -6.9545 -10.0995 -7.401501 -13.7555 -9.6595 
-11.3147 -12.3204 -12.2131 -16.0416 -15.92 -11.708 -8.908 -7.4575 -8.3255 -15.5143 -15.3723 -15.0867 -14.1002 -9.083 -12.2334 -10.9037 -12.3726 -11.6821 -11.7112 -11.7465 -16.8258 -13.7555 
-14.9876 -16.9425 -17.2616 -18.6881 -16.409 -14.305 -11.0281 -9.190001 -17.1424 -16.9448 -19.861 -15.8172 -16.0617 -14.4907 -15.2986 -13.7828 -14.6297 -16.4388 -13.3582 -21.1708 -16.8258 
-5.594 -4.156 -1.756 -3.091 -3.4165 -4.1645 -3.074 -3.2955 -2.0935 -2.3335 
-9.078501 -5.846 -4.2995 -6.364 -5.616 -7.0225 -5.43 -4.307 -4.488501 
-10.622 -7.4745 -6.8315 -7.013 -8.427 -9.5905 -6.351501 -6.748 
-12.2505 -9.7935 -7.545 -9.449 -10.674 -10.6552 -9.602501 
-14.5695 -10.406 -9.681001 -11.7166 -11.7387 -13.9062 
