-4.759 
n/a 
n/a 
n/a 
n/a 
-4.759 
n/a 
n/a 
n/a 
n/a 
-4.759 
n/a 
n/a 
n/a 
n/a 
-4.759 
n/a 
n/a 
n/a 
n/a 
-3.17 -1.7565 -1.4985 -4.1145 -2.229 -2.4945 -4.0515 -4.524 -4.5095 -2.0935 -4.3465 -3.664 -2.872 -1.4985 -3.8085 -3.664 -3.7555 -2.645 -4.5095 -3.598 0 -3.1435 -1.8085 -3.815 -1.756 -3.77 -3.3755 -1.7695 -2.489 -1.8085 -3.8085 -3.3755 -1.934 -3.17 -1.7565 -1.4985 -4.1145 -2.229 0 
-4.179 -2.4195 -5.3525 -6.818501 -5.159 -5.9095 -7.910001 -8.712501 -6.6365 -5.9545 -5.737 -6.285501 -4.035 -5.574 -5.2435 -7.4575 -5.968 -7.512501 -6.8245 -3.598 -3.1435 -5.211 -4.6365 -5.439 -4.8065 -5.318501 -3.992 -3.1405 -3.799 -4.605 -9.2465 -5.0985 -4.8605 -4.179 -2.4195 -5.3525 -6.818501 -2.229 
-4.497 -6.764501 -7.6675 -8.351 -8.868 -9.906 -12.4643 -10.7495 -10.287 -7.007501 -8.939501 -7.4945 -8.786501 -7.5045 -9.933001 -9.772 -10.7495 -9.142501 -6.8245 -7.116 -5.211 -8.036 -6.719 -7.226 -6.072001 -5.4685 -6.169 -4.2615 -6.044 -11.3538 -11.3587 -7.966001 -5.8795 -4.497 -6.764501 -7.6675 -6.818501 
-8.5705 -8.516001 -10.041 -12.5322 -12.9067 -14.6131 -14.5013 -14.4 -10.326 -9.298501 -10.1265 -12.5496 -10.1635 -12.6486 -12.5105 -14.5989 -12.3795 -9.142501 -10.2435 -8.9855 -8.036 -9.882 -7.56 -9.286501 -6.144 -8.156501 -7.360001 -6.7025 -13.3524 -13.466 -14.2262 -8.913501 -6.0885 -8.5705 -8.516001 -7.6675 
-10.4765 -11.2947 -14.3144 -16.5709 -17.6138 -16.6501 -18.1518 -14.439 -12.617 -10.6225 -15.1816 -13.9266 -15.4852 -15.2261 -17.3374 -16.2289 -12.3795 -12.9041 -12.4264 -11.9765 -9.882 -10.7792 -9.4845 -9.621 -9.028501 -9.444501 -10.163 -14.4049 -15.4646 -16.3335 -15.1737 -9.1385 -10.5134 -10.4765 -8.516001 
-3.17 -1.7565 -1.4985 -4.1145 -4.111 -1.4985 -3.2945 -1.7695 -3.7765 -2.5045 -5.6905 -2.356 -2.9905 -3.7875 -2.9995 -3.435 0 -2.872 -2.4265 -3.807 -3.7405 -4.5095 -4.0415 -1.7695 -3.8085 -3.664 0 -1.934 -3.17 -1.7565 -1.4985 -4.1145 -3.8085 -3.2945 -4.098 -1.4985 -3.644 -3.447 -4.0415 
-4.179 -2.4195 -5.3525 -8.329 -5.03 -4.303 -5.069 -5.128 -6.908 -7.736501 -7.604 -5.712501 -6.828 -6.027 -6.3805 -3.435 -2.872 -4.062 -5.1855 -6.1445 -7.818001 -7.605 -5.718 -6.068501 -5.2435 -3.664 -1.934 -4.8605 -4.179 -2.4195 -5.3525 -9.1365 -5.104 -6.9375 -5.173 -5.005 -6.387 -7.063001 
-4.497 -6.764501 -9.025001 -9.564 -5.9825 -5.393 -7.401 -7.9655 -12.6464 -11.3084 -11.6293 -7.4915 -9.073501 -9.861 -6.3805 -6.226501 -4.062 -7.1645 -7.712 -9.9455 -10.3965 -9.2045 -9.948501 -6.4545 -5.2435 -5.424 -4.8605 -5.8795 -4.497 -6.764501 -10.564 -10.968 -8.735001 -7.7495 -7.125 -8.344001 -10.2695 
-8.5705 -10.4265 -10.341 -10.6321 -6.0045 -7.628 -10.0065 -14.2177 -16.2183 -15.3337 -13.4083 -9.2475 -12.9203 -9.861 -8.7585 -7.4605 -7.1645 -9.321001 -11.6262 -12.772 -11.996 -13.6002 -10.558 -6.4545 -7.593 -8.317 -5.8795 -6.0885 -8.5705 -12.1032 -12.3955 -14.599 -10.5975 -10.757 -11.6494 -12.3947 
-13.0685 -11.7425 -11.4091 -10.6541 -8.1395 -10.646 -16.6631 -17.7896 -20.2436 -17.1127 -15.1643 -13.0575 -12.9203 -12.4682 -10.1895 -10.609 -9.321001 -13.4818 -14.4527 -14.3715 -16.3917 -14.2097 -10.558 -8.771001 -10.688 -9.468 -6.0885 -10.5134 -14.7452 -13.9347 -16.0265 -16.4615 -13.605 -15.2814 -15.7001 
-4.138 -1.7565 -4.9225 -1.7695 -3.2945 -3.435 -1.7565 -4.138 -4.5095 0 
-5.1845 -6.4125 -6.814 -5.53 -5.3565 -4.9915 -6.081 -9.27 -4.5095 
-11.1519 -7.757 -11.1401 -8.153001 -8.3035 -9.978001 -11.3908 -9.27 
-12.4964 -12.7687 -13.7631 -11.5554 -13.8476 -15.393 -11.3908 
-17.5081 -15.3917 -17.1655 -17.0995 -19.2626 -15.393 
-3.17 -1.7565 -1.4985 -5.4085 -3.9915 -1.7695 -3.7765 -7.53 -1.4985 -3.2945 -6.307 -2.4265 -3.807 -3.8085 -3.664 -1.7695 -2.674 -2.645 -4.5095 -3.9115 -3.8085 -3.2945 -2.186 -1.4985 -3.8935 -3.585 -1.934 -5.4085 0 
-4.179 -2.4195 -7.439501 -8.5295 -5.846 -5.128 -12.1505 -9.000501 -4.303 -8.148001 -7.4165 -5.1855 -8.219501 -5.2435 -4.894 -3.8225 -4.9565 -7.512501 -8.088 -8.735001 -5.104 -5.353 -3.339 -5.193 -6.5745 -5.26 -7.6995 -5.4085 
-4.497 -8.306001 -11.2899 -10.7276 -8.357 -14.5258 -13.621 -12.4638 -9.344 -9.31 -10.563 -9.578501 -8.944 -7.097001 -6.838 -5.8225 -9.591 -11.5558 -13.2641 -10.4345 -7.0975 -6.925 -6.7575 -7.647501 -8.333 -11.6169 -7.6995 
-8.8985 -12.378 -13.488 -13.2386 -18.0038 -15.9963 -17.0843 -17.5138 -10.5675 -12.439 -15.4408 -10.428 -11.7929 -9.2895 -8.286501 -10.2475 -13.9207 -16.7319 -14.9636 -12.428 -9.254001 -10.9409 -9.103001 -9.922001 -14.9751 -11.6169 
-13.8301 -14.5761 -15.999 -22.8854 -19.4743 -19.4596 -22.1343 -18.3948 -13.4869 -17.3752 -16.2903 -13.1507 -13.9854 -11.118 -13.4497 -14.5772 -19.0968 -18.4314 -16.9571 -14.5845 -13.4855 -13.2864 -11.6001 -16.7477 -14.9751 
