-4.759 
n/a 
n/a 
n/a 
n/a 
-4.759 
n/a 
n/a 
n/a 
n/a 
-4.759 
n/a 
n/a 
n/a 
n/a 
-4.759 
n/a 
n/a 
n/a 
n/a 
-17.09972 -2.5195 -9.107 -1.756 -8.981501 -2.5195 -10.2505 
-20.10172 -10.6885 -9.984 -10.3995 -10.3325 -13.4436 
-28.65112 -11.5655 -17.519 -12.1425 -21.4378 
-29.52812 -19.1005 -20.5165 -23.3448 
-37.06312 -22.098 -31.5728 
-1.4985 -3.098 -8.392 -2.7415 -3.8755 -2.3345 -7.5525 -4.93 0 
-4.3095 -11.136 -11.6645 -5.065001 -4.4955 -10.5975 -12.5845 -4.8175 
-12.9077 -14.4085 -13.988 -5.7145 -13.3029 -15.6295 -12.5845 
-16.1802 -16.732 -14.6375 -15.1211 -18.3349 -15.6295 
-18.5037 -17.3815 -24.0441 -20.1531 -18.3349 
0 -8.392 0 -2.186 -1.4985 -3.098 0 -7.5525 -5.1675 
-8.392 -8.392 -2.186 -3.339 -4.3095 -3.098 -7.5525 -12.9415 
-8.392 -10.586 -3.339 -5.6145 -4.3095 -10.688 -12.9415 
-10.586 -10.7785 -5.6145 -5.6145 -12.4597 -16.077 
-10.7785 -13.054 -5.6145 -14.6989 -17.8487 
0 -7.701 -5.964 0 -3.098 -4.4615 -7.5525 -3.6765 -4.93 
-7.701 -14.1958 -5.964 -3.098 -6.4905 -13.4044 -11.8666 -9.6285 
-14.1958 -14.1958 -9.556001 -6.4905 -16.015 -17.7185 -17.5541 
-14.1958 -17.7878 -13.4355 -16.015 -20.3291 -23.406 
-17.7878 -21.6673 -22.96 -20.3291 -26.0166 
