-4.759 
n/a 
n/a 
n/a 
n/a 
-4.759 
n/a 
n/a 
n/a 
n/a 
-4.759 
n/a 
n/a 
n/a 
n/a 
-4.759 
n/a 
n/a 
n/a 
n/a 
-1.934 -9.229 -12.16972 -3.711 -2.9805 -3.264 0 -8.130501 -10.306 -3.9675 -2.4945 -4.3895 -2.3345 -2.8705 -4.253 -4.2085 -2.8645 -3.1125 -4.9335 
-12.1694 -21.79532 -15.88072 -6.7425 -4.3595 -3.264 -8.130501 -18.7939 -14.2735 -6.638 -6.08 -4.6785 -4.811501 -6.545 -7.4175 -6.646501 -3.5345 -6.5255 
-24.73572 -25.50632 -18.91222 -7.6905 -4.3595 -11.1165 -18.7939 -22.7614 -16.944 -10.553 -6.564001 -7.398 -8.433001 -9.908001 -10.0315 -7.451501 -6.836 
-28.44672 -28.53782 -19.86022 -7.6905 -12.8132 -21.7799 -22.7614 -25.4319 -20.859 -11.037 -9.236001 -11.3677 -11.9546 -12.522 -10.8365 -10.6465 
-31.47822 -29.48582 -19.86022 -16.316 -23.4766 -25.7474 -25.4319 -29.3469 -21.343 -13.709 -13.3199 -14.8893 -14.5686 -13.327 -14.0315 
-7.112 -10.306 -3.9675 -2.4945 -4.066 -2.5195 -2.8705 -4.5735 -4.9225 -3.321 -3.7905 -2.664 -4.5735 -3.6885 
-10.316 -14.2735 -6.638 -8.2085 -4.976 -4.553 -7.056 -7.2555 -8.465 -6.4985 -4.8645 -5.701 -7.421 
-14.2835 -16.944 -12.647 -8.8905 -7.023 -8.543501 -10.316 -10.5325 -11.8187 -8.026 -9.290001 -8.1805 
-16.954 -22.953 -13.329 -10.1555 -10.733 -12.0399 -13.593 -13.8862 -13.3462 -12.5231 -11.9049 
-22.963 -23.635 -14.594 -13.8655 -14.2294 -15.3169 -16.9467 -15.4137 -17.8433 -15.138 
-2.5195 -8.130501 -10.306 -3.9675 0 -2.8705 -6.394001 -3.3435 -4.503 -2.4945 -4.0645 -2.9805 -3.644 -1.934 -5.1845 -10.306 
-10.276 -18.7939 -14.2735 -3.9675 -2.8705 -6.778 -10.2185 -6.7845 -6.3255 -5.095 -7.205501 -4.889 -5.7535 -6.564 -16.7849 
-20.9394 -22.7614 -14.2735 -6.6525 -6.778 -10.485 -13.6595 -8.568001 -8.518001 -9.417 -9.4995 -6.567 -10.3545 -18.7766 
-24.9069 -22.7614 -16.9585 -10.66 -10.485 -13.926 -15.443 -10.8923 -13.1572 -11.7688 -11.3075 -11.3352 -22.5671 
-24.9069 -25.4464 -20.966 -14.367 -13.926 -15.7095 -17.7673 -15.5315 -15.509 -13.5768 -16.0757 -23.5478 
-2.8705 -7.245501 -4.078 -3.9035 -1.756 -3.135 -4.2635 -2.4945 -3.197 -1.934 -9.081 -10.306 -3.59 -3.264 -3.326 -6.127 -2.5045 -9.06 -9.380501 -12.16972 
-10.1345 -11.8927 -8.1885 -5.1585 -4.5755 -8.323 -7.9905 -7.154 -5.382 -12.0214 -19.5974 -13.896 -6.7675 -7.4215 -10.168 -8.5755 -12.2595 -18.8745 -22.48662 
-14.7817 -16.0032 -9.867001 -7.994 -9.712001 -12.5346 -12.8284 -9.6005 -16.0516 -22.5378 -23.1874 -17.0735 -11.065 -14.9351 -13.1367 -19.0029 -22.074 -31.98062 
-18.8922 -17.6817 -12.8017 -13.2511 -13.9922 -17.3725 -15.2749 -20.3319 -26.568 -26.1278 -26.3649 -21.371 -18.5786 -17.9038 -23.5641 -28.8174 -35.18012 
-20.5707 -20.6164 -18.0588 -17.5313 -18.8301 -19.819 -26.0063 -30.8483 -30.158 -29.3053 -30.6624 -28.8846 -21.5473 -28.3312 -33.3786 -41.92352 
