-4.759 
n/a 
n/a 
n/a 
n/a 
-4.759 
n/a 
n/a 
n/a 
n/a 
-4.759 
n/a 
n/a 
n/a 
n/a 
-4.759 
n/a 
n/a 
n/a 
n/a 
-1.934 -3.994 -3.2615 -2.8845 -5.009 0 
-4.095 -7.3215 -7.164001 -8.6385 -5.009 
-7.418 -11.4594 -13.3288 -8.6385 
-11.6543 -17.6242 -13.3288 
-17.8191 -17.6242 
-2.0935 -2.645 -5.009 -1.934 -3.288 -2.8845 
-3.883 -7.4945 -6.2945 -4.9715 -4.668 
-9.631001 -8.781501 -9.240001 -6.317 
-10.8588 -11.9648 -10.5755 
-14.0421 -13.3003 
-2.0935 -2.645 -3.288 -2.8845 -5.494 
-3.883 -5.8945 -4.668 -8.4 
-8.007 -8.187 -9.9305 
-10.389 -13.4679 
-15.6699 
-3.818 -3.288 -2.8845 -2.229 -5.494 0 
-8.6835 -4.668 -5.8855 -7.544 -5.494 
-10.2857 -7.313001 -11.9509 -7.544 
-12.9307 -14.3846 -11.9509 
-20.0023 -14.3846 
