-4.759 
n/a 
n/a 
n/a 
n/a 
-4.759 
n/a 
n/a 
n/a 
n/a 
-4.759 
n/a 
n/a 
n/a 
n/a 
-4.759 
n/a 
n/a 
n/a 
n/a 
-1.934 -4.4735 -3.6835 -3.7435 -3.9035 -2.5045 -4.255 -2.5045 -4.015 -4.1665 -4.0395 -1.7565 -4.6605 -3.9035 0 
-5.914001 -7.285501 -5.62 -5.73 -6.341 -7.551001 -6.6955 -7.322001 -7.5765 -9.165501 -4.862 -6.027 -8.8335 -3.9035 
-9.146501 -8.7065 -7.634501 -7.696001 -11.9477 -9.288501 -11.7138 -10.2485 -13.0305 -10.0585 -9.046 -10.494 -8.8335 
-10.7671 -9.684 -9.517 -13.6033 -13.6852 -15.1326 -14.6403 -15.7025 -13.9235 -14.2531 -13.6868 -10.494 
-11.7446 -13.3449 -15.5449 -15.3408 -19.5293 -18.0591 -20.0943 -16.5955 -18.1181 -18.8939 -13.6868 
-1.934 -4.4735 0 -3.6835 -3.7435 -3.9035 -2.4945 -2.0935 -3.135 -3.699 -4.5785 
-5.914001 -4.4735 -3.6835 -5.62 -5.73 -5.8065 -4.962501 -4.4665 -5.929501 -7.727 
-5.914001 -7.285501 -5.62 -7.634501 -7.447001 -8.299 -7.645 -7.640501 -8.679001 
-9.146501 -8.7065 -7.634501 -9.174001 -10.2225 -11.2323 -11.2102 -9.009001 
-10.7671 -9.684 -9.174001 -12.1705 -13.1558 -14.7975 -12.5787 
-3.7435 -3.9035 -2.186 -2.664 -3.2795 -1.7565 -4.6605 -1.934 -4.4735 0 
-5.73 -6.4815 -3.8555 -7.7905 -4.4575 -6.027 -6.3495 -5.914001 -4.4735 
-8.026501 -8.0525 -9.009001 -8.4905 -9.474501 -7.627 -9.690001 -5.914001 
-9.640501 -13.7014 -9.355 -13.6971 -11.2985 -11.2599 -9.690001 
-15.5772 -14.0474 -14.8358 -15.5211 -14.9314 -11.2599 
-3.6835 -3.9035 -2.4945 -4.39 -1.7565 -3.776 -5.188 0 
-8.039501 -5.8065 -7.9415 -4.681 -5.3685 -7.7985 -5.188 
-9.685501 -11.7761 -8.4305 -8.076 -8.839001 -7.7985 
-15.6869 -12.2651 -11.9723 -11.7817 -8.839001 
-16.1759 -15.8069 -15.678 -11.7817 
