-4.759 
n/a 
n/a 
n/a 
n/a 
-4.759 
n/a 
n/a 
n/a 
n/a 
-4.759 
n/a 
n/a 
n/a 
n/a 
-4.759 
n/a 
n/a 
n/a 
n/a 
-2.8965 -3.1575 -2.3335 -9.1285 -4.602 -3.5865 -2.186 -3.074 -1.8085 -4.4695 -3.5865 -1.934 -6.3215 -3.892 -2.8965 -3.1575 -3.1495 0 -3.849 -7.345 -3.672 -3.9155 -1.756 -3.7865 0 -3.5855 -4.536 -2.4945 -3.958 -1.934 -1.756 -3.6215 -6.3215 0 
-4.4055 -4.92 -10.7495 -14.0545 -9.063001 -5.7395 -4.156 -4.639 -5.8105 -8.23 -5.4235 -7.453 -9.394001 -7.067 -4.4055 -6.3005 -3.1495 -3.849 -12.656 -13.1225 -7.9475 -5.008 -5.7705 -3.7865 -3.5855 -7.709001 -6.476 -5.478001 -5.497 -4.4925 -5.195 -9.130501 -6.3215 
-5.692 -13.9152 -15.6755 -18.5155 -11.4484 -7.7015 -4.962 -8.078501 -9.274501 -9.7005 -9.461 -10.2435 -12.585 -7.954 -7.108 -6.3005 -6.959001 -13.2014 -18.047 -18.7964 -9.105 -8.686501 -5.7705 -6.194 -7.709001 -9.498501 -9.647501 -6.908 -7.6545 -5.546 -9.370001 -9.130501 
-15.0066 -18.8412 -20.1365 -20.9009 -13.4104 -8.6175 -8.38 -11.5995 -10.204 -13.7494 -12.6027 -13.4345 -13.472 -10.575 -7.108 -10.2645 -16.8918 -18.047 -23.2653 -19.9539 -13.1777 -8.686501 -8.9265 -8.877501 -9.498501 -13.1104 -11.1625 -9.178501 -9.0965 -9.3745 -9.370001 
-19.9326 -23.3022 -22.5219 -22.8629 -14.3264 -12.3511 -11.9472 -12.529 -14.2529 -16.8911 -15.7937 -14.3215 -16.093 -10.575 -11.446 -20.1973 -21.7374 -23.2653 -24.4228 -24.0266 -13.1777 -10.5035 -10.76 -10.7495 -13.1104 -14.6254 -13.433 -10.7211 -13.1478 -9.3745 
-9.1285 -4.602 -3.5865 -2.186 -3.074 -4.4695 -3.5865 -1.934 -6.3215 -3.845 -1.7565 -3.766 -4.474 -3.9155 -4.536 0 -4.1135 -3.58 -4.536 0 -3.594 -1.756 -3.5855 -4.536 -2.4945 -4.06 -1.934 -1.756 -3.6215 -6.3215 0 
-14.0545 -9.063001 -5.7395 -4.156 -7.081 -8.23 -5.4235 -7.453 -11.0549 -4.13 -5.1285 -6.892 -8.67 -6.9025 -4.536 -4.1135 -6.7285 -6.9935 -4.536 -3.594 -4.857 -5.1875 -7.709001 -6.476 -5.1305 -4.483 -4.4925 -5.195 -9.130501 -6.3215 
-18.5155 -11.4484 -7.7015 -7.2705 -11.9487 -9.7005 -9.461 -12.6316 -11.3399 -7.2795 -8.158001 -9.231001 -9.3935 -6.9025 -8.0065 -6.7285 -10.757 -6.9935 -7.805501 -4.857 -6.2115 -8.3815 -9.498501 -8.478001 -5.5445 -7.1835 -5.546 -9.370001 -9.130501 
-20.9009 -13.4104 -10.6335 -12.7898 -13.4192 -13.7494 -14.9908 -12.9166 -14.4894 -11.018 -10.5225 -9.394501 -9.3935 -11.0446 -11.2461 -10.757 -10.757 -10.8486 -9.4905 -6.2115 -10.533 -10.442 -11.9409 -8.789001 -7.995 -7.41 -9.3745 -9.370001 
-22.8629 -16.3424 -16.1022 -14.2603 -17.4681 -19.2792 -15.2758 -16.0661 -18.2279 -13.3825 -10.6375 -9.394501 -13.5782 -14.2842 -15.2746 -10.757 -14.6121 -12.5336 -11.3548 -10.533 -12.5935 -12.8844 -12.2519 -11.3731 -8.279 -11.4161 -9.3745 
-4.685 -2.5195 -3.1495 -9.1285 -4.602 -3.5865 -2.186 -3.074 -1.8085 -4.4695 -3.5865 -1.934 -6.3215 -3.0365 -2.4945 -3.264 -1.7565 -3.766 -4.474 -3.9155 -4.536 0 -3.7865 -4.536 0 -3.5855 -4.536 -1.934 -1.756 -3.6215 -6.3215 0 
-5.093 -5.0805 -13.5732 -14.0545 -9.063001 -5.7395 -4.156 -4.639 -5.8105 -8.23 -5.4235 -7.453 -9.589001 -3.688 -6.7695 -3.6125 -5.1285 -6.892 -8.67 -6.9025 -4.536 -3.7865 -6.816501 -4.536 -3.5855 -7.709001 -5.973001 -4.4925 -5.195 -9.130501 -6.3215 
-6.996001 -15.7574 -18.4992 -18.5155 -11.4484 -7.7015 -4.962 -8.078501 -9.274501 -9.7005 -9.461 -10.223 -9.927 -7.300001 -7.1705 -7.1835 -8.158001 -9.231001 -9.3935 -6.9025 -7.080501 -6.816501 -6.816501 -8.1035 -7.709001 -8.5515 -8.712501 -5.546 -9.370001 -9.130501 
-18.0013 -20.6834 -22.9602 -20.9009 -13.4104 -8.6175 -8.38 -11.5995 -10.204 -13.7494 -12.5822 -10.521 -13.7014 -7.341001 -10.9717 -10.0125 -10.5225 -9.394501 -9.3935 -10.281 -9.8655 -6.816501 -10.6605 -8.5965 -8.5515 -11.7878 -8.814 -9.3745 -9.370001 
-22.9273 -25.1444 -25.3456 -22.8629 -14.3264 -12.3511 -11.9472 -12.529 -14.2529 -16.8706 -12.8802 -14.2954 -13.7424 -11.3198 -13.8007 -12.377 -10.6375 -9.394501 -12.8146 -13.188 -9.8655 -10.6605 -11.1535 -10.7546 -11.7878 -11.8893 -10.7585 -9.3745 
-3.074 -9.1285 -4.602 -3.5865 -2.186 -4.4695 -1.934 -8.255501 -1.756 -3.6215 -3.0365 -2.4945 -3.766 -4.474 -3.9155 -4.536 0 -4.7175 -1.7565 -3.4005 -4.536 0 -3.7865 -1.756 -3.5855 -4.536 0 
-13.2029 -14.0545 -9.063001 -5.7395 -6.053 -6.4835 -9.463 -10.89 -5.195 -6.3875 -3.688 -6.03 -6.892 -8.67 -6.9025 -4.536 -4.7175 -5.1725 -4.473 -6.474 -4.536 -3.7865 -4.7705 -5.1875 -7.709001 -4.536 
-18.1289 -18.5155 -11.4484 -9.489 -7.6365 -14.3096 -12.199 -12.4225 -8.59 -7.204 -7.9585 -8.5325 -9.231001 -9.3935 -6.9025 -8.5345 -5.1725 -6.9415 -8.6805 -6.474 -7.080501 -4.7705 -6.401 -8.3815 -7.709001 
-22.5899 -20.9009 -15.1979 -11.1303 -15.631 -17.4837 -13.3891 -16.13 -9.467501 -11.6065 -10.655 -11.1705 -9.394501 -9.3935 -11.5726 -9.285501 -6.9415 -12.0886 -8.6805 -10.6095 -7.535501 -6.401 -8.4285 -8.3815 
-24.9753 -24.6504 -16.8392 -19.1248 -18.8051 -18.5372 -17.0966 -17.072 -13.9978 -14.303 -13.293 -11.334 -9.394501 -14.1062 -12.3236 -11.2663 -12.0886 -12.0886 -13.0476 -11.0645 -9.702001 -8.4285 -8.4285 
