-4.759 
n/a 
n/a 
n/a 
n/a 
-4.759 
n/a 
n/a 
n/a 
n/a 
-4.759 
n/a 
n/a 
n/a 
n/a 
-4.759 
n/a 
n/a 
n/a 
n/a 
-3.5065 -1.4985 -4.6905 -3.6845 -3.1495 -3.535 -6.066 0 -4.0835 -2.264 -1.4985 -5.61 -1.934 -4.07 -3.593 -2.4945 -3.4295 0 -2.4265 -2.186 -3.768 -2.0935 -1.4985 -3.7075 -3.7805 -1.7695 -4.0655 -3.3255 -3.1495 0 
-4.358 -5.3255 -8.503 -6.2255 -6.235001 -8.6905 -6.066 -4.0835 -5.269501 -2.9195 -6.374001 -7.262 -6.0675 -6.9705 -6.1045 -5.442 -3.4295 -2.4265 -3.292 -4.7835 -5.1955 -2.9725 -4.6235 -6.981 -5.671 -4.9145 -5.4285 -5.7465 -3.1495 
-8.612 -8.863501 -11.2038 -9.958501 -11.7061 -8.6905 -9.1175 -5.269501 -5.868001 -7.9195 -8.097501 -11.8821 -10.0454 -9.764 -9.032001 -5.442 -5.168 -3.292 -4.9545 -5.9895 -5.938 -6.442501 -7.743001 -8.742001 -7.5165 -6.1505 -7.8865 -5.7465 
-12.4598 -11.6387 -14.9368 -15.4296 -11.7061 -11.934 -10.329 -5.868001 -9.1765 -9.491 -12.9702 -15.86 -12.8389 -12.6915 -9.032001 -8.215 -7.21 -4.9545 -6.071 -6.691 -9.384 -9.840001 -9.432501 -10.7495 -7.646501 -8.4475 -7.8865 
-15.235 -15.3717 -20.4079 -15.4296 -14.9496 -13.1455 -10.9275 -9.1765 -12.3466 -14.5187 -16.9481 -18.6535 -15.7664 -12.6915 -12.2458 -8.733001 -8.685 -6.071 -6.747 -10.2035 -13.4637 -11.5295 -11.561 -10.7855 -10.163 -8.4475 
-2.5045 -3.1495 -6.066 -2.4945 -4.9385 -2.264 -5.61 -2.9705 -2.4945 -5.324 -1.934 -1.8085 -4.4695 0 -1.756 -3.074 -3.433 -1.4985 -4.6905 -1.7565 -3.1495 -6.066 -2.4945 -3.4295 0 -5.34 -4.6515 -3.3255 -3.277 -1.7695 -1.4985 -4.4315 -1.7565 -1.4985 -3.729 0 
-5.4595 -8.476001 -7.701001 -5.9385 -6.5035 -7.922501 -7.7905 -4.302 -7.3625 -6.4455 -3.2685 -5.746 -4.4695 -1.756 -4.566 -5.896 -4.3795 -5.3255 -5.9605 -3.914 -8.476001 -7.701001 -5.442 -3.4295 -5.34 -8.578501 -5.91 -5.937 -4.261 -2.7955 -5.1515 -5.76 -2.4195 -4.763 -3.729 
-10.938 -9.226001 -10.733 -7.257501 -13.115 -9.894 -8.580501 -8.812 -8.422501 -7.863 -6.3325 -5.746 -6.029 -4.566 -6.641 -6.7975 -8.261001 -6.0805 -9.348001 -9.1335 -9.226001 -9.935501 -5.442 -8.741501 -8.578501 -8.645 -7.995 -7.2965 -5.343 -6.567 -5.8885 -6.029 -5.4075 -4.763 
-11.688 -12.2784 -12.052 -14.0818 -15.0865 -10.5785 -13.1875 -9.812 -9.5175 -10.3285 -6.3325 -6.9185 -8.7085 -6.641 -7.519 -10.5635 -9.238001 -9.491501 -14.6685 -10.2985 -10.6475 -9.935501 -11.669 -12.1044 -8.645 -10.4035 -9.747001 -8.1145 -9.0755 -7.0075 -6.114 -7.5245 -5.4075 
-14.7404 -13.5974 -18.8763 -16.0533 -15.771 -15.1855 -14.1875 -11.0168 -12.0304 -10.3285 -7.2845 -9.846001 -10.7575 -7.519 -11.3674 -11.8673 -13.0088 -14.8454 -15.8335 -11.72 -10.6475 -16.4909 -15.0319 -12.1709 -10.4035 -12.1555 -10.429 -12.0262 -9.7635 -7.1945 -7.574501 -7.5245 
-3.1495 -3.535 -6.066 -2.4945 -4.168 -2.3345 -1.4985 -4.07 -3.593 -1.7565 -5.61 -1.756 -1.4985 -4.6905 -1.7565 -3.277 -2.4945 -3.4295 -1.7695 -3.9915 -1.4985 -5.2655 -1.7565 -5.34 -3.222 -1.4985 -4.4315 -4.3755 -1.7565 -1.4985 -3.729 0 
-6.235001 -8.6905 -7.701001 -5.465 -4.6945 -3.233 -5.664001 -6.9705 -4.507 -7.530001 -6.784 -3.0405 -5.3255 -5.9605 -4.25 -5.237 -5.442 -4.784 -4.583 -4.907 -6.5395 -6.182 -6.401 -7.288 -3.7835 -5.1515 -7.493001 -4.5345 -2.4195 -4.763 -3.729 
-11.7061 -10.419 -10.159 -5.8595 -5.223001 -7.7865 -9.290501 -8.616 -9.256001 -8.349001 -7.9095 -7.0735 -6.0805 -10.335 -5.3725 -8.056001 -5.845 -7.517 -5.414001 -8.984 -6.847001 -8.8545 -8.249001 -8.104 -6.828 -7.877 -7.677501 -4.799 -5.4075 -4.763 
-13.4346 -12.877 -10.323 -6.5115 -10.0315 -11.7456 -11.0606 -13.8276 -10.2285 -9.182501 -9.828 -7.943 -10.467 -11.4575 -8.092501 -8.662001 -9.088501 -8.2155 -9.411 -9.06 -9.148001 -9.676001 -9.026 -9.784 -9.5035 -7.989501 -7.857 -7.292 -5.4075 
-15.8926 -13.041 -10.975 -11.5272 -13.9906 -13.5157 -16.2722 -14.8001 -11.062 -11.5792 -10.6975 -12.4479 -11.5895 -14.1775 -8.7325 -12.0243 -9.877001 -12.4181 -9.474001 -10.758 -9.920501 -9.785 -10.6095 -12.4075 -9.599 -8.105 -9.701 -7.292 
-1.4985 -2.543 -5.61 -2.3335 -4.4205 -2.3615 -9.2705 -2.186 -4.9385 -1.934 -3.2775 -1.8085 -3.3755 -2.3335 -3.0365 -2.186 -3.757 -5.34 
-5.1495 -7.706501 -7.4585 -6.6 -6.638 -12.9202 -11.046 -6.113 -5.7735 -4.6915 -4.2505 -4.49 -4.8655 -4.2925 -3.66 -4.779 -9.938001 
-8.078001 -9.9455 -10.259 -8.726501 -17.8435 -14.6957 -14.973 -6.876501 -7.533501 -5.138 -5.564 -5.177 -7.287001 -4.7505 -5.7225 -10.533 
-10.1675 -12.746 -12.5739 -20.384 -19.619 -18.6227 -15.7365 -8.384001 -7.5825 -5.5935 -5.7495 -7.63 -7.645501 -6.917 -10.717 
-12.968 -15.0609 -24.2314 -22.1595 -23.546 -19.3862 -17.244 -8.4095 -7.736501 -5.785501 -7.706501 -7.9245 -9.581 -12.0991 
