-4.759 
n/a 
n/a 
n/a 
n/a 
-4.759 
n/a 
n/a 
n/a 
n/a 
-4.759 
n/a 
n/a 
n/a 
n/a 
-4.759 
n/a 
n/a 
n/a 
n/a 
-2.9805 -3.264 -2.3335 -3.091 -3.814 -4.2085 -2.882 -4.9395 -1.7695 -1.4985 -4.303 -4.3665 0 
-4.3595 -4.533 -4.9605 -6.097 -7.444 -7.2355 -6.953 -5.127501 -2.7955 -5.452001 -5.6325 -4.3665 
-5.5185 -6.522 -8.150001 -10.1508 -10.4425 -11.6883 -7.033 -5.6845 -6.6725 -6.757 -5.6325 
-7.3105 -9.9525 -12.4834 -13.1493 -14.8953 -11.7683 -7.704 -9.3225 -7.868 -6.757 
-10.6335 -14.3449 -15.4819 -17.6021 -14.9753 -12.4393 -11.625 -10.282 -7.868 
-2.8705 -4.5735 -4.9225 -2.4945 -4.3665 -2.9805 -3.264 
-7.056 -7.2555 -6.9525 -6.7795 -7.071501 -4.3595 
-10.316 -9.489 -11.5555 -9.421501 -7.953001 
-12.5495 -14.3574 -14.1975 -9.791501 
-17.4179 -16.9994 -14.5675 
-2.9805 -4.443 -3.091 -4.121 -3.7575 -5.3595 -3.768 -2.489 -4.5735 -4.3665 0 
-5.631001 -6.627 -5.304 -8.3655 -10.115 -8.3155 -4.333 -7.781 -8.1675 -4.3665 
-7.207 -9.033501 -9.434501 -14.929 -13.071 -8.836 -9.2965 -11.7024 -8.1675 
-9.3325 -13.5706 -16.0868 -17.885 -13.5915 -14.3993 -13.3097 -11.7024 
-13.8364 -20.2229 -19.0428 -18.4055 -19.1548 -18.4125 -13.3097 
-2.9805 -3.644 -3.091 -5.1165 -5.1215 -3.423 -2.489 -4.303 -4.3665 0 
-4.889 -6.083 -7.194 -8.3415 -8.002501 -4.122 -7.078 -5.6325 -4.3665 
-6.891 -10.586 -9.354 -11.3495 -8.713 -9.221001 -9.027 -5.6325 
-11.4704 -12.746 -12.447 -12.06 -13.9314 -10.622 -9.027 
-13.6304 -15.839 -13.1575 -17.2784 -15.3324 -10.622 
