-4.759 
n/a 
n/a 
n/a 
n/a 
-4.759 
n/a 
n/a 
n/a 
n/a 
-4.759 
n/a 
n/a 
n/a 
n/a 
-4.759 
n/a 
n/a 
n/a 
n/a 
-2.9805 -4.7595 -1.934 -3.6055 -4.3285 -1.756 -3.951 -2.3335 0 -3.6835 -2.186 -4.85 -7.696001 0 -3.6835 -3.3435 -3.3435 -3.9745 -2.186 -1.7695 -4.085 -4.903 0 
-6.097 -6.475 -4.8595 -7.652 -5.4645 -5.308001 -6.006001 -2.3335 -3.6835 -6.6825 -6.283501 -13.5632 -7.696001 -3.6835 -5.7725 -6.2355 -6.954 -5.909 -3.8745 -5.135 -9.3815 -4.903 
-7.577001 -9.796 -8.337001 -8.729 -7.54 -7.6485 -6.006001 -6.015 -6.6825 -10.0475 -15.6153 -13.5632 -12.0049 -5.7725 -9.070001 -9.8605 -8.964001 -7.4985 -6.7525 -9.689501 -9.3815 
-10.5125 -13.2735 -9.190001 -11.0045 -9.448 -7.6485 -10.071 -8.664001 -10.0475 -19.4843 -15.6153 -17.8721 -14.0939 -9.070001 -12.904 -12.0789 -10.533 -10.4505 -12.1028 -9.689501 
-13.99 -14.1265 -11.6521 -12.9125 -9.448 -11.7935 -13.0034 -10.7495 -19.4843 -19.4843 -19.9242 -19.9611 -17.3914 -12.904 -15.1224 -13.6479 -13.485 -15.8008 -12.1028 
-3.6835 -5.164 -4.7715 -5.179 -4.9635 -3.9745 -1.756 -1.7695 -5.2275 -2.3615 -3.9745 -2.186 -1.4985 -3.9455 -1.7565 -3.3435 -1.756 -2.3615 -2.186 -5.2825 -2.3345 -3.595 -3.3255 -3.091 -4.3285 -1.756 -3.091 -5.229 0 
-5.399 -9.3085 -9.852501 -9.113501 -6.864 -5.1055 -3.963 -5.7185 -7.158 -6.233 -5.909 -3.339 -4.901 -5.413 -4.4105 -4.576 -4.4615 -3.5005 -6.854501 -6.9065 -5.597 -6.2075 -5.462501 -6.0005 -5.4645 -4.2995 -6.418 -5.229 
-9.408501 -14.5415 -14.1352 -11.3906 -7.791 -7.269 -7.4945 -7.5865 -11.4055 -7.4165 -6.8545 -6.4775 -5.58 -8.340501 -5.483 -7.001 -5.0895 -8.887 -8.003 -9.9665 -8.0635 -7.217 -8.5045 -7.254 -8.000501 -7.665501 -6.418 
-14.6935 -18.8242 -16.4123 -12.3176 -9.4095 -11.0433 -9.7935 -11.9932 -12.589 -8.764 -10.051 -6.8385 -8.545 -9.535501 -7.843 -7.587 -9.854 -9.521501 -11.1842 -12.6422 -9.06 -10.7025 -9.491 -8.633 -11.4911 -7.665501 
-18.9762 -21.1013 -17.3393 -13.9361 -13.294 -13.3423 -14.2626 -13.1767 -13.9365 -12.0251 -10.409 -9.629001 -9.663 -11.9693 -8.551001 -12.5843 -10.637 -12.8353 -13.8599 -13.6387 -12.6171 -11.689 -10.9656 -12.213 -11.4911 
-1.934 -3.091 -4.3285 -1.756 -3.091 -3.881 -2.9805 -4.4715 -4.1585 -2.3335 -1.4985 -3.9745 -1.7565 -5.3435 -2.186 -6.3735 -1.756 -1.4985 -3.3755 -1.7565 -5.265 -1.4985 -5.547 -2.186 -1.4985 -3.535 -3.909 -1.7565 -3.6385 -3.3435 0 
-4.2105 -6.0005 -5.4645 -4.2995 -6.9725 -7.235001 -7.344 -8.682001 -5.438 -3.3515 -4.7475 -4.5865 -5.8395 -6.795 -9.6875 -9.3535 -3.0405 -4.057 -4.5295 -6.3605 -6.1485 -6.9645 -7.4195 -3.339 -4.255 -7.798 -5.6805 -5.035 -7.4165 -3.3435 
-6.509 -7.254 -8.000501 -8.428 -10.8007 -11.9277 -10.1385 -10.4505 -6.228 -6.627501 -4.8625 -8.2045 -7.361001 -14.7341 -13.2945 -10.452 -5.713 -5.3375 -6.8985 -7.2695 -10.4675 -8.960501 -8.538 -5.657 -8.189501 -9.0805 -8.981001 -8.814 -7.4165 
-8.0085 -8.633 -12.2536 -12.4832 -15.4934 -14.7222 -11.907 -11.2405 -10.031 -6.6955 -8.5195 -9.5255 -15.5387 -18.3411 -14.393 -13.1245 -7.1815 -8.8325 -7.769001 -11.7517 -12.7077 -10.2435 -10.9832 -9.386001 -9.214001 -12.4468 -13.5428 -8.814 
-9.548 -12.9755 -16.3088 -17.1759 -18.2879 -16.4907 -12.697 -15.0435 -10.238 -9.7285 -9.9125 -17.7572 -19.1457 -19.4396 -17.0655 -14.593 -10.122 -9.698501 -12.3454 -13.9919 -13.9907 -12.6887 -14.7122 -10.355 -12.4931 -17.0086 -13.5428 
-3.6835 -5.164 -2.186 -1.8085 -5.0715 -4.221 -1.934 -2.985 -6.423 0 -3.1495 -4.0275 -4.066 -2.9905 -2.3345 -1.4985 -3.6835 -5.164 -3.115 -4.762 -2.9805 -3.264 -1.934 -2.5685 -1.7565 -1.4985 -5.5395 -1.756 -4.116 0 
-5.399 -7.0445 -3.164 -8.246 -9.6695 -6.1575 -4.111 -8.5375 -6.423 -3.1495 -7.630501 -9.401001 -5.3895 -5.014501 -3.233 -4.7155 -5.399 -7.5105 -8.608 -8.651501 -4.3595 -4.965 -4.244 -3.887 -2.4195 -6.727 -6.620501 -5.7505 -4.116 
-7.223001 -8.088 -9.632001 -13.1836 -10.357 -7.8295 -9.8205 -8.5375 -9.377001 -7.630501 -13.4698 -10.9715 -8.131001 -5.622 -6.4225 -7.250501 -7.796 -13.3351 -12.7481 -10.048 -5.969501 -7.572001 -5.389 -4.34 -7.841001 -7.909501 -11.432 -5.7505 
-8.219501 -14.8058 -14.7528 -13.8711 -12.2508 -13.876 -9.8205 -11.6261 -13.941 -13.4698 -15.0403 -13.713 -8.9205 -8.7565 -9.021 -9.869 -13.7778 -17.4752 -14.1446 -11.658 -8.326 -8.732 -5.9585 -9.747 -8.9825 -13.018 -11.432 
-15.0097 -19.9266 -15.4403 -15.7649 -18.2973 -13.876 -12.9461 -16.1901 -19.7803 -15.0403 -17.7818 -14.5025 -12.4328 -11.6118 -11.7207 -16.0634 -17.9179 -18.8717 -15.7546 -14.0145 -9.609001 -9.356501 -11.6725 -10.3845 -14.0814 -13.018 
