-4.759 
n/a 
n/a 
n/a 
n/a 
-4.759 
n/a 
n/a 
n/a 
n/a 
-4.759 
n/a 
n/a 
n/a 
n/a 
-4.759 
n/a 
n/a 
n/a 
n/a 
-12.16972 -3.801 -1.756 -5.1845 -4.891 -4.0695 
-15.97072 -5.3585 -7.0085 -6.988 -9.119 
-17.52822 -11.6936 -8.911 -11.9204 
-23.86332 -13.5961 -13.9244 
-25.76582 -18.6095 
-5.1845 -7.383 -3.801 -1.756 -4.0695 -1.7565 -4.891 -5.1845 -6.844 
-10.078 -11.9262 -5.3585 -5.639 -5.2105 -7.001501 -9.155001 -6.9655 
-14.7414 -13.4837 -8.269501 -7.2315 -8.76 -11.9053 -10.032 
-16.2989 -16.3947 -9.500001 -11.005 -14.0956 -12.7823 
-19.2099 -17.6252 -13.7987 -16.3406 -14.9726 
-12.16972 -3.801 -1.756 -6.772 -4.0695 
-15.97072 -5.3585 -8.755001 -10.3225 
-17.52822 -13.4401 -12.4873 
-25.60982 -17.1724 
-29.34212 
-3.801 
n/a 
n/a 
n/a 
n/a 
