-4.759 
n/a 
n/a 
n/a 
n/a 
-4.759 
n/a 
n/a 
n/a 
n/a 
-4.759 
n/a 
n/a 
n/a 
n/a 
-4.759 
n/a 
n/a 
n/a 
n/a 
-3.506 0 -8.759501 -10.5895 -3.193 
-3.506 -8.759501 -19.6556 -13.7825 
-13.8465 -19.6556 -22.8486 
-24.7426 -22.8486 
-27.9356 
-3.506 0 -8.759501 -3.3365 -4.4515 -3.193 
-3.506 -8.759501 -12.4026 -5.861 -7.463 
-13.8465 -12.4026 -14.9271 -7.817 
-17.4896 -14.9271 -16.8831 
-20.0141 -16.8831 
-3.506 -8.759501 -8.2275 -3.193 
-13.8465 -17.2936 -9.8655 
-22.3806 -18.9316 
-24.0186 
n/a 
-3.506 0 -9.738001 -3.3365 -4.4515 -3.193 
-3.506 -9.738001 -13.5965 -5.861 -7.463 
-14.825 -13.5965 -16.121 -7.817 
-18.6835 -16.121 -18.077 
-21.208 -18.077 
