-4.759 
n/a 
n/a 
n/a 
n/a 
-4.759 
n/a 
n/a 
n/a 
n/a 
-4.759 
n/a 
n/a 
n/a 
n/a 
-4.759 
n/a 
n/a 
n/a 
n/a 
-5.693 -3.1385 -5.0075 -1.7695 -3.93 -5.891 
-8.501 -8.8325 -5.113 -5.515501 -8.108 
-14.2954 -8.933001 -9.658 -9.585 
-14.3959 -13.7262 -13.7477 
-19.1891 -17.8159 
-1.4985 -3.1385 -1.7565 -4.5065 -3.152 -3.4155 0 
-4.2575 -4.861 -6.2555 -8.011001 -6.0265 -3.4155 
-5.1835 -8.342001 -9.33 -11.0365 -6.0265 
-8.5825 -11.7191 -12.3517 -11.0365 
-12.062 -14.7408 -12.3517 
-3.17 -1.7565 -3.277 -2.4945 -5.693 -2.229 
-4.179 -4.25 -5.237 -8.7255 -8.639 
-5.4445 -5.3725 -10.5135 -11.9449 
-6.1755 -10.5425 -13.7329 
-11.5065 -13.7619 
-3.17 -1.7565 -1.4985 -5.3745 -3.1385 
-4.179 -2.4195 -6.226001 -8.303 
-4.497 -7.085001 -8.6745 
-9.569 -9.2475 
-11.7315 
