-4.759 
n/a 
n/a 
n/a 
n/a 
-4.759 
n/a 
n/a 
n/a 
n/a 
-4.759 
n/a 
n/a 
n/a 
n/a 
-4.759 
n/a 
n/a 
n/a 
n/a 
-4.9335 -6.8405 -4.69 
-13.2374 -12.5201 
-18.917 
n/a 
n/a 
-3.301 -4.2685 -2.7765 -2.6165 -4.2215 -2.0935 -3.469 -2.95 
-7.655 -6.809 -4.9255 -6.133 -5.409501 -5.214 -4.7535 
-10.322 -9.190001 -7.429001 -7.0325 -7.642001 -6.855 
-12.6988 -11.9631 -9.167001 -9.02 -9.845501 
-15.4719 -13.7011 -10.3045 -10.7973 
-4.9335 -3.013 -2.6165 -4.63 -3.469 -3.4795 
-8.771 -3.724 -6.007501 -8.2615 -6.654 
-9.4455 -6.66 -10.1075 -12.0023 
-12.5387 -11.0144 -14.0907 
-16.8931 -14.9976 
-4.467 -1.7565 -8.061001 -3.4405 -2.6165 -4.439 -2.5045 -3.469 -2.95 0 
-6.684 -10.2335 -12.0263 -3.7415 -5.0715 -6.1995 -4.66 -4.7535 -2.95 
-15.4994 -14.1988 -12.3273 -5.1985 -7.1105 -7.8625 -7.624001 -4.7535 
-19.4647 -14.4998 -13.7843 -7.4075 -9.1785 -11.4191 -7.624001 
-19.7657 -15.9568 -15.9933 -9.6365 -12.4543 -11.4191 
