-4.759 
n/a 
n/a 
n/a 
n/a 
-4.759 
n/a 
n/a 
n/a 
n/a 
-4.759 
n/a 
n/a 
n/a 
n/a 
-4.759 
n/a 
n/a 
n/a 
n/a 
-1.4985 -4.847 -1.7565 -5.054 -3.326 0 -1.4985 -3.6065 -4.008 -1.7565 -4.161 -3.335 -1.7695 -2.791 -2.3335 -1.4985 -5.8445 -1.7565 -1.4985 -12.16972 -4.764 -2.186 -4.513 -3.098 -3.433 -1.7565 -1.4985 -4.715 -1.7565 -3.1495 -6.7355 -2.356 -1.4985 -4.4515 0 
-5.939 -6.0235 -6.1705 -7.641001 -3.326 -1.4985 -4.8665 -6.296 -5.25 -5.6765 -6.8725 -5.691501 -4.385 -5.05 -3.3515 -6.6695 -6.7965 -2.4195 -14.76202 -16.93372 -6.341001 -6.131001 -7.7725 -5.6145 -4.1845 -2.4195 -6.049001 -6.135 -3.914 -8.5915 -8.644501 -3.1615 -5.0235 -4.4515 
-6.4345 -11.4077 -8.594501 -7.641001 -5.3015 -4.8665 -7.272 -6.903 -8.566501 -9.75 -11.0602 -8.2165 -5.9525 -5.9655 -8.3065 -7.232501 -7.114 -15.87382 -19.52602 -18.51072 -10.103 -8.615001 -9.703 -6.309 -4.6515 -6.844501 -6.718501 -7.829 -9.1 -10.7519 -9.8345 -6.978001 -5.0235 
-11.8657 -13.8317 -8.594501 -9.458 -8.169001 -7.272 -7.982 -9.84 -12.853 -14.3441 -13.5852 -9.252501 -6.874001 -11.1005 -8.677501 -7.420501 -21.03732 -20.63782 -21.10302 -22.27272 -12.587 -10.2645 -10.306 -6.68 -8.744 -7.6415 -8.157001 -13.3564 -11.343 -11.9419 -13.7056 -6.978001 
-14.2897 -13.8317 -10.2865 -12.3255 -10.354 -7.982 -11.038 -14.0739 -17.4471 -16.8691 -14.6212 -10.354 -12.219 -11.4715 -8.804501 -21.44482 -25.80132 -22.21482 -24.86502 -24.75672 -14.2365 -10.8675 -10.555 -10.8501 -9.539001 -9.179501 -13.7134 -15.5994 -12.533 -15.813 -13.7056 
-2.3345 -5.3525 -3.4515 -3.335 -2.3335 -3.5965 -4.418 -3.299 -4.1705 -3.6955 -2.356 -4.4515 -2.229 -4.1215 -2.9705 -3.6845 -1.8085 -3.4625 -1.934 -3.995 -3.3435 -4.254 
-6.903501 -9.614 -5.693501 -4.79 -6.4255 -8.864 -8.036501 -6.346001 -8.6045 -5.198 -7.3175 -6.22 -6.146501 -7.0805 -6.2615 -4.7885 -4.803 -4.565 -6.139 -7.265 -5.9875 
-11.6264 -11.972 -6.021 -8.934 -12.0848 -12.7187 -11.4141 -11.4548 -10.4035 -10.8977 -8.858001 -9.805 -9.1285 -10.7025 -7.2625 -8.719001 -5.292 -8.443501 -8.760501 -9.4875 
-13.9844 -12.2995 -10.0885 -14.8115 -15.9395 -16.0963 -16.5229 -13.2538 -16.3472 -12.4382 -12.6776 -12.8998 -12.8161 -11.7035 -11.7278 -9.564501 -9.646 -11.7304 -11.2634 
-14.3119 -16.367 -15.966 -18.6662 -19.3171 -21.2051 -18.3219 -19.1975 -17.8877 -16.2578 -15.7724 -16.5874 -13.8171 -16.1688 -12.5733 -13.9083 -13.5093 -14.2333 
-4.2665 -3.833 -3.335 -2.3335 -1.4985 -4.4385 -1.7565 -1.4985 -3.995 -2.5045 -6.884501 -3.851 -1.7695 -1.4985 -5.0405 -1.4985 -4.828 -4.0545 -8.585 -1.4985 -4.4515 
-6.2845 -5.945 -4.79 -3.3515 -5.331 -5.339001 -2.4195 -4.712 -6.1995 -9.4385 -11.0805 -4.0015 -2.7955 -6.252001 -6.7005 -5.8065 -8.915001 -13.7371 -9.0915 -5.0235 
-7.9495 -6.1595 -5.4685 -7.173 -5.516 -5.7165 -5.2205 -6.650001 -13.8013 -13.8841 -11.231 -4.5775 -7.528501 -8.028001 -11.3381 -10.298 -18.876 -14.2436 -12.7475 
-8.113 -7.087 -8.912001 -7.358 -5.9005 -7.665 -7.1695 -14.388 -18.2469 -14.0346 -11.807 -8.7355 -9.178 -12.8828 -15.8296 -20.259 -19.3825 -17.8996 
-8.98 -10.702 -9.053501 -7.525 -7.8985 -9.473001 -15.0235 -18.8336 -18.3974 -14.6106 -15.965 -10.9736 -14.219 -17.3743 -25.7906 -20.7655 -23.0385 
-4.3895 -2.186 -4.416 -1.756 -3.5965 -3.682 -8.5965 -4.4515 -1.756 -3.995 -1.934 -4.6855 -4.365 -4.4155 0 
-6.387 -7.683001 -5.995501 -5.135 -6.5525 -12.8515 -13.4745 -5.855 -5.736 -5.975 -6.476 -7.6405 -6.259 -4.4155 
-12.554 -9.1855 -10.7175 -8.4565 -17.1198 -18.3506 -15.572 -7.913001 -7.717 -11.2056 -10.757 -7.664001 -6.259 
-14.0565 -14.0785 -14.039 -19.304 -21.8201 -20.2133 -17.63 -9.446501 -13.1666 -15.4866 -10.7805 -7.664001 
-18.9495 -17.4 -24.8865 -24.0043 -23.6828 -22.2713 -19.1635 -14.9513 -17.4476 -15.5101 -10.7805 
