-4.759 
n/a 
n/a 
n/a 
n/a 
-4.759 
n/a 
n/a 
n/a 
n/a 
-4.759 
n/a 
n/a 
n/a 
n/a 
-4.759 
n/a 
n/a 
n/a 
n/a 
-1.934 -3.291 -3.3935 -3.748 -3.158 -3.995 -3.4715 -3.518 -1.934 -6.282 -4.35 -2.742 -5.3265 
-5.752 -6.1335 -5.4335 -6.5415 -7.8795 -7.091001 -5.662 -5.322001 -9.600501 -10.8025 -6.944 -6.239 
-8.975 -8.5835 -8.158501 -11.9462 -11.5693 -10.674 -6.9825 -13.4851 -14.6802 -13.3965 -9.654501 
-12.204 -11.6947 -13.5984 -15.636 -15.1523 -11.9945 -15.7736 -18.5648 -17.2742 -16.107 
-15.3152 -17.1346 -17.2882 -19.219 -16.4728 -20.7856 -20.8533 -21.1588 -19.9847 
-1.934 -1.4985 -3.291 -3.3935 -5.8465 -3.277 0 -1.4985 -3.4715 -1.934 -4.7885 -3.7345 -1.7565 -1.4985 -3.995 -2.742 -5.3265 0 
-2.6125 -3.9665 -6.1335 -7.509 -9.6905 -3.277 -1.4985 -4.574 -5.327 -6.4805 -5.866 -5.555 -2.4195 -4.712 -6.501 -6.239 -5.3265 
-4.871 -6.831501 -11.3244 -11.5606 -9.6905 -4.839 -4.574 -6.1555 -9.601501 -6.7035 -8.493 -6.284 -5.2205 -6.863 -9.3675 -6.239 
-7.757501 -13.2546 -15.376 -11.5606 -11.3871 -8.054001 -6.1555 -10.7308 -9.867001 -9.362 -8.951 -9.251 -7.468501 -10.0035 -9.3675 
-14.8174 -17.3062 -15.376 -13.2572 -14.6021 -9.691501 -10.7308 -10.9963 -12.5255 -10.1995 -12.1938 -11.6092 -10.8892 -10.0035 
-3.291 -3.3935 -5.8465 -3.277 -3.2615 -3.4715 -3.8825 -1.934 -3.995 -4.418 -2.742 -2.489 -4.021 -2.489 -4.9345 0 
-6.1335 -7.509 -9.6905 -5.1005 -7.269501 -7.6265 -4.9695 -6.139 -8.7705 -6.8585 -3.301 -6.562 -5.521 -5.9115 -4.9345 
-11.3244 -11.5606 -11.6486 -9.514501 -11.9635 -8.0415 -9.175 -11.8017 -11.6238 -7.324 -6.8415 -8.134001 -8.604501 -5.9115 
-15.376 -13.5187 -16.0626 -14.3527 -12.3785 -12.6156 -15.3291 -14.655 -12.0893 -11.1613 -8.2535 -11.3227 -8.604501 
-17.3341 -17.9327 -20.9008 -14.7677 -16.9526 -18.7697 -18.1824 -15.1205 -15.9266 -12.5733 -11.4964 -11.3227 
-1.934 -1.4985 -3.291 -4.674 -5.8465 -3.277 -2.5685 -1.4985 -3.4715 -2.264 -1.4985 -4.1455 -1.7565 -1.4985 -3.995 -3.1425 -2.674 -5.8415 0 
-2.6125 -3.9665 -7.3915 -8.995501 -9.6905 -6.1475 -3.7015 -4.574 -5.7995 -2.9195 -4.870501 -5.11 -2.4195 -4.712 -6.5265 -4.2225 -7.011001 -5.8415 
-4.871 -7.412001 -12.794 -13.0997 -12.6956 -7.2665 -6.795 -6.783 -6.2515 -5.568 -5.3985 -5.3235 -5.2205 -7.263 -7.8615 -8.479 -7.011001 
-8.342001 -12.9379 -16.8982 -16.1048 -13.8146 -10.396 -8.453 -7.206501 -7.8165 -5.951 -5.6005 -6.671 -7.914001 -8.284 -12.2996 -8.479 
-14.1661 -17.0421 -19.9033 -17.2238 -16.9441 -12.054 -8.878 -8.847 -8.169001 -6.194 -6.712501 -8.892501 -8.9875 -12.9021 -12.2996 
