-4.759 
n/a 
n/a 
n/a 
n/a 
-4.759 
n/a 
n/a 
n/a 
n/a 
-4.759 
n/a 
n/a 
n/a 
n/a 
-4.759 
n/a 
n/a 
n/a 
n/a 
-3.1495 -3.152 -3.402 -2.264 -1.4985 -3.299 -4.2695 -1.7565 -4.205 0 
-5.3825 -5.924 -3.793 -2.9195 -4.5915 -9.161501 -5.809 -5.6205 -4.205 
-7.992001 -6.0325 -4.34 -5.9595 -10.208 -10.0715 -10.028 -5.6205 
-8.0765 -6.643 -7.507 -12.1168 -10.45 -14.2905 -10.028 
-8.624001 -9.8415 -14.0531 -12.3588 -14.669 -14.2905 
-2.8645 -3.7555 -3.299 -4.1195 -1.934 -3.729 -3.594 
-5.647 -6.976 -6.932 -6.3435 -5.498 -7.616 
-9.05 -8.585 -8.139 -10.717 -9.894001 
-10.7958 -10.494 -12.7359 -15.113 
-12.7048 -15.0909 -17.1319 
-3.45 -3.7865 -2.4945 -3.299 -3.518 -5.1125 0 
-7.965 -6.6215 -5.663 -4.972 -9.418 -5.1125 
-9.4825 -9.588 -7.684501 -11.4632 -9.418 
-12.6664 -12.1345 -14.2909 -11.4632 
-15.2129 -18.7409 -14.2909 
-3.1495 -4.4215 -4.9395 -1.7695 -1.4985 -4.4745 -4.77 -1.7565 -4.205 0 
-6.575 -8.823 -5.127501 -2.7955 -4.774 -8.700001 -5.429 -5.6205 -4.205 
-9.894001 -8.889001 -5.6845 -6.2365 -8.841001 -9.0985 -9.257501 -5.6205 
-9.957001 -9.198001 -9.294001 -10.647 -9.138 -13.2074 -9.257501 
-10.289 -12.8467 -13.6231 -10.944 -13.2593 -13.2074 
