-4.759 
n/a 
n/a 
n/a 
n/a 
-4.759 
n/a 
n/a 
n/a 
n/a 
-4.759 
n/a 
n/a 
n/a 
n/a 
-4.759 
n/a 
n/a 
n/a 
n/a 
-5.1845 -3.1385 -1.7695 -4.09 -4.3075 -3.213 -3.5455 -3.5905 -3.5215 
-7.4095 -4.6115 -7.014 -9.4215 -7.231501 -6.1675 -7.994501 -6.4605 
-8.9575 -10.209 -12.6415 -12.4051 -10.6215 -10.5635 -9.959001 
-14.7628 -16.0141 -15.6251 -15.7951 -15.0175 -12.528 
-20.5679 -18.9977 -19.0151 -20.1911 -16.982 
-5.2915 -3.594 -2.7415 -4.09 -2.5195 -4.5735 -3.4795 -2.3345 -9.6365 
-8.496 -6.443501 -5.289001 -6.1025 -6.318501 -7.4725 -6.063 -12.3016 
-11.6367 -8.8555 -7.068501 -9.1 -8.588501 -9.147 -16.5355 
-14.0487 -9.943001 -10.181 -11.4376 -10.4532 -20.3033 
-15.1362 -13.7051 -12.6396 -13.3023 -21.6095 
-3.0365 -2.4945 -3.3715 -3.729 -3.433 -2.7415 -4.834 -2.3345 -5.1845 -4.9225 0 
-3.688 -4.846 -7.5085 -6.64 -6.244 -5.984 -6.04 -7.449 -9.13 -4.9225 
-4.8765 -9.151001 -11.0851 -9.646 -10.0035 -6.962 -10.702 -11.9015 -9.13 
-9.182501 -12.7834 -14.0911 -13.4055 -11.0579 -11.8268 -15.1545 -11.9015 
-12.8301 -15.7894 -17.8506 -14.4599 -15.9227 -16.2793 -15.1545 
-2.5195 -1.4985 -6.4185 -3.4795 -4.179 -1.4985 -6.0675 -3.594 -4.09 -2.3345 -8.27 
-3.1695 -6.940001 -6.943 -8.9725 -5.568501 -7.479 -8.851501 -7.8365 -4.8155 -9.927501 
-8.265 -7.12 -12.8456 -10.4595 -11.7358 -10.4185 -13.4696 -8.4445 -13.0437 
-8.3725 -13.1582 -14.3326 -16.6268 -14.6753 -15.0366 -14.0776 -17.1017 
-14.5147 -14.6452 -20.4999 -19.5663 -19.2934 -15.6446 -22.7348 
