-4.759 
n/a 
n/a 
n/a 
n/a 
-4.759 
n/a 
n/a 
n/a 
n/a 
-4.759 
n/a 
n/a 
n/a 
n/a 
-4.759 
n/a 
n/a 
n/a 
n/a 
-5.42 -5.1845 -4.245 -6.2775 -3.383 -4.4695 -5.154 -1.7565 -8.781501 -9.8555 0 
-11.3331 -7.991 -11.4883 -9.5245 -6.6995 -7.611 -6.660501 -10.4265 -19.284 -9.8555 
-14.1396 -15.5537 -14.7353 -12.841 -9.502001 -8.861 -16.0235 -21.166 -19.284 
-21.7023 -18.8007 -18.0518 -15.6435 -10.3975 -18.4056 -26.763 -21.166 
-24.9493 -22.1172 -20.8543 -16.539 -19.9421 -29.1451 -26.763 
-8.038501 -7.211 -2.186 -4.1205 -2.5045 -4.2245 -1.934 -3.8825 -5.1845 -4.245 0 
-9.543501 -9.636001 -5.007 -5.3175 -6.544001 -4.929 -6.4035 -9.504001 -7.991 -4.245 
-12.0733 -12.5936 -6.317 -9.9585 -7.6415 -10.3885 -12.6142 -12.5395 -7.991 
-15.0309 -13.9036 -11.3122 -10.423 -13.4546 -16.7646 -15.6497 -12.5395 
-16.3409 -18.8988 -11.7767 -16.7029 -19.8307 -19.8001 -15.6497 
-8.781501 -7.211 -2.186 -4.1205 -2.5045 -1.4985 -4.0885 -5.154 -1.7565 -5.1845 -4.245 0 
-9.938001 -9.636001 -5.007 -5.3175 -3.583 -4.856 -8.498 -6.660501 -6.580501 -7.991 -4.245 
-12.4334 -12.5936 -6.317 -6.431 -6.321 -9.151 -8.992001 -10.354 -8.729001 -7.991 
-15.391 -13.9036 -7.1455 -9.0435 -9.8505 -9.2955 -13.1043 -12.6847 -8.729001 
-16.701 -14.7321 -9.665501 -12.6472 -9.936501 -13.4014 -15.435 -12.6847 
-5.5965 -5.1845 -6.05 -5.5455 -4.235 -2.186 -8.038501 -8.395 0 
-11.753 -10.2385 -12.5291 -8.554001 -5.9235 -11.117 -10.254 -8.395 
-16.807 -16.7176 -15.5376 -10.4709 -15.2967 -13.3325 -10.254 
-23.2861 -19.7261 -17.4545 -19.8441 -17.5122 -13.3325 
-26.2946 -21.643 -26.8277 -22.0596 -17.5122 
