-4.759 
n/a 
n/a 
n/a 
n/a 
-4.759 
n/a 
n/a 
n/a 
n/a 
-4.759 
n/a 
n/a 
n/a 
n/a 
-4.759 
n/a 
n/a 
n/a 
n/a 
-6.009 -4.0555 -1.7695 -3.3785 -2.3335 -1.4985 -4.2135 -3.152 -4.75 -1.934 -4.3905 -1.4985 -4.4095 -1.7565 -2.985 -4.348 -3.3235 -3.436 -2.985 -4.3855 
-9.6555 -4.7475 -4.1685 -4.4185 -3.3515 -5.2425 -7.19 -6.4525 -4.981 -6.117 -5.1855 -5.283 -5.1885 -3.9355 -6.8815 -8.239 -5.969 -5.868 -7.354001 
-9.93 -6.7225 -5.311501 -5.4075 -6.8235 -7.3145 -10.204 -6.649 -9.1025 -6.7765 -7.868 -5.4395 -6.724 -7.800001 -10.298 -10.022 -8.039001 -8.984501 
-12.7048 -7.535 -6.289001 -8.7405 -8.093 -10.3605 -10.3555 -10.8823 -9.638 -9.468 -7.983 -6.7635 -9.8295 -11.2477 -12.081 -12.1838 -9.185501 
-13.5173 -8.330501 -9.692 -10.0315 -11.2656 -10.564 -14.5888 -11.4178 -12.3249 -9.623501 -9.7395 -9.977501 -13.2922 -13.0307 -14.2428 -13.3303 
-3.3715 -3.277 -3.436 -1.4985 -4.493 -1.7565 -4.034 0 -7.315001 -4.4455 -2.7455 -2.985 -3.9555 -4.257 -4.547 0 
-4.9255 -5.4395 -4.213 -6.927 -7.232 -5.4725 -4.034 -7.315001 -12.4001 -5.9405 -4.943 -7.114501 -9.571001 -8.9545 -4.547 
-6.768001 -6.117001 -9.2015 -8.071501 -11.4252 -5.4725 -10.932 -12.4001 -13.8951 -8.082001 -8.784 -13.066 -14.2685 -8.9545 
-7.596001 -11.4081 -10.3615 -12.4647 -11.4252 -12.7583 -16.0171 -13.8951 -16.0366 -12.0406 -15.3495 -17.7635 -14.2685 
-12.9287 -12.5681 -14.7547 -12.4647 -18.711 -17.8434 -17.5121 -16.0366 -19.9952 -18.6061 -20.047 -17.7635 
-3.849 -3.277 -3.436 -1.4985 -4.652 -1.7565 -4.2135 0 -7.572001 -4.4455 -1.4985 -3.9555 -3.3825 -1.7565 -2.985 -4.795 0 
-5.126 -5.4395 -4.213 -5.639501 -6.776501 -5.7025 -4.2135 -7.572001 -12.5245 -5.6495 -5.385 -7.356501 -4.3095 -3.9355 -6.995 -4.795 
-6.831 -6.117001 -8.0675 -6.973001 -11.4757 -5.7025 -12.8475 -12.5245 -13.7285 -10.111 -7.8985 -7.7305 -6.4095 -7.868001 -6.995 
-7.603 -10.218 -8.624001 -11.9352 -11.4757 -14.9645 -17.8 -13.7285 -18.19 -12.7387 -7.9975 -10.4675 -10.9904 -7.868001 
-11.7682 -10.561 -14.1126 -11.9352 -20.7377 -19.917 -19.004 -18.19 -20.8177 -12.8377 -10.9029 -15.0484 -10.9904 
-4.559 -4.4895 -4.034 -4.0415 -4.547 -3.4765 -3.436 -1.4985 -4.6225 
-9.004 -9.164 -6.847001 -7.555 -7.9835 -5.639 -4.213 -5.606501 
-13.9013 -12.3252 -11.9975 -11.5401 -9.880501 -6.1835 -7.24 
-17.0625 -17.4757 -15.9826 -13.4371 -10.222 -8.954 
-22.213 -21.4608 -17.8796 -13.7786 -12.9925 
