-4.759 
n/a 
n/a 
n/a 
n/a 
-4.759 
n/a 
n/a 
n/a 
n/a 
-4.759 
n/a 
n/a 
n/a 
n/a 
-4.759 
n/a 
n/a 
n/a 
n/a 
-8.1485 -3.9675 -2.674 -11.0905 0 -4.207 -3.7865 0 -4.613 -2.3335 -3.6135 -6.2715 0 -2.0935 -5.5825 -3.237 -7.281 -3.9285 -2.3615 
-10.316 -7.0455 -15.3063 -11.0905 -4.207 -8.512001 -3.7865 -4.613 -6.073 -5.8325 -11.2144 -6.2715 -2.0935 -8.135 -9.170501 -11.6956 -11.7299 -6.339 
-13.394 -20.0404 -15.3063 -15.2975 -8.512001 -8.512001 -8.466001 -6.073 -9.7915 -13.705 -11.2144 -8.711 -8.135 -12.0584 -18.3409 -16.1445 -14.1404 
-26.3889 -20.0404 -19.5133 -19.6025 -8.512001 -13.6919 -9.7745 -9.7915 -18.5706 -13.705 -13.6539 -14.9843 -12.0584 -21.2288 -22.7898 -18.555 
-26.3889 -24.2474 -23.8183 -19.6025 -13.6919 -15.0004 -13.6096 -18.5706 -18.5706 -16.1445 -19.9272 -18.9077 -21.2288 -25.6777 -25.2003 
-5.1845 -3.1385 -4.0875 -3.355 -1.756 -3.43 -3.77 -1.7695 -4.0585 -1.4985 -8.863001 -2.229 -3.9675 0 -4.692 0 -4.5335 -3.7865 0 -3.433 -1.7565 -3.59 -4.0815 -3.914 
-7.4095 -6.646501 -5.7705 -5.5415 -5.055 -5.3825 -4.2755 -4.6165 -4.7185 -10.523 -11.676 -6.094501 -3.9675 -4.692 -4.692 -4.5335 -9.8655 -3.7865 -3.433 -5.7975 -5.59 -8.269001 -8.6455 
-11.2939 -7.413001 -7.5875 -8.540501 -8.5675 -7.731 -5.714 -5.2205 -14.5534 -13.336 -15.5415 -6.094501 -8.4275 -4.692 -9.434501 -9.8655 -9.8655 -6.84 -5.7975 -10.5325 -9.925 -13.176 
-12.0604 -9.009501 -9.2375 -12.3066 -9.154 -8.855 -7.211 -15.2278 -17.3664 -17.2015 -15.5415 -10.6215 -8.4275 -9.434501 -15.2601 -9.8655 -13.0396 -9.765501 -10.5325 -14.8675 -15.6132 
-13.6569 -10.7727 -13.4044 -12.8931 -10.0385 -10.361 -17.3359 -18.0408 -21.2319 -17.2015 -20.0685 -10.6215 -13.5622 -15.2601 -15.2601 -13.0396 -15.9651 -14.9747 -14.8675 -20.5557 
-2.4265 -4.0935 -3.8935 -4.5485 -1.756 -4.26 -3.59 -3.914 0 -8.1485 -3.9675 -4.245 0 -4.062 -3.7865 -1.756 -4.4985 -2.9705 -2.4945 -1.4985 -4.845 -4.8975 -1.756 -1.4985 -3.237 -5.037 -3.681 0 
-5.351 -7.799 -9.5295 -6.1455 -5.7575 -8.917 -8.2165 -3.914 -8.1485 -10.316 -7.158 -4.245 -4.062 -5.1635 -4.7705 -5.771 -7.445001 -4.302 -3.9315 -5.242001 -10.9863 -5.886 -3.0405 -4.1875 -8.7775 -10.674 -3.681 
-8.962501 -13.8994 -11.3619 -9.602501 -10.304 -13.8395 -8.2165 -13.3989 -10.316 -13.5065 -7.158 -8.024 -5.1635 -6.565001 -10.4021 -8.599501 -9.1155 -5.821 -7.8865 -11.8339 -11.9748 -7.224 -5.4675 -8.967501 -14.2739 -10.674 
-15.2247 -15.7318 -14.8189 -14.3566 -15.4525 -13.8395 -17.7508 -15.5664 -13.5065 -13.5065 -10.2695 -8.186501 -6.565001 -12.1432 -13.2306 -9.507 -9.951501 -9.165001 -14.6364 -12.8224 -13.3128 -9.788 -9.814 -14.4571 -14.2739 
-17.0571 -19.1888 -19.573 -19.5051 -15.4525 -23.3738 -19.9183 -18.7569 -13.5065 -16.618 -10.319 -8.977501 -12.1432 -14.9717 -14.1381 -10.1015 -13.5501 -16.5207 -15.6249 -14.1604 -15.8768 -14.8607 -15.3776 -14.4571 
-5.1845 -3.9675 0 -4.245 0 -4.062 -3.7865 0 -4.613 -3.152 0 -3.6135 -4.77 -1.756 -4.9225 -4.667 0 -3.383 -4.079 -3.7855 -2.186 -12.16972 
-8.286 -3.9675 -4.245 -4.245 -4.062 -5.1635 -3.7865 -4.613 -7.732 -3.152 -3.6135 -8.6735 -5.909 -6.4555 -8.512501 -4.667 -3.383 -6.697001 -7.4285 -6.443501 -15.56612 
-8.286 -7.158 -4.245 -8.024 -5.1635 -5.1635 -8.466001 -7.732 -7.732 -6.7545 -8.6735 -9.899 -11.3881 -10.4185 -8.512501 -8.769501 -6.697001 -10.1385 -10.6549 -20.27922 
-11.7467 -7.158 -8.024 -8.186501 -5.1635 -10.718 -11.7764 -7.732 -11.6267 -12.2445 -9.899 -15.4625 -15.3511 -10.4185 -13.19 -12.3847 -10.1385 -13.3649 -24.49062 
-11.7467 -10.2695 -8.186501 -8.186501 -10.718 -14.0284 -11.7764 -11.6267 -17.1167 -13.47 -15.4625 -19.4255 -15.3511 -15.096 -16.8052 -15.8262 -13.3649 -27.20062 
