-4.759 
n/a 
n/a 
n/a 
n/a 
-4.759 
n/a 
n/a 
n/a 
n/a 
-4.759 
n/a 
n/a 
n/a 
n/a 
-4.759 
n/a 
n/a 
n/a 
n/a 
-6.557 -4.088 0 -4.494 -4.088 -3.4605 
-10.214 -4.088 -4.494 -9.026501 -8.231501 
-10.214 -9.196001 -9.026501 -13.447 
-15.805 -14.2947 -13.447 
-20.9037 -18.7152 
-6.557 -3.877 -3.5435 -2.229 -3.915 -3.4605 -2.0935 -3.877 
-10.368 -7.694 -4.973001 -5.349 -5.1545 -5.0435 -6.6485 
-14.3996 -10.4185 -6.332 -6.211 -6.2165 -8.8135 
-17.1241 -12.3171 -6.811501 -7.3765 -10.6583 
-19.0227 -12.7966 -8.898001 -12.7681 
-6.557 -4.497 0 -3.5435 -3.4605 
-11.7434 -4.497 -3.5435 -6.471001 
-11.7434 -8.613501 -6.471001 
-15.8599 -12.1674 
-19.4138 
-6.557 -3.873 -3.347 0 -3.5435 -3.915 -2.9825 -2.0935 -3.873 -3.347 
-10.151 -7.7015 -3.347 -3.5435 -6.313 -5.206 -4.7585 -5.872 -7.7015 
-14.1141 -7.7015 -7.745 -6.313 -8.5955 -6.35 -8.768001 -10.4059 
-14.1141 -12.5031 -11.3635 -8.5955 -9.179501 -11.0983 -13.7039 
-18.9157 -16.1216 -13.646 -9.179501 -14.7006 -16.0342 
