-4.759 
n/a 
n/a 
n/a 
n/a 
-4.759 
n/a 
n/a 
n/a 
n/a 
-4.759 
n/a 
n/a 
n/a 
n/a 
-4.759 
n/a 
n/a 
n/a 
n/a 
-5.036 -2.186 -1.934 -5.2825 -1.934 -5.4535 -3.319 -4.179 0 
-7.07 -4.0835 -7.0235 -6.969501 -8.0305 -9.288 -7.753 -4.179 
-8.7925 -8.981 -9.693001 -13.6222 -12.1528 -13.9884 -7.753 
-13.8178 -12.8625 -16.2909 -17.7445 -16.8532 -13.9884 
-17.9159 -19.4604 -20.4132 -22.4449 -16.8532 
-5.036 -3.7555 -1.4985 -3.9175 -1.934 -5.4535 -3.319 -3.3195 
-9.028501 -4.843 -4.6635 -6.211 -8.0305 -9.288 -6.578 
-9.753 -8.255501 -7.074 -12.8343 -12.1528 -10.0935 
-13.4056 -10.8846 -14.0099 -16.9566 -12.9583 
-16.0855 -17.8205 -18.1322 -17.7621 
-7.222 -1.4985 -4.2245 -1.7565 -5.4535 -3.319 -3.3195 0 
-8.223001 -5.2345 -5.277 -7.310501 -9.288 -6.578 -3.3195 
-10.559 -5.753 -11.7512 -10.621 -10.0935 -6.578 
-12.1035 -12.6252 -15.0617 -11.4265 -10.0935 
-18.8706 -15.9357 -15.8672 -11.4265 
-5.036 -4.612 -3.0835 -3.5015 -1.934 -3.992 -3.319 -3.3195 -3.074 0 
-9.041 -7.9305 -5.07 -4.704 -5.660501 -7.971 -6.578 -6.869 -3.074 
-13.4487 -10.611 -6.239501 -9.192 -9.967001 -9.8525 -10.243 -6.869 
-15.7716 -11.7805 -10.76 -13.5869 -11.9187 -13.6129 -10.243 
-16.9411 -16.301 -15.1549 -15.5386 -15.6791 -13.6129 
