-4.759 
n/a 
n/a 
n/a 
n/a 
-4.759 
n/a 
n/a 
n/a 
n/a 
-4.759 
n/a 
n/a 
n/a 
n/a 
-4.759 
n/a 
n/a 
n/a 
n/a 
-1.934 -5.823 0 -5.4175 -6.7085 0 -5.228 -3.5455 -1.4985 -8.337001 -4.6825 -2.229 -3.8405 -1.7565 -4.4745 -5.271 0 -3.034 -3.091 -3.859 -4.284 0 -12.8805 -3.5455 -1.4985 -4.2705 -1.7565 -2.985 -4.795 -3.736 0 -9.9965 -6.726501 0 
-7.6675 -5.823 -5.4175 -7.1765 -6.7085 -5.228 -8.38 -3.91 -9.344001 -9.747501 -6.669001 -6.798501 -4.563 -6.35 -8.382 -5.271 -3.034 -5.566 -5.9285 -7.1575 -4.284 -13.2805 -15.429 -3.91 -5.383 -5.4125 -3.9355 -7.784 -8.5515 -3.736 -9.9965 -10.143 -6.726501 
-7.6675 -10.089 -7.1765 -7.1765 -9.981001 -8.38 -8.6695 -10.7175 -9.999001 -11.7918 -10.1765 -7.276 -7.867 -9.138 -8.382 -7.949501 -5.566 -8.759501 -7.4425 -7.1575 -14.9687 -15.429 -15.7165 -7.597001 -5.585001 -6.822001 -9.146001 -9.325001 -8.5515 -10.575 -10.143 -10.143 
-10.1505 -10.1655 -7.1765 -10.0065 -10.4555 -8.6695 -15.6334 -11.3725 -12.0941 -15.2993 -10.2355 -9.23 -9.321501 -9.138 -10.5135 -10.6345 -8.759501 -9.6555 -7.4425 -18.134 -17.1172 -15.7165 -18.1475 -8.028001 -6.844 -10.3885 -10.382 -9.325001 -15.9723 -10.5935 -10.143 
-10.2295 -10.1655 -10.0065 -10.4725 -10.5415 -15.6334 -16.2884 -13.4676 -15.6016 -15.3583 -10.501 -10.1995 -9.321501 -11.4607 -13.1985 -13.828 -9.6555 -9.6555 -18.4578 -20.2825 -17.4047 -18.1475 -18.312 -8.991001 -10.388 -10.423 -10.382 -17.01 -15.9908 -10.5935 
-2.5045 -1.4985 -3.158 -1.7565 -5.823 -6.483 -5.228 -5.4175 -6.7085 -4.0835 -2.3615 -5.7105 -5.9185 -3.034 -3.091 -3.859 -4.284 -1.7565 -5.45 -3.736 -4.2215 0 
-3.1915 -4.178 -4.71 -8.364 -12.9066 -7.5245 -7.8955 -7.1765 -9.089001 -6.325001 -8.934501 -6.078 -9.099501 -5.566 -5.9285 -7.1575 -5.501501 -6.5825 -9.7675 -6.653 -4.2215 
-6.7915 -5.562 -12.1901 -15.5246 -13.9481 -8.234 -7.9805 -9.113501 -10.3105 -13.3456 -9.4505 -9.186 -11.7751 -8.759501 -7.4425 -8.2585 -9.5705 -10.382 -10.589 -6.653 
-8.347501 -13.5213 -19.3507 -16.5661 -14.6576 -8.304001 -9.469501 -10.368 -17.3311 -13.8616 -12.6631 -11.8832 -14.9686 -9.6555 -10.004 -12.5225 -14.616 -10.659 -10.589 
-16.435 -20.6819 -20.3922 -17.2756 -14.7276 -9.945001 -10.635 -17.3886 -17.8471 -17.0742 -15.3603 -15.0767 -15.8646 -12.4988 -14.5064 -17.568 -14.893 -10.659 
-1.934 -1.4985 -3.158 -5.823 0 -5.845 -5.228 -5.4175 -6.7085 -2.229 -3.859 -4.284 -6.942 -3.2615 -4.1685 -4.2705 -1.7565 -2.985 -4.795 -3.736 0 -4.281 -10.384 -8.9305 -4.424 
-2.6125 -4.178 -9.111501 -5.823 -5.845 -8.523001 -7.8955 -7.1765 -8.083501 -5.6585 -7.1575 -8.217001 -10.0925 -6.181 -6.151 -5.4125 -3.9355 -7.784 -8.5515 -3.736 -4.281 -14.9816 -19.3145 -13.5919 
-5.265 -9.295 -9.111501 -12.2686 -8.523001 -9.439501 -7.9805 -8.218 -10.757 -7.941 -9.867001 -10.76 -13.3096 -6.8375 -9.140501 -6.822001 -9.146001 -9.325001 -8.5515 -7.398 -14.9816 -23.9121 -23.9759 
-9.5115 -9.295 -15.7901 -14.9466 -9.439501 -9.51 -8.9845 -11.0885 -13.0395 -10.7835 -13.0126 -13.9771 -13.9661 -9.953 -10.6536 -10.3885 -10.382 -9.325001 -12.7953 -18.3258 -23.9121 -28.5735 
-9.5115 -16.0584 -18.4681 -15.8631 -9.51 -10.752 -12.2724 -13.371 -15.882 -13.9291 -16.2297 -14.6336 -17.0816 -11.5203 -14.2201 -10.423 -10.382 -13.833 -23.7231 -27.2563 -28.5735 
-1.934 -5.823 0 -5.4175 -6.7085 0 -5.228 -3.5455 -1.4985 -6.483 -4.6825 -2.229 -3.8405 -1.7565 -4.4745 -5.271 0 -3.091 -3.859 -4.284 0 -6.942 -5.9185 0 -4.424 -3.5455 -1.4985 -4.2705 -1.7565 -2.985 -5.7585 -3.736 -9.9965 -6.726501 0 
-7.6675 -5.823 -5.4175 -7.1765 -6.7085 -5.228 -8.38 -3.91 -7.096001 -7.482 -6.669001 -6.798501 -4.563 -6.35 -8.382 -5.271 -3.091 -5.9285 -7.1575 -4.284 -6.942 -7.795001 -5.9185 -4.424 -6.5725 -3.91 -5.383 -5.4125 -3.9355 -8.3755 -9.078501 -10.575 -10.143 -6.726501 
-7.6675 -10.089 -7.1765 -7.1765 -9.981001 -8.38 -8.6695 -8.557 -7.672 -9.576 -10.1765 -7.276 -7.867 -9.138 -8.382 -8.493501 -5.9285 -7.4425 -7.1575 -8.217001 -7.795001 -7.795001 -9.591001 -6.5725 -6.860001 -7.597001 -5.585001 -6.822001 -9.317501 -9.573501 -10.5755 -10.5935 -10.143 
-10.1505 -10.1655 -7.1765 -10.0065 -10.4555 -8.6695 -10.504 -9.491 -9.710501 -10.544 -10.2355 -9.23 -9.321501 -9.138 -11.9711 -11.4324 -7.4425 -7.4425 -9.867001 -8.279 -7.795001 -9.684501 -10.1525 -6.860001 -9.291 -8.028001 -6.844 -10.2325 -10.2045 -10.577 -10.594 -10.5935 
-10.2295 -10.1655 -10.0065 -10.4725 -10.5415 -10.504 -10.6255 -10.505 -10.545 -10.5715 -10.501 -10.1995 -9.321501 -12.9183 -14.91 -12.9464 -7.4425 -9.967 -9.8815 -8.279 -9.684501 -10.1835 -10.363 -9.291 -9.455501 -8.991001 -10.232 -10.241 -10.5945 -10.5955 -10.594 
