-4.759 
n/a 
n/a 
n/a 
n/a 
-4.759 
n/a 
n/a 
n/a 
n/a 
-4.759 
n/a 
n/a 
n/a 
n/a 
-4.759 
n/a 
n/a 
n/a 
n/a 
-1.934 -3.1205 -4.153 -3.6085 -3.6385 -3.8725 -1.934 -5.3885 -1.756 -2.4265 -4.4035 -2.5045 -1.8085 -3.699 -3.2875 -2.5045 -2.3335 -4.313 -4.179 
-5.933 -7.8465 -6.7415 -7.482 -8.0905 -5.18 -6.4035 -7.176001 -3.949 -6.55 -6.1395 -3.3625 -6.9425 -7.2945 -6.0605 -4.744 -5.812 -8.4785 
-9.466001 -10.368 -10.096 -12.3182 -9.2915 -10.4141 -7.7845 -9.438001 -9.7165 -8.550501 -6.781 -8.4935 -10.1895 -9.8125 -7.935 -6.133 -9.865 
-12.0513 -13.7225 -15.2512 -13.5192 -14.9348 -11.7951 -9.956 -15.4421 -11.717 -9.384501 -12.696 -11.8925 -12.7075 -11.9292 -9.5515 -10.3095 
-15.4058 -18.8777 -16.4522 -19.1625 -16.3158 -13.9666 -16.0343 -17.4426 -12.551 -15.2641 -16.095 -14.4105 -14.8242 -13.5457 -13.7564 
-3.2615 -1.4985 -4.735 -1.7565 -4.065 -3.1385 -1.934 -4.7815 -4.153 0 -5.3885 -3.9535 -4.216 -3.222 -1.8085 -3.6135 -3.2875 
-4.032 -5.548 -5.5405 -5.305501 -6.6145 -4.522 -7.0335 -5.8105 -4.153 -5.3885 -9.316 -7.0575 -6.902 -4.144 -4.4545 -5.8555 
-7.168 -5.6465 -8.623501 -7.7815 -8.129001 -9.747001 -7.3355 -5.8105 -9.995501 -9.316 -12.9862 -9.637501 -7.262 -6.745 -6.6485 
-7.219501 -8.729 -11.5191 -9.280001 -13.663 -9.798 -7.3355 -12.1728 -14.0024 -12.9862 -15.5662 -10.102 -9.538501 -8.653501 
-10.176 -11.66 -13.0176 -14.8152 -13.714 -9.798 -14.276 -16.1797 -17.6726 -15.5662 -16.0307 -12.3785 -11.6464 
-1.934 -3.1205 -4.153 -4.065 -3.8725 -1.7695 -5.3885 -3.0415 -2.4265 -3.699 -3.8955 -1.7695 -3.898 
-5.933 -7.8465 -6.785001 -9.5985 -5.509 -7.072001 -8.995501 -4.551 -6.205501 -7.369 -5.8815 -6.028501 
-9.466001 -10.8595 -13.0091 -11.4928 -11.6413 -10.0475 -10.4595 -8.8535 -10.7503 -9.9055 -10.7191 
-12.5428 -17.0836 -14.9034 -17.6251 -14.6168 -11.5741 -14.762 -14.2603 -13.2868 -14.9007 
-18.7669 -18.9779 -21.0357 -20.6006 -16.1434 -15.8766 -20.1688 -16.7968 -18.282 
-2.5195 -1.4985 -3.1205 -4.184 -4.153 -3.034 -1.4985 -7.746 -4.0555 -3.222 -5.3885 0 -2.4265 -2.8645 -3.7905 -2.871 -1.7565 -1.4985 -3.699 -4.216 -3.2875 
-3.1695 -5.779 -6.052 -5.8855 -6.4075 -3.947 -8.2875 -9.801001 -5.5095 -9.0765 -5.3885 -2.4265 -4.1435 -4.816 -5.622 -3.5385 -2.4195 -5.264 -8.217501 -8.072001 
-7.457 -6.860001 -7.064 -7.7755 -7.001 -9.975 -10.0005 -11.5726 -12.3724 -9.0765 -8.1525 -4.1435 -5.785 -6.128 -5.739 -3.7675 -6.063 -9.927501 -12.3217 
-8.148001 -7.376501 -8.886001 -8.348001 -13.385 -11.688 -11.8621 -18.4355 -12.3724 -11.9951 -9.327001 -5.785 -7.332 -6.1425 -5.8675 -6.646 -10.553 -14.1373 
-8.497001 -8.983001 -9.427501 -14.7638 -15.098 -13.5496 -18.725 -18.4355 -15.291 -13.1696 -11.0081 -7.332 -7.350501 -6.226 -8.696 -10.733 -14.7628 
