-4.759 
n/a 
n/a 
n/a 
n/a 
-4.759 
n/a 
n/a 
n/a 
n/a 
-4.759 
n/a 
n/a 
n/a 
n/a 
-4.759 
n/a 
n/a 
n/a 
n/a 
-1.934 -4.088 -3.188 -4.007 -4.168 -2.8645 -3.9955 -3.9415 -1.756 -3.428 -3.188 -4.168 
-4.9295 -6.540501 -6.451 -7.7725 -7.092501 -5.568 -8.8035 -5.6475 -5.872 -6.7495 -4.7425 
-8.8865 -10.304 -8.661501 -10.4345 -9.844001 -10.72 -10.6849 -7.7705 -8.6855 -7.804501 
-12.0188 -12.8919 -11.7809 -13.186 -15.0248 -12.6014 -12.8079 -10.7052 -9.7725 
-14.6067 -16.0113 -14.5324 -18.3668 -16.9062 -14.7244 -15.7426 -11.7922 
-4.088 -3.251 -3.9955 -3.188 -4.168 -4.007 -1.934 -1.4985 -3.158 -4.768 -1.756 -4.794 -3.188 -4.168 -1.934 -1.4985 -3.158 -3.428 0 
-6.941 -6.1365 -7.4805 -4.7425 -6.811 -6.264 -2.6125 -4.178 -7.1995 -6.484 -6.8805 -6.3925 -4.7425 -6.042 -2.6125 -4.178 -5.7095 -3.428 
-8.988501 -8.952001 -8.665 -6.986 -8.512501 -6.8475 -5.265 -8.257501 -9.2445 -12.2569 -8.688001 -6.419 -6.3765 -7.017 -5.265 -6.6765 -5.7095 
-11.982 -10.6215 -11.3421 -8.631001 -9.047501 -9.740001 -8.772 -9.531 -15.1044 -14.0644 -8.784 -8.0065 -7.476 -9.1385 -7.34 -6.6765 
-13.6515 -13.2986 -12.9871 -9.0705 -12.99 -13.2612 -9.803 -15.4581 -16.9119 -14.1604 -10.4425 -9.5535 -9.932501 -11.6257 -7.34 
-4.088 -2.8645 -3.9955 -1.4985 -3.188 -4.007 -4.5635 -4.768 -1.756 -3.428 -3.4225 -4.794 -3.188 -4.5635 
-6.6225 -5.568 -5.0175 -3.619 -6.451 -6.632 -9.140501 -6.484 -5.872 -7.0625 -8.7495 -6.3925 -5.5575 
-8.7045 -6.1995 -6.879 -7.592501 -8.8575 -10.4765 -10.9579 -9.2295 -9.5235 -12.6657 -10.9138 -8.9315 
-9.2845 -8.188 -11.8953 -9.4355 -13.0206 -12.2939 -13.7034 -12.9794 -15.0941 -14.83 -13.4528 
-10.124 -13.2195 -13.7383 -13.7102 -14.838 -15.0394 -17.4533 -18.55 -17.2584 -17.369 
-4.088 -2.8645 -3.9955 -1.4985 -3.9415 -3.188 -4.3665 -4.243 -1.756 -3.428 -4.794 -3.188 -4.168 0 
-6.6225 -5.568 -5.0175 -5.8525 -7.2965 -8.439501 -7.26 -5.6545 -5.872 -7.793 -6.3925 -4.7425 -4.168 
-8.7045 -6.1995 -8.0675 -7.8665 -13.329 -10.2335 -8.735001 -10.6097 -9.844501 -7.8385 -6.419 -4.7425 
-9.2845 -9.961 -9.59 -14.58 -15.123 -11.9925 -13.832 -14.5822 -9.869 -7.839 -6.419 
-13.3148 -11.4835 -16.7721 -16.374 -16.882 -17.0895 -17.8045 -14.6067 -9.9475 -7.839 
