-4.759 
n/a 
n/a 
n/a 
n/a 
-4.759 
n/a 
n/a 
n/a 
n/a 
-4.759 
n/a 
n/a 
n/a 
n/a 
-4.759 
n/a 
n/a 
n/a 
n/a 
-5.2545 -2.7415 -3.918 -1.934 -4.767 -4.358 -3.9665 0 
-6.742001 -6.377501 -6.013 -7.1715 -9.706501 -7.1175 -3.9665 
-10.7565 -7.4425 -11.9947 -12.9932 -12.6356 -7.1175 
-11.8215 -13.7232 -17.8164 -15.9223 -12.6356 
-18.1022 -19.5449 -20.7455 -15.9223 
-5.2545 -2.7415 -4.648 -1.934 -1.4985 -4.767 -11.0555 -4.358 -4.9075 0 
-6.742001 -5.5585 -6.333 -2.6125 -5.783 -17.1247 -15.4135 -7.361001 -4.9075 
-8.831 -7.061501 -7.176001 -6.5935 -18.4403 -21.4827 -18.4165 -7.361001 
-11.1986 -8.2995 -11.7426 -20.1552 -22.7983 -24.4857 -18.4165 
-12.4366 -13.0907 -25.3043 -24.5132 -25.8013 -24.4857 
-5.2545 -2.674 -3.918 -1.934 -1.4985 -4.767 -6.061 -4.257 
-8.1975 -5.873 -6.013 -2.6125 -5.783 -9.449 -8.4055 
-11.6437 -7.267 -6.572001 -6.5935 -9.7325 -12.9771 
-13.0377 -7.7275 -10.9738 -10.1765 -13.164 
-13.4982 -12.4155 -14.5568 -14.2694 
-5.2545 -2.8645 -3.1125 -3.918 -1.934 -4.767 -6.061 -4.358 -4.947 0 
-7.918 -3.5345 -6.8875 -6.013 -7.1715 -9.449 -9.0705 -9.33 -4.947 
-8.767501 -7.42 -7.9735 -11.9947 -12.7357 -9.525001 -14.7663 -9.33 
-12.7988 -8.5065 -14.4322 -17.5589 -12.8117 -16.2934 -14.7663 
-13.8853 -15.149 -19.9964 -17.6349 -19.5801 -16.2934 
