-4.759 
n/a 
n/a 
n/a 
n/a 
-4.759 
n/a 
n/a 
n/a 
n/a 
-4.759 
n/a 
n/a 
n/a 
n/a 
-4.759 
n/a 
n/a 
n/a 
n/a 
-2.3615 -3.5015 0 -4.834 -3.5905 -3.9675 0 -2.4265 -3.9535 -3.436 -4.4175 -5.0515 -3.9535 -1.7695 -10.4975 0 -8.130501 -10.306 -4.7195 -2.925 
-5.2225 -3.5015 -4.834 -8.741 -7.4135 -3.9675 -2.4265 -5.668 -6.7875 -8.216001 -9.158001 -9.816501 -5.098001 -13.2492 -10.4975 -8.130501 -18.7939 -15.0255 -5.659 
-5.2225 -9.307001 -8.741 -12.9872 -7.4135 -6.363501 -5.668 -8.2895 -11.9037 -13.4681 -14.3304 -11.3568 -17.8131 -13.2492 -18.628 -18.7939 -23.5134 -15.965 
-11.5418 -13.379 -12.9872 -12.9872 -9.670501 -9.500501 -8.2895 -13.6131 -17.1558 -18.6405 -15.8707 -24.0719 -17.8131 -21.3797 -29.2914 -23.5134 -24.4529 
-15.6138 -17.6252 -12.9872 -15.2442 -12.8017 -12.357 -13.6131 -18.8652 -22.3282 -20.1808 -28.5858 -24.0719 -25.9436 -32.0431 -34.0109 -24.4529 
-2.3615 -5.2145 -4.8445 -3.222 -2.871 -1.7565 -1.4985 -4.6365 -5.7795 -2.5045 -4.53 -3.5455 -1.4985 -3.8405 -21.978 0 -3.9205 -2.5045 -1.4985 -6.0695 -4.01 -5.2145 0 
-7.6875 -8.974001 -6.59 -5.196 -3.5385 -2.4195 -5.3015 -8.166 -7.750501 -6.3525 -7.3435 -3.91 -4.7545 -25.1654 -20.3225 -3.9205 -4.449 -3.583 -6.7475 -7.082001 -7.573 -5.2145 
-10.76 -10.674 -7.9155 -5.7845 -3.7675 -5.9005 -8.434501 -10.7106 -12.5149 -9.502001 -7.588 -5.4455 -26.7554 -25.1654 -24.1195 -4.449 -5.019001 -8.529 -7.3855 -7.603001 -7.573 
-12.46 -11.9995 -7.9395 -6.0445 -5.996 -8.486001 -11.4613 -15.475 -15.6644 -9.843 -9.353001 -27.7572 -26.7554 -28.9624 -25.889 -5.019001 -9.635 -8.897 -7.865 -7.603001 
-13.7855 -12.0235 -7.9995 -8.929501 -8.56 -11.6178 -16.2257 -18.6245 -16.0054 -11.608 -31.7631 -27.7572 -30.5524 -30.7319 -26.471 -9.635 -10.102 -9.0015 -7.865 
-1.4985 -5.2145 -1.7565 -2.3615 -3.892 -3.9535 -1.934 -5.0515 -5.804 -5.2025 -2.925 -1.7695 -4.8065 -5.804 -1.934 -3.1435 -5.3905 -3.1715 -4.216 -3.222 -1.4985 -6.0695 -4.01 -5.2145 0 
-6.83 -6.764 -3.523 -5.6425 -8.203001 -5.3325 -8.088 -9.128 -10.4365 -8.264501 -3.71 -6.782001 -8.997001 -6.64 -4.335 -7.3745 -8.3205 -8.332001 -6.902 -3.7835 -6.7475 -7.082001 -7.573 -5.2145 
-7.2265 -8.948501 -6.573501 -9.632 -9.0345 -12.1601 -10.176 -14.443 -13.5389 -8.5015 -7.985 -10.384 -11.2705 -9.435 -8.5225 -10.0645 -13.968 -10.103 -8.048 -8.746 -7.3855 -7.603001 -7.573 
-9.399 -10.2865 -10.396 -10.2885 -16.0163 -13.9191 -15.8589 -17.6078 -13.7759 -13.2529 -11.3913 -11.7 -12.9385 -13.8024 -10.3035 -15.9386 -15.739 -11.9102 -13.2559 -9.259 -7.865 -7.603001 
-10.7605 -14.109 -11.0525 -17.4265 -17.7753 -19.931 -19.1223 -17.8448 -18.5273 -16.6592 -13.3068 -14.1535 -17.5686 -15.7306 -16.484 -17.7096 -17.5462 -17.1181 -13.7689 -10.1395 -7.865 
-1.4985 -3.4425 -2.8645 -3.383 -3.5905 -3.9675 -3.115 -11.2685 -1.7695 -4.8065 0 
-4.4545 -5.824 -5.9505 -5.951 -7.4135 -7.2365 -14.671 -12.554 -6.782001 -4.8065 
-6.502 -8.547501 -8.9205 -9.436001 -10.451 -19.2793 -17.0726 -19.2579 -6.782001 
-9.179501 -11.7337 -12.5787 -12.5495 -22.9566 -21.9041 -23.4677 -19.2579 
-12.3433 -15.3919 -15.6922 -25.0551 -25.1186 -27.8364 -23.4677 
