-4.759 
n/a 
n/a 
n/a 
n/a 
-4.759 
n/a 
n/a 
n/a 
n/a 
-4.759 
n/a 
n/a 
n/a 
n/a 
-4.759 
n/a 
n/a 
n/a 
n/a 
-1.934 -4.278 -2.925 -3.793 -2.7455 -5.0665 
-6.2645 -8.001501 -7.0315 -6.579 -8.568501 
-9.212501 -12.353 -9.252001 -13.0714 
-13.6344 -14.5735 -15.8928 
-15.8549 -21.2143 
-5.0665 -3.3975 -3.509 -3.152 -3.989 -1.7695 -3.9285 -1.934 -4.278 
-7.889501 -7.137501 -6.562 -6.287001 -4.551 -7.2355 -4.3695 -6.2645 
-12.9087 -10.155 -9.404501 -6.779 -9.9355 -8.277 -9.0255 
-15.9262 -12.9975 -10.182 -12.3521 -10.393 -13.0372 
-18.7687 -13.775 -15.7551 -12.8096 -15.9542 
-4.278 -3.764 -1.7695 -3.335 -2.7455 -1.4985 -5.0665 -3.3975 0 
-8.506001 -4.397 -4.5005 -6.151501 -3.637 -6.435 -7.889501 -3.3975 
-8.941501 -7.003 -8.31 -6.8925 -9.302501 -9.6565 -7.889501 
-11.6859 -10.733 -9.0535 -13.0424 -12.6458 -9.6565 
-15.4159 -11.4765 -15.4114 -16.3857 -12.6458 
-3.0365 -2.7415 -3.331 -1.7695 -4.548 -2.7455 -5.0665 -3.3975 -1.934 -4.278 0 
-4.2225 -7.357 -3.669 -5.304 -7.37 -8.568501 -7.889501 -5.415 -6.2645 -4.278 
-7.5445 -7.896501 -7.313 -8.4635 -14.0886 -11.6503 -9.148001 -10.688 -6.2645 
-8.022 -11.6161 -10.674 -15.2569 -17.1704 -12.9088 -15.8036 -10.688 
-11.758 -14.9771 -17.4674 -18.3387 -18.4289 -19.5644 -15.8036 
