-4.759 
n/a 
n/a 
n/a 
n/a 
-4.759 
n/a 
n/a 
n/a 
n/a 
-4.759 
n/a 
n/a 
n/a 
n/a 
-4.759 
n/a 
n/a 
n/a 
n/a 
-3.699 -3.237 -4.328 -1.756 -3.6135 -4.3035 -4.196 -1.934 -3.091 -3.8405 
-6.686 -6.221001 -5.294 -5.5885 -7.8675 -8.110001 -5.016 -4.2105 -7.208 
-9.123 -7.112501 -8.945001 -9.174001 -12.1518 -8.340501 -7.699 -8.610001 
-9.736 -10.1265 -13.0009 -13.5355 -12.3823 -11.4631 -12.6251 
-13.0374 -14.9116 -17.3624 -13.766 -15.5049 -16.3892 
-2.5195 -3.091 -4.4915 -2.925 -3.9535 -3.17 -3.699 -3.237 -5.418 -2.4945 
-4.8225 -9.0635 -7.277 -5.863 -7.615001 -4.663 -6.686 -9.734501 -7.0235 
-10.6215 -12.0624 -10.2285 -9.6745 -9.935501 -7.6975 -14.1367 -11.3998 
-13.6204 -15.0139 -14.1282 -12.114 -12.97 -15.2098 -15.802 
-16.5719 -18.9136 -16.5677 -15.1485 -20.4823 -16.8751 
-1.934 -3.091 -3.8405 -1.4985 -3.699 -3.237 -6.0695 -4.8655 0 -1.756 -3.6135 -4.3035 -3.9535 
-4.2105 -7.208 -5.224 -5.264 -6.686 -8.845 -10.7335 -4.8655 -1.756 -5.5885 -7.8675 -8.378 
-8.610001 -8.977 -9.167 -8.097 -13.2472 -15.4224 -10.7335 -6.006001 -5.5885 -9.174001 -12.4198 
-9.602501 -13.0558 -12.196 -14.9426 -19.8246 -15.4224 -11.874 -9.560501 -9.174001 -13.8035 
-14.2637 -16.0848 -19.0416 -21.52 -19.8246 -16.5629 -15.4285 -13.2152 -13.8035 
-3.091 -4.4915 -5.1845 -5.74 -4.4665 -3.535 -3.237 -3.7495 -1.756 -3.6135 -3.7495 
-9.0635 -10.703 -5.7465 -10.5035 -8.873001 -6.9355 -5.68 -4.8995 -5.5885 -6.278 
-15.4884 -11.265 -10.513 -14.91 -12.4735 -10.382 -7.248 -7.9265 -7.916 
-16.0504 -16.0315 -14.9195 -18.5105 -15.92 -11.95 -9.83 -9.575001 
-20.8169 -20.438 -18.52 -21.957 -17.488 -14.532 -12.4397 
