-4.759 
n/a 
n/a 
n/a 
n/a 
-4.759 
n/a 
n/a 
n/a 
n/a 
-4.759 
n/a 
n/a 
n/a 
n/a 
-4.759 
n/a 
n/a 
n/a 
n/a 
-2.3335 -2.229 -3.5485 -2.925 -4.0585 -2.3335 -2.7835 -1.4985 -5.3085 -4.828 -3.6515 -1.7695 -2.489 -4.4825 -3.321 -3.098 -2.925 -3.331 -1.7695 -3.0465 -4.1865 -2.5195 -1.4985 -4.1115 -2.0935 -2.3335 -2.925 -5.3075 -5.3085 -4.6375 -4.5625 0 
-3.8485 -4.918 -5.2045 -6.012 -4.968 -4.5665 -3.7575 -6.114 -7.2115 -8.4485 -3.9135 -3.1405 -8.1785 -6.981 -6.0555 -5.9875 -4.8455 -3.669 -3.683 -7.633 -5.843 -3.1695 -4.843 -6.535 -4.488501 -4.0295 -7.028501 -11.0145 -10.7335 -10.223 -4.5625 
-5.036 -6.238 -9.257 -6.786 -6.515501 -5.4275 -8.896501 -8.244501 -10.7565 -9.668 -4.621 -8.7705 -10.688 -10.1765 -8.566 -8.742001 -5.0985 -5.1725 -8.541 -9.0775 -6.211 -6.139 -7.0155 -8.91 -7.021 -8.247001 -12.9355 -16.4395 -16.319 -10.223 
-6.287 -10.0505 -9.840501 -8.358001 -7.713 -10.238 -10.2035 -11.7405 -11.976 -10.705 -9.945001 -11.4358 -13.8835 -12.687 -11.8911 -8.967 -6.5665 -10.494 -9.77 -9.785001 -10.2375 -7.975 -9.1435 -11.7961 -11.4249 -14.2996 -18.3605 -22.025 -16.319 
-10.067 -10.8078 -10.415 -9.5465 -12.7569 -11.545 -14.2025 -12.96 -13.013 -16.029 -12.6269 -14.6313 -16.394 -16.0121 -12.1161 -10.758 -12.0866 -11.723 -10.4285 -13.8897 -12.0735 -10.554 -12.1652 -16.2 -17.4775 -19.7246 -23.946 -22.025 
-5.3085 -3.7855 -2.7415 -4.3555 -3.098 -2.0935 -5.3085 -4.828 0 
-10.459 -6.399 -8.557501 -7.9465 -4.8475 -7.0525 -7.2115 -4.828 
-13.0725 -12.7434 -12.3523 -10.1305 -10.151 -9.25 -7.2115 
-19.4169 -16.5382 -14.5363 -15.434 -12.4551 -9.25 
-23.2117 -18.7222 -19.8398 -17.7381 -12.4551 

n/a 
n/a 
n/a 
n/a 
-2.3615 -4.172 -1.7695 -1.4985 -4.719 -1.7565 -5.3085 -5.8535 -3.8875 0 0 -2.9705 -3.1425 -5.0525 -2.915 -3.098 -3.034 -5.3085 -2.4945 -4.2785 -2.5045 -4.1115 0 
-6.109 -4.8625 -2.7955 -5.1445 -5.865 -6.896501 -9.117001 -9.899 -3.8875 0 -2.9705 -4.9075 -7.755501 -6.866 -5.733 -5.1815 -8.759501 -8.102 -5.7605 -6.2015 -5.4735 -4.1115 
-6.2715 -5.4245 -6.2965 -6.031 -11.7726 -10.1345 -13.4425 -9.899 -3.8875 -2.9705 -4.9075 -9.1085 -9.556001 -9.852 -7.7225 -11.244 -12.0844 -10.01 -7.502001 -9.691501 -5.4735 
-6.8045 -8.069 -7.3245 -12.119 -15.0106 -14.5718 -13.4425 -9.899 -6.118001 -4.9075 -9.1085 -10.348 -12.7642 -11.8923 -14.313 -14.5689 -13.9924 -11.9623 -11.48 -9.691501 
-9.2865 -8.1155 -13.4811 -15.357 -19.4479 -14.5718 -13.4425 -12.1295 -8.012001 -9.1085 -10.348 -13.5562 -14.8045 -18.4828 -17.6379 -16.4769 -15.9447 -15.9403 -11.48 
