-4.759 
n/a 
n/a 
n/a 
n/a 
-4.759 
n/a 
n/a 
n/a 
n/a 
-4.759 
n/a 
n/a 
n/a 
n/a 
-4.759 
n/a 
n/a 
n/a 
n/a 
-2.5045 -1.4985 -3.486 -2.95 -2.4265 -2.186 -5.865 -2.0935 -4.911 -1.4985 -4.959 
-3.1915 -3.5655 -4.563 -4.895 -3.292 -8.120001 -8.7075 -7.4215 -6.351501 -6.127 
-4.538 -4.577 -6.0045 -5.5775 -8.474 -10.6215 -14.3171 -10.5435 -10.3225 
-4.615 -6.0085 -6.6185 -10.7595 -11.2743 -16.2311 -17.4391 -14.5145 
-6.023 -6.6215 -12.0861 -13.5598 -16.8839 -19.3531 -21.4101 
-2.5045 -2.3335 -3.486 -2.95 -4.748 -3.3425 -10.2885 -3.074 -4.3905 -2.3345 -3.486 -3.585 
-4.744 -5.3955 -4.563 -7.7215 -7.4445 -14.8456 -13.5381 -6.6245 -5.529 -5.837 -6.332 
-7.074 -6.974 -8.467501 -10.7364 -19.9702 -18.0952 -17.0886 -7.717 -10.028 -9.824 
-7.6685 -11.2483 -11.6346 -23.2621 -23.2198 -21.6457 -18.1811 -12.2392 -14.1532 
-11.8598 -14.4154 -24.1603 -26.5117 -26.7703 -22.7382 -22.7033 -16.3644 
-4.9865 -4.3115 -4.959 -5.1595 
-8.679501 -9.693001 -7.851501 
-14.5526 -12.7027 
-17.5623 
n/a 
-4.959 -4.2065 -1.7695 -3.135 -4.031 -1.7565 -4.7615 
-9.703001 -6.4705 -4.779 -5.323501 -5.571 -8.212501 
-12.085 -8.7115 -8.1095 -8.2635 -13.0938 
-14.326 -12.5948 -10.513 -16.1167 
-18.2093 -14.9983 -18.3662 
