-4.759 
n/a 
n/a 
n/a 
n/a 
-4.759 
n/a 
n/a 
n/a 
n/a 
-4.759 
n/a 
n/a 
n/a 
n/a 
-4.759 
n/a 
n/a 
n/a 
n/a 
-1.934 -1.4985 -3.9785 -1.7565 -5.1905 -4.153 0 -4.4175 0 -7.4885 -6.0835 -3.519 
-2.6125 -4.496 -4.924 -7.236001 -7.03 -4.153 -4.4175 -4.4175 -7.4885 -11.136 -8.2025 
-4.783 -4.959 -9.8225 -8.975 -7.03 -6.4735 -4.4175 -12.3096 -11.136 -13.255 
-5.0745 -9.896001 -10.3255 -8.975 -8.9165 -6.4735 -12.3096 -15.9571 -13.255 
-10.2175 -10.536 -10.3255 -10.9219 -8.9165 -15.0978 -15.9571 -18.0761 
-1.934 -1.4985 -10.7225 -3.9055 -2.925 -3.693 -4.3195 -4.0205 
-2.6125 -13.3148 -14.628 -7.283501 -7.0535 -7.2055 -7.8335 
-14.823 -17.2203 -18.006 -11.6708 -8.7865 -10.2385 
-18.7285 -20.5983 -22.3933 -13.4038 -12.1005 
-22.1065 -24.9856 -24.1263 -16.7178 
-6.864 -2.229 -4.2985 -3.693 -6.557 -1.934 -3.9785 -3.8405 -1.7565 -4.711 -4.153 0 
-8.205501 -6.7935 -8.289001 -11.0308 -8.4335 -5.7575 -7.447001 -4.563 -6.964001 -6.8605 -4.153 
-13.6522 -10.4765 -15.8492 -12.9073 -12.5706 -9.4245 -8.353001 -10.1225 -8.8465 -6.8605 
-17.3352 -18.0367 -17.7257 -17.0444 -16.2376 -10.46 -14.3253 -12.005 -8.8465 
-24.8954 -19.9132 -21.8628 -20.7114 -17.2731 -16.8131 -16.2078 -12.005 
-6.28 -6.973 -4.153 -3.307 -1.7565 -4.763 -1.934 -5.1845 -5.74 -3.383 -4.668 0 
-10.732 -7.6245 -7.464001 -4.8035 -6.619501 -6.0865 -6.564 -5.7465 -10.151 -6.352 -4.668 
-13.977 -12.3355 -8.599501 -10.5777 -7.817 -11.3373 -6.819 -10.181 -13.12 -6.352 
-19.1466 -14.0034 -15.1143 -11.7752 -13.3414 -11.5923 -11.4921 -13.15 -13.12 
-20.6225 -20.5182 -16.3118 -17.2996 -13.5964 -16.2654 -14.4611 -13.15 
