-4.759 
n/a 
n/a 
n/a 
n/a 
-4.759 
n/a 
n/a 
n/a 
n/a 
-4.759 
n/a 
n/a 
n/a 
n/a 
-4.759 
n/a 
n/a 
n/a 
n/a 
-1.934 -3.506 -3.133 -4.184 -2.7405 0 -2.9805 -4.424 -1.7565 -7.609 -1.934 -3.091 -3.545 -1.934 -3.9995 -4.73 
-4.961 -5.4645 -6.083 -6.1835 -2.7405 -2.9805 -5.500501 -5.734 -9.4785 -9.016001 -4.2105 -5.7425 -5.182 -5.127 -7.604 
-7.888501 -7.758 -7.634 -6.1835 -6.2475 -5.500501 -6.803 -14.8356 -10.9971 -11.8925 -6.593501 -6.88 -7.815001 -8.563001 
-10.3285 -8.972501 -7.634 -9.594501 -9.1 -6.803 -16.3014 -16.3542 -13.8736 -14.2755 -7.8725 -9.167001 -11.178 
-11.543 -8.972501 -11.1826 -12.5176 -10.1775 -16.3014 -17.82 -19.2307 -16.2566 -15.5545 -10.1935 -12.904 
-2.7405 0 -3.506 -3.133 -2.9805 -2.7415 -4.424 -1.934 -3.9195 -4.299 -1.934 -3.9995 -5.2455 -3.545 0 
-2.7405 -3.506 -5.4645 -6.924 -4.004 -8.262 -5.195 -6.0555 -5.4345 -5.88 -5.127 -6.9445 -9.5745 -3.545 
-4.811501 -5.4645 -8.712001 -7.8675 -9.145501 -9.086 -10.233 -7.769 -6.908 -8.904501 -7.792 -10.7335 -9.5745 
-7.7045 -8.712001 -9.5135 -13.1876 -9.811001 -14.2458 -11.9465 -10.031 -9.1385 -12.0383 -11.9088 -10.7335 
-11.6326 -9.5135 -14.954 -13.8531 -14.9074 -15.9593 -14.2085 -12.5107 -12.3917 -16.1551 -11.9088 
-2.264 -4.807 -3.506 -2.7405 -2.9805 -4.424 -3.433 -1.7565 -3.9195 -4.299 -4.005 -1.934 -3.091 -3.545 -1.7565 -9.4355 0 
-6.715 -6.857 -4.5295 -6.2475 -5.500501 -6.81 -4.1845 -5.477 -5.4345 -8.7755 -4.808 -4.2105 -5.7425 -4.649 -12.1412 -9.4355 
-8 -7.613 -7.831 -9.1 -7.993501 -7.16 -8.2465 -6.5625 -10.513 -10.147 -7.208 -6.593501 -7.816501 -16.2105 -12.1412 
-8.661501 -10.1545 -10.9857 -11.7096 -8.488001 -9.665501 -9.450001 -12.1368 -11.8845 -12.547 -9.416 -8.52 -19.5006 -16.2105 
-11.4324 -13.8242 -13.5953 -12.2041 -10.467 -10.14 -15.0767 -13.5083 -14.2845 -14.755 -11.4267 -20.4951 -19.5006 
-2.9805 -2.7415 -4.424 -2.5045 -3.7685 -4.299 -1.934 -2.8195 -2.5045 -4.165 -4.73 0 -3.506 -5.8735 
-4.004 -8.262 -5.791 -6.6625 -9.4645 -5.88 -4.706 -5.5175 -6.8395 -9.1405 -4.73 -3.506 -7.0905 
-9.145501 -9.757 -9.922501 -13.1361 -11.1133 -9.901001 -8.413 -10.1805 -12.6264 -9.1405 -8.762 -6.165501 
-10.6475 -13.9787 -17.3711 -14.7849 -15.1343 -13.608 -13.4236 -15.9674 -12.6264 -13.4187 -11.2773 
-14.8692 -21.4273 -19.0199 -18.8059 -18.8413 -18.6186 -19.2105 -15.9674 -16.9046 -15.934 
