-4.759 
n/a 
n/a 
n/a 
n/a 
-4.759 
n/a 
n/a 
n/a 
n/a 
-4.759 
n/a 
n/a 
n/a 
n/a 
-4.759 
n/a 
n/a 
n/a 
n/a 
-5.0275 0 -5.989501 0 -5.4685 0 -4.559 -1.756 -4.973 -2.4945 -3.135 -1.7565 -1.4985 -5.2835 -2.3335 -2.4945 -4.3895 -1.934 -3.8735 
-5.0275 -5.989501 -5.989501 -5.4685 -5.4685 -4.559 -6.296 -6.912 -8.419001 -4.575 -3.9195 -2.4195 -6.733001 -7.0995 -3.947 -6.08 -5.879 -4.885 
-10.3965 -5.989501 -10.361 -5.4685 -9.008 -6.296 -9.621 -8.683001 -10.8987 -5.097 -4.168 -7.564501 -8.2115 -8.111501 -7.592 -7.463 -8.885 
-10.3965 -10.361 -10.361 -9.008 -11.6176 -9.621 -11.4382 -11.4853 -11.4207 -5.465 -9.193501 -8.784501 -9.249001 -10.199 -8.634501 -10.3815 
-14.768 -10.361 -13.9005 -11.6176 -14.9426 -11.4382 -14.2405 -12.0073 -11.7887 -10.6215 -10.1605 -9.892001 -11.3349 -10.475 -10.733 
-4.0955 0 -9.835 0 -6.788 0 -5.389 0 -9.0225 0 -12.16972 -2.4945 -1.934 -4.3895 -1.934 -3.8735 0 
-4.0955 -9.835 -9.835 -6.788 -6.788 -5.389 -5.389 -9.0225 -9.0225 -12.16972 -14.66422 -4.2645 -7.691 -5.879 -4.885 -3.8735 
-15.0075 -9.835 -16.8382 -6.788 -10.7335 -5.389 -15.6705 -9.0225 -21.71442 -14.66422 -16.43422 -9.469501 -9.685501 -8.885 -4.885 
-15.0075 -16.8382 -16.8382 -10.7335 -10.7335 -15.6705 -15.6705 -21.71442 -24.20892 -16.43422 -21.63922 -12.1732 -12.8275 -8.885 
-22.0107 -16.8382 -20.7837 -10.7335 -21.015 -15.6705 -28.36242 -24.20892 -25.97892 -21.63922 -24.34292 -15.3152 -12.8275 
-5.0275 0 -6.5965 0 -9.507501 0 -10.3915 0 -5.4685 0 -5.5305 0 -4.973 0 -2.4945 -1.4985 -4.2655 -4.3895 -1.934 -3.8735 
-5.0275 -6.5965 -6.5965 -9.507501 -9.507501 -10.3915 -10.3915 -5.4685 -5.4685 -5.5305 -5.5305 -4.973 -4.973 -2.4945 -3.9315 -5.9775 -8.700001 -5.879 -4.885 
-8.9735 -6.5965 -17.064 -9.507501 -19.9978 -10.3915 -16.2676 -5.4685 -10.674 -5.5305 -10.048 -4.973 -8.419001 -3.9315 -9.002001 -9.448501 -10.0445 -8.885 
-8.9735 -17.064 -17.064 -19.9978 -19.9978 -16.2676 -16.2676 -10.674 -10.674 -10.048 -10.048 -8.419001 -9.330501 -9.002001 -12.734 -11.1592 -13.0505 
-20.1862 -17.064 -27.5543 -19.9978 -25.8739 -16.2676 -21.4731 -10.674 -15.1915 -10.048 -13.6134 -9.330501 -14.9654 -12.734 -14.4447 -14.1652 
-5.0275 0 -6.5965 0 -6.788 0 -5.0505 -4.2655 0 -5.4685 0 -5.448 0 -6.8985 -2.4945 -1.4985 -4.2655 -4.3895 -1.934 -3.8735 
-5.0275 -6.5965 -6.5965 -6.788 -6.788 -5.0505 -8.873501 -4.2655 -5.4685 -5.4685 -5.448 -5.448 -6.8985 -9.824 -3.9315 -5.9775 -8.700001 -5.879 -4.885 
-8.9735 -6.5965 -8.669001 -6.788 -12.7311 -8.873501 -8.873501 -7.4055 -5.4685 -7.2195 -5.448 -11.08 -9.824 -10.2895 -9.002001 -9.448501 -10.0445 -8.885 
-8.9735 -8.669001 -8.669001 -12.7311 -16.5541 -8.873501 -12.2921 -7.4055 -7.2195 -7.2195 -11.08 -14.0055 -10.2895 -16.6802 -12.734 -11.1592 -13.0505 
-10.329 -8.669001 -15.3025 -16.5541 -16.5541 -12.2921 -12.2921 -9.3205 -7.2195 -14.5901 -14.0055 -14.471 -16.6802 -20.4122 -14.4447 -14.1652 
