-4.759 
n/a 
n/a 
n/a 
n/a 
-4.759 
n/a 
n/a 
n/a 
n/a 
-4.759 
n/a 
n/a 
n/a 
n/a 
-4.759 
n/a 
n/a 
n/a 
n/a 
-6.278 -8.385 -4.06 -1.934 -5.0575 
-15.2844 -12.7668 -4.483 -6.7185 
-19.6662 -13.1898 -8.965501 
-20.0892 -17.6723 
-24.5717 
-4.088 -3.3155 -4.4595 -5.923 -5.585 -4.06 -2.4945 
-5.6105 -7.8805 -11.08 -8.4785 -8.6305 -7.517001 
-10.5123 -14.7154 -13.6355 -11.7516 -12.3473 
-17.3472 -17.2709 -16.9086 -15.4684 
-19.9027 -20.544 -20.6254 
-1.4985 -4.4595 -6.6155 -4.99 -3.2875 -2.4945 
-5.516001 -12.0636 -11.117 -9.126501 -6.2965 
-13.4739 -16.5651 -15.2535 -12.4013 
-17.9754 -20.7016 -18.5283 
-22.1119 -23.9764 
-4.088 -3.3155 -1.4985 -4.4595 -5.585 -2.4945 -3.557 
-5.6105 -4.1745 -5.516001 -9.112 -7.321 -5.304 
-6.4285 -8.6175 -9.885001 -10.661 -9.2615 
-11.2133 -13.1815 -11.434 -12.6015 
-15.7773 -14.7305 -13.3745 
