-4.759 
n/a 
n/a 
n/a 
n/a 
-4.759 
n/a 
n/a 
n/a 
n/a 
-4.759 
n/a 
n/a 
n/a 
n/a 
-4.759 
n/a 
n/a 
n/a 
n/a 
-4.251 -3.4715 -4.386 -1.934 -5.189 0 -1.756 -2.3335 -2.186 -5.5595 
-8.2405 -8.081 -5.545 -6.531 -5.189 -1.756 -4.016 -3.7085 -8.68 
-13.123 -9.259001 -9.564501 -6.531 -6.1265 -4.016 -5.168 -10.316 
-14.301 -13.2215 -9.564501 -7.2755 -8.717501 -5.168 -12.2725 
-18.2635 -13.2215 -9.988001 -9.8715 -10.057 -12.2725 
-4.62 -3.4715 -2.742 -3.0465 -5.144 -1.934 -4.8285 -4.6625 0 -1.756 -6.4925 -4.098 -5.267 -1.934 -4.6625 0 
-8.626 -6.1785 -4.8155 -7.444 -7.2635 -7.002 -7.5695 -4.6625 -1.756 -7.8065 -11.0145 -8.224501 -5.977 -6.565 -4.6625 
-10.2925 -8.381001 -7.7535 -9.252501 -12.9191 -8.852501 -7.5695 -5.769001 -7.8065 -12.4687 -15.141 -8.701 -10.1425 -6.565 
-12.495 -11.6326 -10.5325 -15.4395 -14.7696 -8.852501 -8.223001 -10.7175 -12.4687 -16.5952 -15.6175 -13.0629 -10.1425 
-15.7466 -14.4116 -17.1151 -17.29 -14.7696 -9.776501 -13.5557 -15.3797 -16.5952 -17.0717 -19.9794 -13.0629 
-1.4985 -4.6625 -4.7295 -2.742 -2.489 -3.4985 -2.3345 -3.4715 0 
-5.554501 -7.85 -7.450001 -3.301 -7.6505 -5.9425 -6.041 -3.4715 
-9.2015 -10.5745 -8.102 -8.618 -8.926001 -9.496 -6.041 
-12.0556 -11.2265 -13.6912 -9.559001 -12.7399 -9.496 
-12.7076 -16.8157 -14.6322 -13.7493 -12.7399 
-4.426 -1.7565 -1.4985 -3.0835 -4.7285 -4.1555 -5.9305 -1.4985 -3.873 -2.8645 -1.8085 -3.046 -4.4925 -5.717 -1.4985 -3.4715 -1.934 -1.4985 -3.873 -1.756 -3.0415 -1.4985 -4.7295 -2.742 -2.489 -4.226 
-5.47 -2.4195 -3.535 -6.042 -8.4455 -7.8395 -6.1905 -4.7405 -6.495501 -3.9785 -4.2695 -7.188001 -9.880501 -7.093501 -4.574 -5.327 -2.6125 -4.7405 -5.114 -4.454 -4.5735 -5.615001 -7.450001 -3.301 -4.981 
-5.9535 -4.6785 -6.335501 -9.523001 -11.0545 -8.802001 -9.932 -7.0585 -7.8275 -6.89 -8.853001 -13.1858 -10.498 -10.1345 -6.1555 -5.8135 -5.722 -5.849 -7.8025 -5.862 -8.658501 -8.0255 -8.102 -5.503 
-8.021 -7.476501 -10.0095 -12.2165 -13.4395 -13.314 -11.9805 -8.401 -10.9656 -11.7531 -15.0046 -13.8033 -13.539 -11.716 -6.508501 -9.1295 -7.044001 -8.474001 -9.123501 -9.935 -9.964001 -8.949501 -10.0925 
-9.983001 -11.3061 -12.813 -14.6015 -17.0855 -14.913 -12.878 -11.6435 -15.8287 -17.9047 -15.6221 -16.8443 -15.1205 -12.069 -9.963501 -10.348 -9.479501 -9.7255 -13.2149 -11.2797 -11.1766 -10.703 
