-4.759 
n/a 
n/a 
n/a 
n/a 
-4.759 
n/a 
n/a 
n/a 
n/a 
-4.759 
n/a 
n/a 
n/a 
n/a 
-4.759 
n/a 
n/a 
n/a 
n/a 
-2.5195 -1.4985 -3.9785 -1.7565 -4.602 -4.153 -3.995 -4.1455 0 -4.1115 -2.186 -1.4985 -3.784 -4.237 -2.95 
-3.1695 -4.496 -4.924 -6.552001 -5.112 -7.973001 -6.749001 -4.1455 -4.1115 -6.279 -3.339 -4.6165 -7.665 -7.9595 
-6.0535 -4.959 -9.1715 -6.637001 -8.6335 -10.9782 -6.749001 -7.849501 -6.279 -7.386 -6.113 -8.256001 -10.209 
-6.6455 -9.262501 -9.215501 -9.4545 -11.7181 -10.9782 -10.411 -11.0104 -7.386 -10.5056 -9.722501 -10.4505 
-10.5035 -9.31 -12.132 -12.7879 -11.7181 -14.6402 -13.5719 -12.1174 -10.5056 -14.1151 -11.9582 
-1.7695 -3.935 -1.4985 -4.593 -1.7565 -3.995 -1.7695 -3.197 -1.4985 -3.3755 -1.7695 -5.047 -7.385 0 -1.756 -3.4625 -6.824501 -3.9345 -1.7695 -1.4985 -4.237 
-4.6555 -5.08 -6.012 -6.584001 -5.423 -5.9385 -3.9565 -4.291 -4.057 -3.992 -6.8985 -13.4674 -7.385 -1.756 -5.1775 -9.437 -10.3815 -3.94 -2.7955 -5.154 
-5.519001 -9.3415 -7.334001 -8.717501 -7.594 -7.5735 -4.7825 -6.93 -5.0925 -8.8765 -15.6475 -13.4674 -8.429 -5.1775 -11.602 -13.0584 -10.4005 -4.4455 -6.705 
-9.689501 -10.39 -9.674001 -11.6807 -9.52 -8.5955 -7.4625 -7.374501 -9.7705 -17.8237 -15.6475 -14.5114 -12.0145 -11.602 -15.2234 -13.0774 -10.781 -8.723001 
-10.662 -12.8692 -12.9384 -13.6067 -9.860001 -11.4531 -7.9 -12.3321 -18.6621 -17.8237 -16.6915 -18.0969 -18.439 -15.2234 -15.2424 -13.4579 -15.0585 
-4.1985 -2.7295 -2.7765 -4.115 -1.7695 -4.2065 -3.6605 -4.898 -2.4945 -2.7295 -2.7765 -4.2065 -1.4985 -13.7805 -4.824 -1.756 -2.7765 -4.164 -3.9345 -1.7695 -3.6605 -4.7425 -3.9515 
-6.4905 -4.065 -6.338 -6.0245 -4.563 -6.806 -8.7755 -6.7095 -4.922 -4.065 -5.613501 -4.732 -13.631 -15.2005 -6.5865 -4.53 -8.302 -7.2405 -3.94 -5.5535 -4.8735 -7.572001 
-7.376 -6.8835 -8.149 -8.869 -7.119501 -13.412 -10.7934 -9.644001 -7.2635 -6.78 -6.0645 -11.547 -11.608 -11.691 -9.458 -9.928 -11.6611 -7.2505 -7.733 -6.2745 -7.787001 
-10.553 -8.9895 -9.903001 -11.6061 -14.3125 -15.4299 -13.7279 -12.3041 -10.1465 -7.1185 -14.338 -14.5075 -12.997 -14.7427 -14.9448 -13.3587 -11.6711 -11.4581 -9.3655 -9.580501 
-12.659 -10.9991 -12.5265 -18.7991 -16.3304 -18.3644 -16.388 -15.1871 -10.7245 -15.3038 -16.0803 -15.9945 -16.1057 -20.2295 -18.3755 -13.3687 -15.8787 -13.0906 -12.9169 
-2.7835 -3.4715 -7.3895 -5.029 -3.932 -3.222 -1.4985 -5.465 0 -2.4265 -2.742 -2.489 -5.094 -2.5045 -2.4265 -4.066 -3.222 -3.0105 -2.356 -3.7685 -4.7715 -1.4985 -3.4715 -2.5195 -3.7685 -4.418 -1.934 -8.432 -3.8195 -2.186 -5.094 -1.934 -2.3615 -4.412 0 
-6.7375 -8.303 -10.354 -7.5365 -7.2485 -3.7835 -6.377501 -5.465 -2.4265 -4.095 -3.301 -6.719 -7.632 -4.228 -4.728 -5.776 -5.981 -4.921 -5.8865 -7.154 -6.1635 -4.574 -5.5535 -6.321 -5.571 -6.576 -9.844501 -11.171 -6.1025 -6.428 -6.833 -3.539 -5.8575 -4.412 
-10.292 -10.6605 -10.768 -8.356001 -7.509 -8.0655 -6.377501 -7.6905 -4.095 -4.601 -7.928 -8.648001 -8.543501 -6.538001 -7.0255 -6.872 -6.0285 -7.8385 -8.3645 -8.568001 -8.802501 -6.5775 -8.9065 -7.8715 -7.391 -14.649 -11.6605 -12.1755 -10.4765 -7.6325 -8.7095 -5.8805 -5.8575 
-12.6495 -10.78 -10.7875 -8.662001 -10.66 -8.0655 -8.469501 -9.3715 -4.601 -9.08 -9.662001 -9.822001 -10.4765 -8.0755 -7.6125 -6.906 -8.905001 -9.903001 -10.168 -10.4585 -10.6735 -10.0505 -9.349 -9.2325 -15.848 -15.409 -12.4315 -16.5495 -11.681 -9.452001 -9.6005 -5.8805 
-12.769 -10.8 -10.8075 -10.733 -10.66 -9.9375 -9.9475 -9.9515 -9.08 -10.7335 -10.525 -11.8176 -10.662 -8.900001 -7.6845 -9.521501 -10.341 -11.7691 -12.0585 -12.3295 -14.1465 -10.4905 -10.5765 -17.8537 -16.608 -17.4845 -16.8055 -17.754 -13.5005 -9.929001 -9.6005 
