-4.759 
n/a 
n/a 
n/a 
n/a 
-4.759 
n/a 
n/a 
n/a 
n/a 
-4.759 
n/a 
n/a 
n/a 
n/a 
-4.759 
n/a 
n/a 
n/a 
n/a 
-2.985 -2.4945 -3.2495 -3.699 -3.3195 -7.4525 -3.115 -6.8095 -3.3195 -1.756 -6.3665 -3.3195 
-6.5775 -4.891 -6.0885 -7.6415 -10.3415 -10.2435 -9.956001 -7.3815 -4.768 -8.2375 -10.281 
-8.105 -6.9895 -10.341 -15.1643 -14.3999 -17.0845 -10.1305 -8.709001 -12.3597 -12.362 
-10.688 -11.5424 -17.8638 -19.2227 -21.2409 -17.259 -11.458 -16.4997 -16.4842 
-15.2409 -19.0652 -21.9222 -26.0637 -21.4154 -18.5865 -19.2487 -20.6242 
-6.8095 -1.756 -7.719501 -3.3195 -3.152 -1.4985 -3.2495 -3.699 -4.1955 -3.3195 0 
-8.539001 -9.906 -9.935501 -7.125 -4.764 -4.1915 -6.0885 -7.999001 -6.278501 -3.3195 
-17.2518 -12.122 -14.1866 -8.529501 -6.8195 -7.6165 -10.159 -10.485 -6.278501 
-19.4678 -16.3731 -15.5911 -10.2925 -9.644501 -11.7798 -12.645 -10.485 
-23.7189 -17.7776 -17.3541 -13.1175 -13.953 -14.2658 -12.645 
-5.749 -3.3195 0 -3.3195 -1.7565 -3.2495 -4.4525 -3.9675 -2.674 0 
-9.356501 -3.3195 -3.3195 -5.387 -4.5605 -9.125 -9.375501 -7.0455 -2.674 
-9.356501 -5.2825 -5.387 -8.5035 -10.451 -14.0584 -12.7523 -7.0455 
-11.5537 -7.915501 -8.5035 -14.7292 -15.3844 -17.4352 -12.7523 
-14.1867 -11.4172 -14.7292 -19.6626 -18.7612 -17.4352 
-6.8095 -3.3195 0 -9.263 -3.3195 -2.3615 -3.2495 -3.3195 -3.9755 -2.186 -3.535 -3.89 -1.934 -3.3195 
-7.3815 -3.3195 -9.263 -13.1145 -6.2005 -5.9175 -7.223001 -7.677501 -6.486 -6.8505 -6.2535 -5.431 -5.256001 
-7.3815 -13.6495 -13.1145 -15.9955 -9.4445 -10.1765 -10.7175 -10.451 -11.6037 -9.293 -8.002501 -8.402 
-18.1633 -17.501 -15.9955 -19.2395 -14.0549 -13.8592 -13.491 -15.5687 -14.0462 -10.718 -11.1217 
-22.0148 -20.382 -19.2395 -23.8499 -17.7376 -16.6327 -18.6087 -18.0112 -15.4712 -13.8372 
