-4.759 
n/a 
n/a 
n/a 
n/a 
-4.759 
n/a 
n/a 
n/a 
n/a 
-4.759 
n/a 
n/a 
n/a 
n/a 
-4.759 
n/a 
n/a 
n/a 
n/a 
-3.3715 -3.319 -1.7565 -4.8075 -3.9005 -3.1015 -3.383 -4.4695 -3.098 -3.5505 -4.243 -1.934 -2.3615 -4.579 -4.319 -3.4765 0 -4.333 -4.0455 0 -4.122 -3.135 -2.95 -3.383 -4.4695 0 -4.444 -9.703501 -2.3615 -3.4765 -3.074 -4.9345 0 
-7.602501 -4.165 -6.525001 -9.4825 -8.2115 -6.4515 -6.6995 -8.1265 -6.901 -8.7635 -5.9155 -3.539 -5.835 -10.115 -7.887501 -3.4765 -4.333 -6.4515 -4.0455 -4.122 -6.808001 -4.868 -6.7095 -6.6995 -4.4695 -4.444 -14.7995 -11.848 -7.282001 -6.812 -7.283 -4.9345 
-7.992501 -8.522 -11.541 -14.0355 -11.9305 -8.8905 -10.553 -12.6397 -12.7884 -10.6138 -7.779 -7.7795 -12.0454 -13.8859 -7.887501 -7.4475 -6.4515 -6.4515 -8.182001 -6.808001 -9.377001 -8.389501 -10.068 -6.6995 -10.048 -14.7995 -17.5386 -17.0311 -10.096 -11.5188 -7.283 
-12.5291 -13.6968 -16.094 -17.7545 -14.3695 -12.8474 -15.0662 -18.5271 -14.6387 -12.4773 -12.3603 -14.0419 -15.8163 -13.8859 -12.4193 -9.477 -6.4515 -11.2296 -11.155 -9.377001 -13.0635 -11.985 -10.068 -12.6344 -20.4867 -17.5386 -22.7021 -19.8451 -14.8028 -11.5188 
-17.7039 -18.2498 -19.813 -20.1935 -18.3264 -17.3606 -20.9536 -20.3774 -16.5022 -17.0586 -18.6227 -17.8128 -15.8163 -18.4177 -14.4488 -9.477 -11.2296 -14.2026 -13.724 -13.0635 -16.659 -11.985 -16.0029 -23.0731 -23.2258 -22.7021 -25.5161 -24.5519 -14.8028 
-1.934 -3.3785 -3.6675 0 -1.4985 -6.7495 -2.4945 -1.4985 -3.098 -4.0185 -4.2175 -1.7695 -4.157 -1.4985 -4.243 -2.356 -2.985 -4.2285 -2.4285 -4.519 0 -3.4985 -1.4985 -3.6445 -4.0185 -4.5375 -2.9645 -2.985 -4.227 -1.7695 -4.62 -1.4985 -4.243 -3.222 -3.8685 0 -4.976 -3.3425 -2.985 -5.9135 -2.4285 -3.8385 -1.7695 -5.6095 -1.8085 -4.243 -1.934 -6.835001 -1.4985 -3.515 -2.3335 -4.3375 -1.4985 -3.17 -4.2665 -2.3345 -1.4985 -3.498 -1.7565 -1.4985 -4.048 -4.5635 
-4.5895 -7.421 -3.6675 -1.4985 -8.0225 -8.389 -3.9315 -4.123 -7.144 -7.871 -4.751 -5.655 -5.6235 -4.9255 -6.229 -4.4615 -5.5375 -6.356501 -7.1295 -4.519 -3.4985 -4.398 -4.4795 -7.664001 -8.068501 -6.614501 -5.3685 -5.91 -5.8555 -5.587 -6.166501 -4.9255 -6.5635 -6.449 -3.8685 -4.976 -8.043501 -5.678 -8.324501 -8.027 -6.38 -5.2335 -6.334001 -7.328001 -5.634 -5.9155 -7.1485 -8.442 -4.5415 -5.4555 -7.1715 -6.3375 -3.7115 -7.167 -6.315 -3.233 -4.0295 -4.005 -2.4195 -5.3205 -7.967 
-7.6685 -7.421 -5.012 -8.0225 -9.2295 -9.319 -5.515 -7.427 -9.3485 -8.621501 -7.403501 -6.3205 -7.491 -6.6865 -8.0045 -6.759 -7.4305 -7.879001 -7.1295 -7.368 -4.398 -7.8955 -8.397 -12.1812 -9.661 -8.635 -8.152 -7.3085 -9.009501 -6.755 -7.317 -6.762 -9.23 -6.449 -8.5485 -8.043501 -9.516001 -9.679001 -9.5425 -8.98 -7.3395 -9.526501 -7.601001 -9.219501 -7.048 -9.201 -8.507001 -9.706 -6.151 -8.128 -8.084001 -7.9005 -7.7245 -8.667001 -7.6425 -5.098 -4.188 -4.3765 -5.757 -9.160501 
-7.6685 -9.093 -9.687501 -9.2295 -9.670501 -9.515 -8.1425 -9.359501 -9.401501 -10.523 -7.8865 -7.9785 -8.576 -8.199 -8.7615 -8.408 -8.755 -7.879001 -9.390501 -8.1765 -7.8955 -10.7575 -13.1038 -13.7737 -11.7231 -11.6503 -8.575001 -9.434501 -9.406 -7.748 -8.675501 -9.285 -9.23 -9.6595 -9.687 -9.516001 -9.710001 -9.713 -9.686001 -9.380501 -9.683001 -9.679001 -9.389001 -9.592501 -9.612 -9.6995 -9.711 -9.7145 -8.261001 -8.389 -8.407001 -8.512 -9.2505 -9.529 -8.150001 -5.1255 -4.4925 -7.504 -9.2445 
-9.284 -9.7045 -9.703001 -9.670501 -9.6895 -9.531 -9.433001 -9.403501 -10.611 -10.5395 -9.1365 -9.0415 -9.337 -8.8325 -9.5205 -9.551001 -8.755 -10.1505 -10.3355 -11.8424 -10.7575 -15.4643 -14.6963 -15.8358 -14.7384 -12.0733 -9.491501 -9.591001 -9.550501 -8.957001 -9.675501 -9.285 -9.691 -9.692 -9.692 -9.710001 -9.714001 -9.715501 -9.704 -9.7025 -9.685 -9.687 -9.597001 -9.712501 -9.709001 -9.717 -9.715001 -9.72 -8.405001 -8.4635 -8.5935 -9.627 -9.535 -9.5395 -8.1545 -5.477 -7.5265 -9.2805 
-3.851 -1.7695 -3.0415 -3.4915 -1.7565 -4.2895 -3.5725 -4.3665 -4.243 -2.186 -1.4985 -4.4695 -3.5065 -1.7565 -1.4985 -8.4205 -1.756 -4.333 -4.704 -3.152 -3.819 -3.6975 -4.6555 -6.3485 -3.882 -2.4265 -3.251 -3.966 -3.1435 -3.4775 -1.7695 -3.925 -1.756 -4.0795 -4.0455 -1.756 -4.7445 -3.4765 0 
-4.0015 -5.716001 -4.39 -4.605 -5.5605 -7.805 -9.005001 -7.26 -6.0275 -3.339 -5.252501 -7.645 -5.1305 -2.4195 -10.0205 -10.9925 -6.232 -6.068501 -8.4895 -6.064 -7.360001 -8.300001 -10.872 -9.339001 -5.945001 -4.8545 -5.8865 -6.0375 -5.723001 -5.079 -6.1945 -5.7945 -5.9 -7.9405 -5.33 -6.78 -7.882 -3.4765 
-7.7375 -6.931001 -5.8275 -10.733 -9.315001 -13.7709 -12.2587 -9.2165 -7.499 -6.966 -8.213 -8.794001 -5.651 -11.063 -11.088 -12.7745 -7.4005 -9.915001 -11.4977 -8.738501 -12.2871 -14.3965 -13.665 -11.137 -7.828001 -7.4445 -7.227 -8.262501 -6.9255 -9.826501 -7.6815 -11.0539 -10.4474 -9.809001 -9.289001 -10.281 -7.882 
-8.5005 -7.658501 -11.9491 -14.4875 -15.3807 -17.0246 -14.2152 -10.169 -11.4232 -9.75 -9.0775 -9.646501 -15.9357 -11.9722 -14.4848 -15.0768 -10.2175 -12.9232 -14.1722 -14.0656 -18.3836 -17.8575 -14.5025 -12.7215 -10.0005 -8.226001 -9.5045 -9.606 -11.935 -11.6917 -13.0799 -15.6013 -12.3159 -13.9676 -13.1156 -10.281 
-9.915 -14.3015 -15.7036 -20.5532 -18.6344 -18.9811 -15.1677 -14.2456 -14.2072 -10.7509 -9.878 -20.1878 -16.7017 -15.369 -16.0563 -17.8938 -13.2257 -15.5977 -19.4993 -20.1621 -21.8446 -18.695 -17.5062 -15.6168 -10.782 -10.434 -10.244 -14.8285 -13.8002 -17.0901 -17.6273 -17.4698 -16.4745 -17.7942 -13.1156 
-4.007 -2.186 -1.4985 -3.17 -4.7715 -3.515 -2.3345 -4.7855 -1.934 -1.4985 -3.188 -4.8305 0 -4.333 -4.278 -3.152 -3.383 -4.4695 -2.871 -3.355 -1.7565 -2.95 -1.756 -3.1015 -1.4985 -4.7445 -4.278 -2.4945 -3.383 -4.4695 
-6.2675 -3.339 -3.7115 -6.028501 -8.196 -6.514 -6.2295 -6.321 -2.6125 -3.619 -7.115001 -4.8305 -4.333 -5.198 -8.147501 -5.31 -6.6995 -7.1955 -5.7015 -3.725 -4.3865 -4.287 -4.642 -4.7205 -6.3915 -5.86 -7.541501 -4.732 -6.6995 
-7.4355 -4.888 -6.867001 -8.3725 -11.922 -11.1706 -7.6915 -7.0005 -4.377 -7.8155 -7.115001 -6.534 -5.198 -9.23 -10.054 -8.908001 -8.846001 -10.4196 -5.995 -7.6965 -5.4405 -6.9015 -5.848001 -9.5255 -8.132 -10.0125 -9.486501 -8.0235 
-8.317 -7.989 -8.9445 -12.5719 -16.5786 -12.6326 -8.299001 -8.4565 -9.057001 -7.8155 -10.1229 -6.5345 -9.23 -11.2389 -13.8706 -11.2723 -12.2307 -10.7131 -10.2485 -9.179501 -8.2535 -8.228001 -10.6875 -11.3676 -13.1825 -11.9575 -13.0304 
-10.01 -10.2325 -13.5767 -17.2285 -18.0406 -13.2401 -10.4105 -13.2995 -9.057001 -11.352 -10.1234 -13.0357 -11.2389 -15.0555 -16.2349 -14.657 -12.5242 -14.9666 -11.7315 -12.1357 -9.425 -13.1579 -12.5296 -16.4181 -15.1275 -15.5014 
