-4.759 
n/a 
n/a 
n/a 
n/a 
-4.759 
n/a 
n/a 
n/a 
n/a 
-4.759 
n/a 
n/a 
n/a 
n/a 
-4.759 
n/a 
n/a 
n/a 
n/a 
-2.9805 -4.4945 -5.1845 -3.833 -1.756 -2.9805 -3.465 -1.7695 -3.93 -3.6645 0 -2.872 -8.643001 -3.93 -3.6645 -5.3335 -2.4945 -4.9345 -7.009 
-6.165 -10.575 -8.536 -5.172 -4.3555 -6.5895 -3.665 -5.515501 -7.814501 -3.6645 -2.872 -12.812 -12.788 -7.814501 -9.273001 -7.005001 -6.43 -12.8405 
-13.1883 -14.6511 -10.2485 -8.1665 -8.316501 -6.933001 -9.501 -9.443501 -7.814501 -6.485001 -12.812 -16.957 -16.6725 -14.0506 -10.6475 -11.2515 -14.7466 
-17.2644 -16.3636 -13.243 -12.2797 -8.625 -12.8906 -13.6794 -9.443501 -10.5325 -16.6214 -16.957 -20.8415 -22.9086 -15.4251 -14.894 -19.5681 
-18.9769 -19.3581 -17.3562 -12.5882 -14.6978 -17.069 -13.6794 -12.2833 -20.6689 -20.7664 -20.8415 -27.0776 -24.2831 -19.6716 -23.2106 
-5.1845 -3.5585 -3.152 -4.2225 -3.284 -3.518 -1.756 -4.1555 -2.0935 -3.93 -3.833 -2.0935 -2.7765 -3.0465 -2.882 -2.489 -4.9985 -2.3345 -1.4985 -6.899 -3.5435 
-8.593 -5.675 -6.1265 -7.741 -6.064 -5.105 -5.8385 -5.703001 -5.5695 -7.232501 -5.870501 -6.494 -4.5705 -7.688 -3.631 -5.8795 -6.4645 -3.233 -8.336 -8.7615 
-10.2235 -9.7775 -10.4765 -9.495001 -7.330501 -8.993501 -7.3645 -8.7965 -7.823501 -9.187501 -10.7754 -9.274501 -8.9975 -8.3465 -6.5865 -7.684 -6.9845 -9.4925 -9.265 
-14.326 -14.1153 -12.2305 -11.2291 -11.535 -10.7307 -11.1406 -11.6821 -9.948501 -14.2676 -13.5559 -13.7565 -9.630501 -11.6404 -8.991 -8.238 -13.9048 -10.112 
-18.6638 -15.8693 -13.9646 -15.4336 -13.2722 -14.5068 -14.0262 -13.8071 -15.0154 -17.0481 -18.0379 -14.3895 -13.1974 -14.0449 -9.568501 -15.3487 -14.5243 
-6.899 -2.229 -3.93 -3.4005 -3.6045 -3.4985 -3.43 -5.1845 -3.693 -1.7695 -3.717 -3.222 -3.93 -3.4005 
-8.988 -6.3275 -4.708 -6.718 -5.2395 -7.685 -9.6505 -9.035501 -5.599 -4.686 -5.268001 -6.595 -4.708 
-13.2619 -6.625 -7.653501 -8.756001 -9.330501 -14.3033 -13.4643 -11.2275 -8.0905 -5.6195 -9.111501 -7.1765 
-13.5594 -9.729 -9.913 -13.2562 -16.167 -18.1171 -15.6563 -13.719 -9.294001 -9.344001 -9.446 
-16.6634 -11.9905 -14.5236 -20.0927 -19.9808 -20.3091 -18.1478 -14.9225 -13.2809 -9.647 
-3.2615 -4.9135 -1.934 -5.1845 -3.284 0 -1.4985 -6.899 -4.6555 -3.93 -3.4005 -3.324 -2.7415 -3.7015 -3.091 -3.3755 
-6.621 -6.1235 -6.564 -8.2255 -3.284 -1.4985 -8.336 -10.1725 -8.613001 -4.708 -5.4155 -5.465 -6.2755 -5.8685 -5.312 
-8.0835 -10.292 -10.411 -8.2255 -5.3575 -8.336 -11.7025 -14.13 -8.821501 -7.3675 -7.812 -10.075 -8.1105 -9.522 
-12.4208 -14.6126 -10.411 -10.298 -12.6288 -11.7025 -15.66 -14.3385 -12.0704 -9.955501 -12.6576 -12.2214 -12.0252 
-16.7414 -14.6126 -12.4835 -17.5693 -15.9953 -15.66 -15.8685 -17.5874 -14.6584 -14.8011 -14.804 -16.1361 
