-4.759 
n/a 
n/a 
n/a 
n/a 
-4.759 
n/a 
n/a 
n/a 
n/a 
-4.759 
n/a 
n/a 
n/a 
n/a 
-4.759 
n/a 
n/a 
n/a 
n/a 
-5.3885 -3.8145 -1.756 -3.135 -3.4425 -1.7565 -7.967 0 -7.5135 -2.186 -4.1205 -3.325 -5.3885 -3.922 
-8.8485 -5.497 -4.5755 -7.014 -4.5535 -9.673 -7.967 -7.5135 -9.652 -5.007 -6.806 -9.299001 -8.2815 
-10.5755 -8.3365 -8.6245 -7.593 -12.9746 -9.673 -10.147 -9.652 -12.6452 -7.978001 -13.2694 -10.469 
-13.415 -12.5931 -9.692501 -16.3691 -12.9746 -12.0436 -12.5393 -12.6452 -15.6162 -14.5104 -14.4394 
-17.6716 -13.6611 -18.5358 -16.3691 -15.3452 -14.4359 -15.5325 -15.6162 -22.1486 -15.6804 
-3.135 -3.4425 -2.229 -1.7565 -5.3885 0 -8.214001 -1.756 -7.5135 0 -4.7315 -5.0075 -1.7695 -5.3885 -8.545501 
-7.014 -5.533 -4.9155 -7.235001 -5.3885 -8.214001 -9.928 -9.363501 -7.5135 -4.7315 -10.0575 -5.113 -7.072001 -14.9018 
-8.498501 -6.7805 -10.564 -7.235001 -10.0855 -9.928 -17.5355 -9.363501 -9.7925 -10.0575 -10.334 -9.848001 -17.1875 
-9.252001 -13.3648 -10.564 -12.295 -12.6153 -17.5355 -17.5355 -9.8795 -15.1185 -10.334 -15.2132 -20.3689 
-16.0837 -13.3648 -15.624 -14.8248 -20.2228 -17.5355 -18.0515 -15.2055 -15.395 -15.2132 -25.7341 
-3.8145 -1.7565 -5.3885 0 -7.967 0 -1.756 -3.135 -3.9035 -1.7565 -7.193 -3.8145 -2.4945 -1.4985 -4.418 -1.7565 -5.3885 -3.922 -3.4425 
-4.711 -7.235001 -5.3885 -7.967 -7.967 -1.756 -4.5755 -5.793 -4.616 -8.663501 -8.771 -6.5495 -3.9315 -5.732 -5.347 -7.235001 -8.2815 -8.348001 
-9.611 -7.235001 -9.83 -7.967 -9.7995 -4.5755 -7.2415 -5.955501 -12.3838 -9.928 -11.7136 -8.125 -7.965501 -6.503 -10.494 -9.493501 -10.4855 
-9.611 -12.0395 -9.83 -9.7995 -12.7864 -7.2415 -7.3885 -14.1309 -13.6483 -12.9588 -13.2891 -12.2352 -8.540001 -11.5558 -12.7525 -11.8639 
-14.6097 -12.0395 -10.677 -12.7864 -15.4524 -7.3885 -15.4871 -15.3954 -16.6791 -14.5343 -17.3993 -12.8097 -13.819 -13.8143 -15.1229 
-5.3885 -3.922 -1.934 -4.1205 -2.8645 -2.3335 -5.3885 -3.8145 -1.756 -3.135 -4.088 -1.7565 -8.214001 -3.8145 0 -7.193 -3.8145 0 
-8.2815 -5.784 -8.104501 -8.028 -5.909 -8.870501 -8.8485 -5.497 -4.5755 -6.0015 -5.4975 -9.435 -10.504 -3.8145 -7.193 -8.771 -3.8145 
-10.051 -12.8783 -12.0568 -11.3081 -12.7372 -12.6733 -10.5755 -8.3365 -7.7215 -7.9725 -14.2912 -11.7692 -10.504 -9.928 -8.771 -8.771 
-17.0649 -16.8306 -15.3369 -18.1363 -16.54 -14.4003 -13.415 -11.6901 -9.546 -16.818 -16.6254 -11.7692 -16.6175 -10.3265 -8.771 
-21.0172 -20.1107 -22.1651 -21.9391 -18.267 -17.2398 -16.7686 -13.5146 -18.4569 -19.1522 -16.6254 -17.8827 -17.016 -10.3265 
