-4.759 
n/a 
n/a 
n/a 
n/a 
-4.759 
n/a 
n/a 
n/a 
n/a 
-4.759 
n/a 
n/a 
n/a 
n/a 
-4.759 
n/a 
n/a 
n/a 
n/a 
-6.3215 -5.6655 -3.8405 
-12.8754 -10.404 
-17.6139 
n/a 
n/a 
-8.7255 -4.6825 -12.16972 
-13.7302 -17.79102 
-26.83872 
n/a 
n/a 
-1.4985 -5.555 -1.7565 -1.4985 -4.6805 -1.7565 -6.3215 0 
-6.789001 -6.25 -2.4195 -5.733001 -5.617 -7.9375 -6.3215 
-7.035501 -6.9055 -6.445001 -6.358001 -10.375 -7.9375 
-7.4995 -9.2335 -7.0185 -11.224 -10.375 
-9.416 -9.337501 -12.3447 -11.224 
-1.4985 -5.555 -1.7565 -6.3215 -4.6805 
-6.789001 -6.25 -7.9375 -11.8904 
-7.035501 -13.053 -13.8054 
-14.1529 -18.9209 
-20.0208 
