-4.759 
n/a 
n/a 
n/a 
n/a 
-4.759 
n/a 
n/a 
n/a 
n/a 
-4.759 
n/a 
n/a 
n/a 
n/a 
-4.759 
n/a 
n/a 
n/a 
n/a 
-2.5685 -3.307 -4.1665 -2.4945 -3.8225 -2.0935 -2.5685 0 
-7.336 -8.636001 -5.728 -5.672 -5.9725 -3.987 -2.5685 
-13.3362 -10.718 -9.075001 -7.345 -7.054 -3.987 
-15.4182 -14.065 -10.688 -8.072001 -7.054 
-18.7652 -15.678 -11.415 -8.072001 
-1.934 -2.5685 -1.4985 -3.7745 -4.042 -4.139 0 -2.871 -4.7935 -4.3725 -3.86 -2.186 -4.4715 -4.7635 0 
-4.244 -3.7015 -4.753 -6.255 -6.5705 -4.139 -2.871 -7.4895 -8.154 -9.365001 -5.4135 -7.495 -6.901 -4.7635 
-5.3815 -7.757 -6.932 -7.429501 -6.5705 -7.051001 -7.4895 -11.3514 -13.5469 -11.0409 -11.2867 -10.622 -6.901 
-8.961 -10.1185 -8.6215 -7.429501 -9.2215 -11.9835 -11.3514 -16.7443 -15.2228 -16.9141 -14.4137 -10.622 
-11.4865 -10.57 -8.6215 -9.647501 -14.6264 -15.8454 -16.7443 -18.4202 -21.096 -20.0411 -14.4137 
-2.5685 -3.4985 -4.5945 -2.8645 -3.8225 -4.617 
-6.6805 -7.880501 -7.3995 -7.437 -6.844501 
-11.7523 -11.1515 -12.52 -10.9004 
-15.0233 -16.272 -15.9834 
-20.1438 -19.7354 
-2.5685 -4.617 -2.4945 -4.49 -1.934 -3.324 -4.47 
-6.7 -6.088 -5.492001 -4.943 -5.885 -6.870501 
-7.722 -8.5065 -5.806 -8.658501 -9.6295 
-10.5975 -8.726501 -9.439 -10.4265 
-10.7075 -12.6179 -11.4676 
