-4.759 
n/a 
n/a 
n/a 
n/a 
-4.759 
n/a 
n/a 
n/a 
n/a 
-4.759 
n/a 
n/a 
n/a 
n/a 
-4.759 
n/a 
n/a 
n/a 
n/a 
-3.691 -3.5455 -3.676 -2.8645 -3.502 -3.651 0 -2.8645 -3.6115 -4.1735 -3.59 
-6.959001 -4.521501 -5.929501 -7.4555 -8.134501 -3.651 -2.8645 -7.4075 -5.7235 -6.9245 
-7.246 -7.076 -10.9657 -13.0302 -8.134501 -7.503 -7.4075 -9.438001 -7.8015 
-10.2915 -12.3972 -16.5404 -13.0302 -12.1779 -12.2574 -9.438001 -11.6262 
-15.6127 -17.9719 -16.5404 -17.0736 -16.9323 -14.2879 -11.6262 
-3.691 -5.0655 -3.651 0 -1.7565 -3.5455 -3.676 -1.756 -4.115 -1.7695 -2.489 -1.4985 -3.188 -3.6115 -3.6135 -3.59 -1.934 -3.275 -1.7565 -3.873 0 
-9.176001 -10.459 -3.651 -1.7565 -4.8635 -4.521501 -5.0365 -5.7375 -6.0245 -3.1405 -3.9675 -3.619 -7.173 -7.192 -6.519 -5.272 -4.519 -3.5505 -5.002 -3.873 
-14.6811 -10.459 -6.042 -4.8635 -5.453 -5.793 -9.4475 -8.21 -6.164001 -4.568 -6.434 -7.627501 -10.4765 -10.5043 -8.241 -7.346 -4.531 -7.5445 -5.002 
-14.6811 -12.85 -9.439 -5.453 -6.884501 -10.3745 -12.0554 -8.7065 -6.8195 -6.6765 -10.749 -10.8726 -14.103 -12.2263 -10.0885 -7.3495 -7.5565 -7.5445 
-17.0721 -16.247 -10.599 -6.884501 -11.5596 -13.1232 -12.5519 -9.1055 -8.984501 -10.7595 -13.9941 -14.4991 -15.825 -14.0738 -10.0945 -9.436501 -7.5565 
-3.691 -3.7875 -3.651 0 -1.7565 -3.502 -1.7565 -3.5455 -3.676 0 -2.186 -3.6115 -4.1735 -3.59 -1.934 -1.4985 -3.188 0 
-7.8575 -8.9375 -3.651 -1.7565 -4.9855 -5.0575 -4.8635 -4.521501 -3.676 -2.186 -5.979 -5.7235 -6.9245 -5.272 -2.6125 -3.619 -3.188 
-13.0907 -8.9375 -6.042 -4.9855 -7.911 -7.8735 -5.453 -4.521501 -5.5015 -5.979 -8.3995 -7.8015 -7.166 -5.747 -4.377 -3.619 
-13.0907 -10.5645 -9.1885 -7.911 -10.733 -9.474501 -5.453 -6.666 -9.3435 -8.3995 -10.382 -7.9475 -7.578 -6.1975 -4.377 
-14.7177 -13.711 -12.4886 -10.733 -12.334 -9.474501 -7.5875 -10.3155 -11.9346 -10.382 -10.555 -8.305 -7.6635 -6.1975 
-3.691 -2.186 -1.4985 -3.6115 -4.4665 -3.59 -1.934 -1.4985 -3.188 -2.3335 -5.5855 -3.651 0 -3.873 -1.7565 -3.502 -3.676 0 
-5.832 -3.339 -4.081 -6.555501 -7.635 -5.272 -2.6125 -3.619 -5.428 -7.1105 -10.3965 -3.651 -3.873 -5.197001 -4.9855 -4.945 -3.676 
-6.955 -5.563 -6.8335 -9.146501 -8.007001 -5.747 -4.377 -5.688 -9.4785 -12.0733 -10.3965 -8.2875 -5.197001 -8.6645 -6.2905 -4.945 
-8.496 -7.572001 -9.237 -9.443501 -8.575001 -6.1975 -6.245501 -9.689501 -14.4735 -12.0733 -15.033 -9.546501 -8.6645 -9.204 -6.2905 
-9.839001 -9.6215 -9.4805 -9.660001 -8.6855 -7.5855 -9.748 -14.7113 -14.4735 -16.7098 -16.292 -13.2054 -9.204 -9.204 
