-4.759 
n/a 
n/a 
n/a 
n/a 
-4.759 
n/a 
n/a 
n/a 
n/a 
-4.759 
n/a 
n/a 
n/a 
n/a 
-4.759 
n/a 
n/a 
n/a 
n/a 
-2.5685 -1.4985 -3.6005 -3.681 -2.742 -2.489 -4.4725 -4.0655 
-3.7015 -4.9615 -8.2155 -5.883 -3.301 -5.259501 -8.022 
-6.398 -8.8955 -10.2385 -6.566 -5.969501 -8.568501 
-9.399 -10.8801 -11.2273 -9.6415 -9.689501 
-11.387 -11.8689 -14.3028 -13.4021 
-1.4985 -3.699 -3.681 -4.0655 -2.0935 -7.190001 -4.179 0 
-5.264 -5.8595 -7.486 -4.742 -8.856001 -8.514001 -4.179 
-6.905 -10.702 -7.851501 -10.459 -10.139 -8.514001 
-11.9387 -11.0675 -13.9851 -11.742 -10.139 
-12.3042 -17.2011 -15.2681 -11.742 
-2.4265 -3.331 -1.7695 -2.489 -7.190001 -3.681 0 -4.0655 -2.0935 -3.277 0 
-6.1735 -3.669 -3.1405 -11.1415 -11.6818 -3.681 -4.0655 -4.742 -4.694 -3.277 
-6.754 -4.489 -11.996 -15.6333 -11.6818 -7.486 -4.742 -7.205 -4.694 
-7.003 -14.0513 -16.4878 -15.6333 -15.4868 -7.851501 -7.205 -7.205 
-16.7401 -18.5431 -16.4878 -19.4383 -15.8523 -9.9645 -7.205 
-4.426 -1.7565 -1.4985 -3.6115 -4.7285 -4.1555 -3.147 0 
-5.47 -2.4195 -4.081 -6.5495 -8.4455 -5.77 -3.147 
-5.9535 -5.180501 -6.670501 -9.978001 -9.541501 -5.77 
-8.462501 -7.797 -10.054 -11.0524 -9.541501 
-10.2375 -11.2985 -11.1648 -11.0524 
