-4.759 
n/a 
n/a 
n/a 
n/a 
-4.759 
n/a 
n/a 
n/a 
n/a 
-4.759 
n/a 
n/a 
n/a 
n/a 
-4.759 
n/a 
n/a 
n/a 
n/a 
-3.6845 -2.5235 -4.3305 -5.547 -4.33 -3.595 0 
-5.153 -6.6945 -9.521501 -8.075001 -6.505501 -3.595 
-10.0745 -12.4607 -12.2549 -9.660501 -6.505501 
-15.9677 -15.1941 -13.8404 -9.660501 
-18.7011 -16.7796 -13.8404 
-3.5895 -2.3585 -10.8905 -5.547 -1.7695 -4.3055 0 
-5.047 -14.8044 -16.4375 -6.0445 -6.460001 -4.3055 
-19.0355 -20.3514 -16.935 -8.875501 -6.460001 
-24.5825 -20.8489 -19.766 -8.875501 
-25.08 -23.6799 -19.766 
-1.7695 -4.9405 -7.659 -1.7695 -3.8905 0 
-7.1225 -13.6015 -10.389 -5.2345 -3.8905 
-16.1685 -16.3315 -13.854 -5.2345 
-18.8985 -19.7965 -13.854 
-22.3635 -19.7965 
-5.3805 -1.7695 -4.931 -4.385 -6.256001 -4.807 -4.33 -3.188 -3.772 0 
-5.4275 -6.5435 -8.33 -11.9284 -8.7165 -6.1385 -7.704501 -6.926001 -3.772 
-7.513501 -9.0395 -16.2658 -14.3889 -10.4265 -9.788 -12.2519 -6.926001 
-9.992001 -17.3295 -18.7263 -16.0989 -14.076 -14.4646 -12.2519 
-18.1636 -19.79 -20.4363 -19.7484 -18.7526 -14.4646 
