-4.759 
n/a 
n/a 
n/a 
n/a 
-4.759 
n/a 
n/a 
n/a 
n/a 
-4.759 
n/a 
n/a 
n/a 
n/a 
-4.759 
n/a 
n/a 
n/a 
n/a 
-4.0885 -5.3935 0 -6.144 -4.348 0 
-10.985 -5.3935 -6.144 -8.923 -4.348 
-10.985 -12.6063 -8.923 -8.923 
-18.1978 -15.3853 -8.923 
-20.9768 -15.3853 
-4.0105 -3.522 0 -6.144 -4.795 
-8.1415 -3.522 -6.144 -9.689 
-8.1415 -10.293 -9.689 
-15.3061 -13.838 
-18.8511 
-4.0105 -4.867 0 -6.144 -2.229 -4.9135 -6.818501 
-9.665001 -4.867 -6.144 -7.4565 -6.7015 -12.6678 
-9.665001 -12.0068 -7.4565 -12.3738 -15.0642 
-16.9844 -13.3193 -12.3738 -20.7365 
-18.2969 -18.2366 -20.7365 
-4.0105 -3.522 0 -5.3745 -4.5845 -2.229 -4.348 
-8.1415 -3.522 -5.3745 -9.233001 -5.886001 -6.0765 
-8.1415 -9.4505 -9.233001 -10.5435 -10.8491 
-14.4636 -13.4068 -10.5435 -15.5066 
-18.4199 -14.7173 -15.5066 
