-4.759 
n/a 
n/a 
n/a 
n/a 
-4.759 
n/a 
n/a 
n/a 
n/a 
-4.759 
n/a 
n/a 
n/a 
n/a 
-4.759 
n/a 
n/a 
n/a 
n/a 
-4.649 -4.9925 -1.7695 -3.9075 -1.934 -3.6085 0 
-10.8025 -5.272501 -4.7445 -6.067 -4.739 -3.6085 
-11.0825 -7.688001 -6.926001 -7.919001 -4.739 
-13.498 -9.927501 -8.716001 -7.919001 
-15.7375 -11.7175 -8.716001 
-5.9285 -1.7695 -4.3845 -1.934 -3.6085 
-6.113 -4.8485 -5.9885 -4.739 
-10.0354 -6.3455 -7.66 
-11.5324 -8.117001 
-13.3039 
-2.9805 -4.9775 -1.7695 -4.3845 -1.934 -3.6085 
-6.243501 -5.224501 -4.8485 -5.9885 -4.739 
-6.389501 -7.542001 -6.3455 -7.66 
-8.557501 -9.336 -8.117001 
-10.292 -10.6345 
-4.649 -3.0695 -4.9775 -1.7695 -4.3845 -3.6085 
-7.599501 -6.497001 -5.224501 -4.8485 -5.8455 
-11.357 -6.5725 -7.542001 -6.729001 
-11.4325 -8.8205 -9.239 
-13.6805 -9.920001 
