-4.759 
n/a 
n/a 
n/a 
n/a 
-4.759 
n/a 
n/a 
n/a 
n/a 
-4.759 
n/a 
n/a 
n/a 
n/a 
-4.759 
n/a 
n/a 
n/a 
n/a 
-3.7855 0 -3.0835 -2.9775 -4.867 
-3.7855 -3.0835 -5.4115 -7.2115 
-6.993001 -5.4115 -10.6215 
-9.865001 -10.6215 
-15.5868 
-4.4675 0 -3.0835 -2.9775 -3.602 
-4.4675 -3.0835 -5.4115 -6.671 
-8.131001 -5.4115 -10.019 
-10.9206 -10.019 
-15.5281 
-3.3425 0 -3.0835 -2.9775 -3.602 
-3.3425 -3.0835 -5.4115 -6.671 
-7.168 -5.4115 -10.019 
-9.287001 -10.019 
-14.4683 
-3.522 0 -3.0835 -2.9775 -4.928 
-3.522 -3.0835 -5.4115 -7.925501 
-6.6425 -5.4115 -11.3127 
-8.614 -11.3127 
-15.4296 
