-4.759 
n/a 
n/a 
n/a 
n/a 
-4.759 
n/a 
n/a 
n/a 
n/a 
-4.759 
n/a 
n/a 
n/a 
n/a 
-4.759 
n/a 
n/a 
n/a 
n/a 
-3.5025 -3.8235 -2.186 -3.43 -2.264 -4.2495 -5.1945 0 -3.7805 -2.9195 -4.057 -2.186 -4.256 -1.7695 -3.5025 -3.6135 -3.991 0 
-7.65 -5.6135 -4.64 -5.2935 -6.6315 -8.142 -5.1945 -3.7805 -7.610001 -6.341001 -6.8405 -5.3665 -4.7405 -5.664001 -7.8125 -8.4925 -3.991 
-10.007 -8.3485 -6.4985 -9.828 -10.172 -8.142 -8.789001 -7.610001 -11.5079 -8.8475 -10.769 -5.549 -7.391 -10.513 -13.2943 -8.4925 
-12.8354 -10.5114 -11.3892 -13.4207 -10.172 -12.3279 -12.9391 -11.5079 -14.0144 -13.1948 -10.9515 -8.2445 -12.6738 -15.9948 -13.2943 
-14.9983 -15.4021 -14.9819 -13.4207 -14.6961 -16.478 -16.837 -14.0144 -18.3617 -13.3773 -13.647 -13.8893 -18.1556 -15.9948 
-1.4985 -3.188 -3.5025 -2.186 -4.091 -2.3345 -4.161 -3.918 -2.3345 -4.732 -5.1025 -1.756 -5.245 -4.6395 -5.1025 0 
-3.619 -6.8925 -5.481 -4.969501 -5.012 -6.8545 -8.939001 -5.646501 -7.3365 -7.249001 -6.275001 -7.177001 -7.429 -9.2685 -5.1025 
-7.195001 -9.114 -9.085501 -5.797 -10.151 -12.2189 -10.0615 -10.3405 -9.286501 -8.359 -10.5225 -9.109 -12.506 -9.2685 
-9.48 -13.0027 -9.751 -10.674 -15.6524 -13.3414 -14.9867 -12.2905 -10.622 -10.733 -12.4545 -14.3032 -12.506 
-13.5363 -13.6682 -14.9442 -16.1754 -16.7749 -18.2666 -16.9367 -13.626 -12.996 -12.665 -17.6487 -14.3032 
-3.5025 -2.186 -1.4985 -3.991 -3.458 -3.948 -3.5965 -3.3425 -4.732 -1.756 -5.245 -4.6395 -4.666 0 
-5.481 -3.339 -5.0305 -5.4535 -6.358 -7.1425 -6.345 -7.624001 -6.0425 -7.177001 -7.429 -7.1975 -4.666 
-6.603 -6.9065 -5.867 -8.804501 -9.395 -10.7118 -11.3419 -8.901501 -9.824 -9.109 -8.9525 -7.1975 
-10.022 -7.2595 -9.160001 -11.9127 -13.2015 -15.7087 -12.6194 -12.8034 -11.9332 -10.2645 -8.9525 
-10.6342 -10.609 -12.3226 -15.7192 -18.1984 -16.9862 -16.5213 -14.9126 -13.0887 -10.2645 
-3.5025 -2.186 -1.8085 -3.8235 -2.9705 -4.508 -1.8085 -3.6135 -3.5035 -1.7565 -3.5965 -4.103 -4.4475 -2.3345 -4.732 -5.1025 -1.756 -3.7805 -4.048 0 
-5.481 -3.164 -4.9905 -6.4735 -5.867001 -5.1955 -4.4545 -7.8735 -6.151 -5.041 -6.0085 -8.071 -6.1375 -7.3365 -7.249001 -6.275001 -5.31 -6.1695 -4.048 
-6.424 -6.3985 -7.212 -9.1525 -6.633 -7.851001 -8.5895 -10.368 -10.2435 -7.1785 -9.194 -8.6685 -9.572001 -9.286501 -8.359 -9.225501 -7.8 -6.1695 
-10.61 -8.0485 -9.929501 -9.696 -9.462501 -12.6126 -11.5482 -14.5117 -12.5378 -10.1035 -9.6695 -10.0255 -9.6475 -10.622 -11.4785 -12.1473 -7.8 
-12.26 -10.485 -10.4625 -12.7763 -14.2135 -15.5713 -15.6919 -16.806 -15.4628 -10.766 -10.047 -10.037 -11.8488 -13.7415 -14.4003 -12.1473 
