-4.759 
n/a 
n/a 
n/a 
n/a 
-4.759 
n/a 
n/a 
n/a 
n/a 
-4.759 
n/a 
n/a 
n/a 
n/a 
-4.759 
n/a 
n/a 
n/a 
n/a 
-5.089 0 
-5.089 
n/a 
n/a 
n/a 
-2.4265 -2.229 -3.333 -3.115 -5.943 
-3.3415 -5.6095 -7.209001 -9.432501 
-5.898 -9.450001 -13.5775 
-9.9505 -15.8419 
-16.3424 
-2.7765 -2.489 -1.8085 -3.5935 -4.7715 -3.074 
-3.495 -3.799 -4.887 -7.1885 -8.1415 
-4.987 -7.048 -7.915 -9.673 
-8.314 -9.7635 -10.7523 
-10.1665 -12.7732 
-5.2105 -3.115 -4.031 
-8.4855 -7.8265 
-13.6944 
n/a 
n/a 
