-4.759 
n/a 
n/a 
n/a 
n/a 
-4.759 
n/a 
n/a 
n/a 
n/a 
-4.759 
n/a 
n/a 
n/a 
n/a 
-4.759 
n/a 
n/a 
n/a 
n/a 
-2.5045 -3.543 -3.931 -3.9845 -3.8675 -4.7195 -1.934 -3.982 -3.8685 0 -2.925 -4.0855 -3.982 -1.7695 -5.081 -2.0935 -4.1765 
-5.323 -8.095 -7.251 -8.121 -9.585501 -7.377501 -5.073 -8.7415 -3.8685 -2.925 -6.963 -9.8925 -6.242 -5.4075 -5.916 -6.134501 
-10.7335 -11.7496 -12.1429 -14.0478 -12.2735 -10.1765 -9.876 -8.7415 -6.591001 -6.963 -13.5684 -12.2117 -9.368 -6.391 -10.6095 
-14.3881 -16.6415 -18.0697 -16.7358 -15.0725 -15.2333 -9.876 -11.6432 -10.7565 -13.5684 -15.8876 -15.3377 -10.6495 -11.1335 
-19.28 -22.5683 -20.7577 -19.5348 -20.1293 -15.2333 -13.0657 -15.8087 -17.3619 -15.8876 -19.0136 -16.6192 -15.392 
-1.4985 -4.285 -4.413 -3.851 -1.7695 -1.4985 -3.8275 -3.2645 -2.489 -5.12 -2.3345 -3.982 -2.5045 -3.543 -1.4985 -3.685 -1.7565 -4.7195 -4.222 -2.3345 -3.277 0 
-5.456 -5.954 -7.1255 -4.0015 -2.7955 -4.726 -7.127501 -3.7195 -6.022 -6.3675 -6.7745 -6.495501 -5.323 -5.62 -4.771501 -4.5825 -7.0645 -9.8855 -5.1145 -5.5635 -3.277 
-6.718 -8.6035 -7.1355 -4.5775 -6.153 -7.8345 -7.548501 -7.745 -6.907001 -10.7495 -8.7815 -9.304501 -5.8685 -8.6555 -5.532001 -11.3749 -12.5743 -10.6015 -8.061501 -5.5635 
-9.628 -8.606001 -7.8765 -7.684 -9.4495 -8.238501 -11.8814 -8.8905 -11.7748 -12.7565 -11.6279 -9.849 -8.766001 -10.078 -12.4336 -16.8847 -13.2903 -13.5485 -8.061501 
-9.64 -9.5015 -11.1158 -11.1371 -10.0425 -12.682 -13.0269 -13.8077 -13.7818 -15.6029 -12.1724 -12.9687 -10.1945 -16.9796 -17.9434 -17.6007 -16.2373 -13.5485 
-3.9345 -1.7695 -3.84 -2.0935 -3.931 -3.402 -2.264 -3.8275 -3.32 -4.7195 -1.756 -3.7095 -1.7565 -3.982 0 -3.982 -3.3875 -5.4625 -2.5685 -1.4985 -3.931 
-3.94 -6.255001 -5.0835 -5.78 -7.476501 -3.793 -6.2735 -7.900001 -7.487 -7.2335 -5.752 -4.7465 -5.614 -3.982 -3.982 -7.7655 -7.566501 -7.9575 -3.7015 -5.055 
-7.316 -7.868001 -9.5465 -9.4725 -7.644501 -8.477 -11.0014 -12.3136 -9.293 -11.6101 -6.35 -9.257001 -5.614 -6.2495 -7.7655 -12.1351 -8.720501 -8.8585 -8.0415 
-8.9945 -12.5648 -12.954 -9.952001 -12.6155 -13.4907 -15.415 -14.1196 -13.8502 -12.2081 -11.2055 -9.257001 -8.311 -10.218 -12.1351 -13.2891 -10.674 -13.3949 
-13.9115 -15.9723 -13.4335 -14.908 -17.6292 -17.9043 -17.221 -18.6768 -14.4482 -17.0636 -11.2055 -12.0566 -12.5699 -14.5876 -13.2891 -15.2426 -15.2104 
-3.0415 -2.4265 -2.7415 -4.8165 -2.3335 -4.4045 -3.931 -4.4825 -1.934 -1.4985 -2.7415 -2.8645 -1.7695 -2.489 -4.6525 -2.3345 -3.982 
-4.551 -3.681 -6.131001 -5.8995 -6.049 -8.7575 -8.630001 -5.5625 -2.6125 -6.5725 -7.369 -4.4755 -3.1405 -5.3245 -5.126 -6.7745 
-5.7 -7.157 -7.9775 -9.333 -9.896501 -13.9529 -9.612501 -6.0375 -7.924 -9.619501 -9.255 -4.9335 -5.892 -5.7745 -9.9895 
-9.687 -8.015 -11.4588 -13.2905 -15.2193 -14.9354 -10.018 -10.702 -11.152 -11.4437 -9.5695 -7.389 -6.4585 -10.7175 
-10.538 -11.5477 -15.4163 -18.6133 -16.2018 -15.3409 -14.7925 -13.93 -12.9762 -11.7582 -12.1166 -8.0065 -11.5327 
