-4.759 
n/a 
n/a 
n/a 
n/a 
-4.759 
n/a 
n/a 
n/a 
n/a 
-4.759 
n/a 
n/a 
n/a 
n/a 
-4.759 
n/a 
n/a 
n/a 
n/a 
-5.831 -3.8245 -4.126 -2.186 0 -4.2705 -4.126 -1.7695 -4.9055 -3.5785 
-10.7025 -8.179501 -5.985001 -2.186 -4.2705 -8.914001 -5.987 -6.491001 -6.499001 
-15.0575 -10.4675 -5.985001 -7.648001 -8.914001 -10.598 -11.14 -8.899 
-17.3455 -10.4675 -11.7564 -12.8159 -10.598 -15.751 -13.996 
-17.3455 -16.2389 -16.9243 -14.4999 -15.751 -18.607 

n/a 
n/a 
n/a 
n/a 
-3.3435 -1.7565 -4.6 0 -2.7765 -3.2345 -3.1435 -3.766 -1.7695 -3.5725 -4.4755 -2.9905 -2.186 -4.9055 -3.5785 
-4.7005 -6.559 -4.6 -2.7765 -4.7005 -5.931 -6.522 -6.425 -6.053501 -7.9375 -5.912 -5.627501 -7.110001 -6.499001 
-8.613501 -6.559 -8.01 -4.7005 -7.553501 -9.462 -8.418501 -10.621 -10.322 -9.065001 -8.9335 -10.2115 -9.360001 
-8.613501 -10.688 -10.4944 -7.553501 -11.3913 -11.4931 -12.7765 -14.8895 -11.4495 -12.1949 -13.8152 -13.0785 
-13.2627 -13.1724 -13.3474 -11.3913 -13.4224 -15.8511 -17.045 -16.017 -14.5794 -17.0766 -16.4257 
-6.1485 -4.254 0 -2.5195 -1.4985 -3.218 -1.7565 -4.3845 -4.9055 -3.5785 
-10.5135 -4.254 -2.5195 -3.1695 -4.475 -4.3535 -5.4745 -8.9805 -6.499001 
-10.5135 -6.965 -3.1695 -5.365 -4.8355 -5.7425 -10.348 -11.977 
-13.2245 -7.678 -5.365 -5.5395 -7.693 -11.5259 -13.4119 
-13.9375 -9.906 -5.5395 -8.2705 -12.8234 -14.4764 
