-4.759 
n/a 
n/a 
n/a 
n/a 
-4.759 
n/a 
n/a 
n/a 
n/a 
-4.759 
n/a 
n/a 
n/a 
n/a 
-4.759 
n/a 
n/a 
n/a 
n/a 
-3.5455 -1.4985 -3.8275 -3.7015 -4.747 -1.756 -4.2945 0 -3.38 -9.993501 -3.8495 -3.557 -3.135 -5.4125 -3.2295 -3.676 -2.0935 -4.872 -1.4985 -4.4785 -3.9225 -1.4985 -3.6835 -3.2895 0 
-3.91 -4.726 -5.687 -6.1945 -5.795 -6.058 -4.2945 -3.38 -14.7569 -14.0824 -7.6545 -5.917 -7.770501 -8.6 -6.454 -5.9825 -6.9255 -5.673 -5.43 -8.3865 -4.463 -4.7155 -4.478 -3.2895 
-6.019001 -6.2635 -6.8425 -7.0905 -8.361 -6.058 -7.879001 -14.7569 -18.8458 -17.8874 -10.259 -9.6785 -11.3226 -12.1539 -8.646 -11.4807 -7.330501 -9.0825 -9.986501 -8.826501 -7.923 -5.749001 -4.478 
-8.051001 -7.091001 -7.829 -9.573 -8.361 -9.6945 -19.8473 -18.8458 -22.6508 -20.4919 -14.0205 -13.4196 -14.8765 -14.3459 -14.5872 -11.8857 -11.1504 -13.563 -10.366 -12.5139 -8.970501 -5.749001 
-8.946001 -8.084001 -9.6545 -9.573 -12.2135 -21.7072 -23.9362 -22.6508 -25.2553 -24.2534 -17.7616 -16.9735 -17.0685 -20.2871 -14.9922 -15.7056 -15.6309 -13.9425 -14.0534 -13.5614 -8.970501 
-1.4985 -4.1735 -4.0695 -2.0935 -6.4705 -5.411 -3.251 -4.5025 -3.676 -2.0935 -4.671 -1.7565 -3.6835 -3.2895 -1.934 -1.4985 -4.2945 0 
-5.115 -6.952 -6.2925 -8.469 -10.9575 -8.686501 -7.347501 -9.516001 -5.9825 -6.405 -4.966 -4.6675 -4.478 -5.2095 -2.6125 -5.7065 -4.2945 
-7.2535 -8.561 -13.1874 -13.3744 -14.233 -12.9134 -12.4732 -12.1113 -9.8205 -6.46 -6.9755 -5.4395 -5.7865 -5.748 -6.9135 -5.7065 
-8.7985 -16.1053 -18.0928 -16.6499 -18.4599 -18.0391 -15.0685 -15.9493 -9.823501 -9.037001 -7.0045 -6.476 -6.203001 -10.634 -6.9135 
-16.6386 -21.0107 -21.3683 -20.8768 -23.5856 -20.6344 -18.9065 -15.9523 -13.2189 -9.048 -7.9505 -7.028501 -12.2346 -10.634 
-4.747 -3.7015 -3.8275 -1.934 -4.2945 -3.8275 -3.676 -3.6835 -3.2895 -9.8795 -1.8085 -4.64 
-7.154 -6.7115 -5.2615 -4.9145 -5.5525 -7.0755 -7.6755 -4.478 -15.0466 -11.8442 -5.3355 
-10.259 -8.009501 -5.815 -7.272 -9.145 -11.7054 -8.113501 -16.5385 -17.0113 -15.3712 
-11.557 -8.374001 -7.587 -11.5223 -13.9831 -12.1434 -20.7586 -18.5032 -20.5383 
-11.9215 -10.2226 -13.2259 -16.3604 -14.4211 -24.7885 -22.7233 -22.0302 
-3.8275 -3.7015 -4.747 -1.756 -4.2945 -3.8275 0 -3.4975 -4.257 -2.6165 -3.8185 -1.4985 -3.6835 -3.2895 -2.3345 -3.38 -3.9955 -2.0935 -3.6835 -3.2895 0 
-5.687 -6.1945 -5.795 -6.058 -5.5525 -3.8275 -3.4975 -6.978001 -7.4995 -5.833 -4.662 -4.7155 -4.478 -6.0305 -5.7705 -6.521501 -5.46 -5.189 -4.478 -3.2895 
-6.8425 -7.0905 -8.361 -7.8365 -5.5525 -6.8565 -6.978001 -9.991501 -11.2214 -6.405 -8.794001 -5.749001 -7.018001 -9.388 -8.622 -7.297501 -7.332 -5.643001 -4.478 
-7.829 -9.573 -9.8295 -7.8365 -9.0065 -9.732 -9.991501 -13.7134 -11.7934 -10.3745 -9.625 -9.4505 -9.774 -12.4599 -9.507501 -10.3475 -7.5305 -5.643001 
-9.6545 -11.4569 -9.8295 -11.6585 -10.586 -12.9209 -13.7134 -14.2854 -15.7629 -11.2055 -13.4455 -12.4467 -12.8455 -13.3454 -12.8111 -10.487 -7.5305 
