-4.759 
n/a 
n/a 
n/a 
n/a 
-4.759 
n/a 
n/a 
n/a 
n/a 
-4.759 
n/a 
n/a 
n/a 
n/a 
-4.759 
n/a 
n/a 
n/a 
n/a 
-3.699 -4.928 0 -5.1845 -3.8195 -4.454 0 -6.557 -3.8195 -5.177 
-8.231 -4.928 -5.1845 -6.896501 -9.374001 -4.454 -6.557 -9.828501 -8.6195 
-8.231 -10.4345 -6.896501 -13.4678 -9.374001 -12.0662 -9.828501 -15.0489 
-14.2083 -12.7265 -13.4678 -13.4678 -17.0234 -15.3377 -15.0489 
-16.5003 -19.2978 -13.4678 -21.1172 -20.2949 -20.5581 
-3.699 -4.928 0 -5.1845 -3.8195 -3.655 0 -6.557 -3.8195 -3.655 
-8.231 -4.928 -5.1845 -6.896501 -5.969501 -3.655 -6.557 -9.828501 -5.969501 
-8.231 -10.4345 -6.896501 -8.322001 -5.969501 -10.7495 -9.828501 -12.3989 
-14.2083 -12.7265 -8.322001 -8.322001 -13.6046 -14.021 -12.3989 
-16.5003 -14.152 -8.322001 -16.2845 -16.8761 -16.5914 
-3.699 -3.64 0 -5.1845 -3.8195 -3.655 0 -6.557 -3.8195 -3.594 -3.655 0 
-7.212 -3.64 -5.1845 -6.896501 -5.969501 -3.655 -6.557 -9.828501 -6.79 -7.4195 -3.655 
-7.212 -9.8675 -6.896501 -8.322001 -5.969501 -10.7495 -9.828501 -13.2194 -10.7025 -7.4195 
-14.3125 -11.5795 -8.322001 -8.322001 -13.6046 -14.021 -13.2194 -17.1319 -10.7025 
-16.0245 -13.005 -8.322001 -16.2845 -16.8761 -17.4119 -17.1319 -17.1319 
-3.699 -3.602 0 -5.1845 -3.8195 -3.6215 0 -6.557 -3.8195 -3.655 
-7.231 -3.602 -5.1845 -6.896501 -7.4455 -3.6215 -6.557 -9.828501 -5.969501 
-7.231 -9.2095 -6.896501 -11.5393 -7.4455 -10.1425 -9.828501 -12.3989 
-13.6359 -11.1997 -11.5393 -11.5393 -14.1919 -13.414 -12.3989 
-15.6261 -15.8425 -11.5393 -18.2857 -17.4634 -15.9844 
