-4.759 
n/a 
n/a 
n/a 
n/a 
-4.759 
n/a 
n/a 
n/a 
n/a 
-4.759 
n/a 
n/a 
n/a 
n/a 
-4.759 
n/a 
n/a 
n/a 
n/a 
-3.539 -4.556 -5.3895 -3.563 -2.356 -8.3435 -7.1615 -6.5825 -5.3155 -1.934 -1.4985 -4.4515 -2.356 -4.1865 -4.176 
-7.707001 -9.922501 -9.6045 -6.7895 -10.932 -16.6039 -14.98 -9.407001 -6.1435 -2.6125 -5.0235 -6.8035 -6.507501 -7.9145 
-12.557 -14.193 -13.152 -16.1271 -19.1924 -24.4689 -18.2563 -11.023 -6.763 -6.653501 -7.0105 -11.4176 -9.951 
-16.9345 -17.7405 -22.4896 -24.3875 -27.0574 -27.3312 -19.8723 -11.6425 -9.786 -8.839001 -11.8732 -14.8611 
-20.482 -27.0781 -30.75 -32.2525 -29.9197 -28.9472 -20.4918 -14.6655 -12.3923 -14.1079 -15.3167 
-3.539 -4.9915 -3.8735 -10.515 -4.0695 -2.186 -4.622 -2.3345 -1.4985 -4.873 -2.356 -3.4075 -4.176 -2.186 -4.988 -5.3155 -1.934 -4.4515 0 
-8.039001 -8.539001 -12.0095 -13.75 -5.2715 -6.257 -5.9555 -3.233 -6.0205 -6.8155 -5.641 -6.606 -5.861 -6.9805 -8.0035 -6.1435 -7.154 -4.4515 
-11.5885 -17.7978 -13.091 -12.425 -9.0255 -7.643 -6.425 -7.844501 -8.493501 -9.887 -9.161501 -8.158501 -11.5407 -10.0855 -8.843 -10.4675 -7.154 
-21.0073 -19.1995 -15.223 -15.914 -10.718 -8.225 -11.5843 -10.328 -11.7296 -13.4075 -10.9382 -14.0588 -14.6457 -10.6155 -13.2976 -10.4675 
-22.0888 -21.3315 -18.712 -17.6065 -11.3 -13.4889 -14.0678 -13.5641 -15.2501 -15.1842 -16.8385 -17.1638 -15.1757 -15.0701 -13.2976 
-3.539 -3.0575 0 -3.8735 -2.229 -8.3435 -5.3155 -1.934 -4.4515 -2.356 -4.1865 -3.4075 -4.176 -4.541 
-5.5085 -3.0575 -3.8735 -5.3655 -10.2985 -14.3904 -6.1435 -7.154 -6.8035 -6.507501 -6.714 -6.606 -9.505501 
-5.5085 -7.620501 -5.3655 -10.4425 -16.3454 -15.2184 -10.4675 -9.4385 -11.4176 -9.212001 -8.8855 -12.5177 
-10.459 -8.996 -10.4425 -16.4894 -17.1734 -19.5424 -12.752 -14.3356 -14.1221 -11.5125 -14.9818 
-11.8345 -14.145 -16.4894 -17.3174 -21.4974 -21.8269 -17.6491 -17.0401 -16.4226 -17.6088 
-3.705 -6.931 -2.229 -7.1415 -2.1715 -4.0695 -2.9705 -2.7415 -4.024 -1.7695 -1.4985 -3.7345 -4.6855 -3.251 -3.1125 -5.3155 -4.988 -2.356 -4.1865 -3.4075 -4.176 0 
-9.990001 -9.1125 -8.5035 -7.299 -6.710001 -6.8335 -4.512 -5.275001 -4.5525 -2.7955 -4.9965 -7.1105 -7.881001 -4.28 -7.844 -7.054 -6.735001 -6.507501 -6.714 -6.606 -4.176 
-11.6345 -12.2485 -8.589001 -8.658001 -9.418501 -7.9175 -7.1495 -5.7245 -5.08 -6.4545 -7.939 -9.903501 -8.6645 -8.440001 -10.396 -8.918501 -11.4873 -9.212001 -8.8855 -6.606 
-14.959 -12.4085 -9.463 -10.533 -10.336 -10.208 -7.3985 -6.410501 -9.2865 -9.403501 -10.5635 -10.7065 -12.9283 -10.7595 -12.2605 -14.282 -14.1918 -11.5125 -8.8855 
-15.047 -13.35 -11.586 -11.4505 -12.8847 -10.4415 -7.958 -10.5225 -12.4167 -12.1002 -11.3665 -14.9703 -15.2478 -12.624 -17.624 -16.9865 -16.4923 -11.5125 
