-4.759 
n/a 
n/a 
n/a 
n/a 
-4.759 
n/a 
n/a 
n/a 
n/a 
-4.759 
n/a 
n/a 
n/a 
n/a 
-4.759 
n/a 
n/a 
n/a 
n/a 
-3.2615 -3.7825 -3.4795 0 -4.7075 -3.074 -4.331 -3.1435 -4.299 -2.5195 -3.502 
-6.1225 -5.665 -3.4795 -4.7075 -8.3345 -6.5065 -6.431001 -7.1785 -6.334001 -5.674 
-7.15 -5.665 -8.920501 -8.3345 -11.9574 -8.8195 -9.01 -9.425501 -9.5865 
-7.15 -11.6578 -12.9503 -11.9574 -14.2704 -11.4779 -10.6885 -12.8272 
-13.7072 -15.6876 -16.5732 -14.2704 -16.9288 -13.1564 -14.0902 
-3.2615 -2.543 -3.4795 -4.7075 -3.9535 -8.781501 -2.5195 -1.4985 -3.502 
-6.072001 -5.0825 -8.920501 -8.899501 -11.0145 -11.136 -3.1695 -4.5955 
-7.275001 -9.920501 -13.5153 -16.3363 -13.369 -11.786 -5.887 
-12.3248 -15.4595 -20.9521 -18.6908 -14.019 -14.5035 
-17.8638 -22.8963 -23.3066 -19.3408 -16.7365 
-3.7825 -3.4795 -3.882 0 -4.7075 -3.074 -3.9535 -5.368 -2.5195 -1.4985 -3.75 0 
-5.665 -5.568 -3.882 -4.7075 -8.3345 -6.3685 -7.748 -7.653 -3.1695 -4.8715 -3.75 
-6.955 -5.568 -9.448001 -8.3345 -11.8194 -10.2185 -10.0715 -8.109 -6.005 -4.8715 
-6.955 -11.41 -13.2842 -11.8194 -15.6694 -12.6336 -10.4095 -9.639501 -6.005 
-12.9226 -15.2462 -16.7691 -15.6694 -18.0845 -12.9716 -11.94 -9.639501 

n/a 
n/a 
n/a 
n/a 
