-4.759 
n/a 
n/a 
n/a 
n/a 
-4.759 
n/a 
n/a 
n/a 
n/a 
-4.759 
n/a 
n/a 
n/a 
n/a 
-4.759 
n/a 
n/a 
n/a 
n/a 
-4.0105 -3.522 0 -8.27 -3.4765 
-8.1415 -3.522 -8.27 -12.1733 
-8.1415 -12.5554 -12.1733 
-17.5685 -16.4587 
-21.4718 
-4.1035 0 -5.1845 -3.4765 
-4.1035 -5.1845 -9.790001 
-9.7925 -9.790001 
-14.619 
n/a 
-3.699 -4.867 0 -8.863001 -3.515 
-8.1215 -4.867 -8.863001 -12.962 
-8.1215 -14.7258 -12.962 
-18.3603 -18.8248 
-22.4593 
-3.0835 -4.359 -4.867 0 -5.1845 -3.1385 -2.229 -3.515 
-6.1675 -11.046 -4.867 -5.1845 -7.4095 -4.6125 -5.537 
-13.5013 -11.046 -11.015 -7.4095 -9.0015 -8.698501 
-13.5013 -17.194 -13.24 -9.0015 -13.3857 
-19.6493 -19.419 -14.832 -13.3857 
