-4.759 
n/a 
n/a 
n/a 
n/a 
-4.759 
n/a 
n/a 
n/a 
n/a 
-4.759 
n/a 
n/a 
n/a 
n/a 
-4.759 
n/a 
n/a 
n/a 
n/a 
-3.788 -4.6535 -4.147 -2.4945 -3.4625 -4.354 0 -6.235 -1.756 -5.7045 -5.34 -3.5215 -3.345 -3.193 -2.5045 -4.099 
-10.038 -9.9645 -5.752 -4.7105 -6.8405 -4.354 -6.235 -7.29 -6.721 -9.5635 -6.7135 -6.087 -5.086 -5.5725 -5.6225 
-15.349 -10.049 -7.943001 -8.2115 -6.8405 -10.041 -7.29 -9.2395 -9.975 -9.6175 -8.990001 -6.551 -6.914001 -8.571501 
-15.4335 -10.0575 -9.903501 -8.2115 -10.0505 -10.0465 -9.2395 -10.048 -10.0235 -10.051 -9.1925 -8.9585 -10.0035 
-15.442 -10.063 -9.903501 -10.0505 -10.056 -10.0615 -10.048 -10.0535 -10.057 -10.0565 -11.8846 -12.17 
-1.4985 -2.9195 -2.7455 -3.757 -1.756 -3.2225 -3.074 -3.793 0 
-4.4535 -5.022 -6.681 -4.8735 -4.9385 -6.7675 -6.259501 -3.793 
-6.37 -8.8255 -8.998501 -9.364 -8.605 -10.1075 -6.259501 
-9.704 -11.4572 -14.123 -13.7415 -12.1278 -10.1075 
-12.3617 -16.5817 -18.5005 -17.2643 -12.1278 
-3.074 -3.264 -1.4985 -3.757 -2.229 -3.8625 -3.152 -3.793 -3.788 0 -9.143001 -1.756 -4.463 -2.264 -3.6055 -3.193 -2.264 -5.34 -2.95 0 
-5.5595 -4.4645 -4.5435 -4.946 -5.7165 -6.620501 -5.9925 -8.163 -3.788 -9.143001 -10.4345 -5.9075 -6.3085 -5.25 -4.658 -5.2835 -7.121 -8.2705 -2.95 
-6.5085 -6.860001 -5.318 -8.217 -8.277 -8.7305 -9.83 -8.163 -14.3692 -10.4345 -14.8516 -7.9075 -9.5655 -7.089 -6.642 -10.1385 -10.4683 -8.2705 
-8.804501 -7.741 -9.7515 -11.1429 -9.473001 -12.8246 -9.83 -19.2958 -15.6607 -14.8516 -16.8516 -10.7595 -11.4045 -8.982 -10.5745 -13.4858 -10.4683 
-9.432 -12.4985 -12.6774 -12.3389 -14.3941 -12.8246 -21.1844 -20.5873 -20.0778 -16.8516 -19.7036 -12.5985 -13.2975 -13.3783 -13.9218 -13.4858 
-3.074 -4.4155 -2.3335 -3.788 -1.4985 -3.8625 -2.7455 -3.757 -3.152 -3.793 0 -4.5275 0 -1.756 -5.0775 -4.5805 -3.5215 -1.934 -2.5685 -3.4795 0 
-6.2045 -5.6635 -5.832 -5.9805 -5.431 -6.103001 -6.681 -7.268001 -5.9925 -3.793 -4.5275 -4.5275 -1.756 -6.704 -8.5345 -6.253 -5.029 -4.244 -6.2385 -3.4795 
-6.813 -8.684501 -7.923 -10.4425 -7.944 -10.304 -11.196 -10.4345 -5.9925 -9.809 -4.5275 -6.3585 -6.704 -9.059501 -9.573501 -7.268001 -7.398 -8.925501 -6.2385 
-9.8744 -10.341 -12.4352 -12.9555 -12.5012 -15.3622 -14.3625 -10.4345 -12.8805 -9.809 -6.3585 -11.9225 -9.059501 -10.2909 -9.844001 -9.856001 -12.4131 -8.925501 
-11.5309 -14.8532 -14.9482 -17.5127 -17.5594 -18.5287 -14.3625 -17.3225 -12.8805 -11.745 -11.9225 -14.278 -10.2909 -10.5614 -13.2194 -15.0811 -12.4131 
