-4.759 
n/a 
n/a 
n/a 
n/a 
-4.759 
n/a 
n/a 
n/a 
n/a 
-4.759 
n/a 
n/a 
n/a 
n/a 
-4.759 
n/a 
n/a 
n/a 
n/a 
-1.934 -3.974 -1.7565 -2.3335 -4.3185 0 -4.519 -3.8745 0 -8.2635 0 0 -3.7765 -1.934 -3.676 -1.756 -4.38 -3.152 -5.198 0 
-5.0695 -4.613 -4.314 -7.338 -4.3185 -4.519 -8.5735 -3.8745 -4.864 -4.864 0 -3.7765 -5.981 -4.7985 -5.0365 -6.185 -7.913 -6.6445 -5.198 
-7.735001 -7.1425 -9.812501 -7.338 -8.280001 -8.5735 -8.5735 -8.066 -4.864 -4.864 -3.7765 -5.981 -9.627001 -6.0785 -8.0745 -8.545501 -10.4265 -6.6445 
-10.168 -12.931 -9.812501 -11.9439 -13.1959 -8.5735 -10.682 -8.066 -4.864 -6.0585 -5.981 -9.627001 -10.7045 -10.553 -11.113 -11.3078 -10.4265 
-15.9565 -12.931 -14.4184 -16.8598 -13.1959 -10.682 -10.682 -8.066 -6.0585 -12.2486 -9.627001 -10.7045 -15.179 -13.5915 -13.8753 -11.3078 
-2.3335 -3.9515 -4.316 -4.3185 0 -4.519 -3.8375 0 -3.7765 -1.756 -5.569 -3.8745 0 
-6.9805 -9.435 -9.312 -4.3185 -4.519 -5.902 -3.8375 -3.7765 -5.473001 -7.631001 -9.9615 -3.8745 
-12.9342 -14.444 -9.312 -8.280001 -5.902 -5.902 -7.162 -5.473001 -9.2995 -12.1267 -9.9615 
-17.9432 -14.444 -13.4171 -9.6645 -5.902 -9.7355 -8.922 -9.2995 -14.133 -12.1267 
-17.9432 -18.5491 -14.8016 -9.6645 -9.7355 -12.0139 -12.8629 -14.133 -14.133 
-3.321 -1.4985 -5.3085 -2.7415 -4.4755 -1.7695 -2.8965 -3.8745 0 
-4.481 -6.114 -7.503 -6.6505 -5.871 -4.497 -6.769 -3.8745 
-9.1075 -7.927001 -11.8982 -8.2815 -6.6715 -7.9455 -6.769 
-11.1859 -12.3192 -13.5292 -9.599501 -9.4965 -7.9455 
-15.5781 -13.9502 -14.8472 -12.3639 -9.4965 
-2.3335 -3.9525 -4.3185 -1.756 -12.16972 -3.8745 0 -4.065 -8.956 0 -1.934 -3.676 -3.7765 0 -5.569 -5.198 -1.7695 -2.3335 -3.5015 0 
-6.415 -9.796 -5.958 -14.93432 -16.04422 -3.8745 -4.065 -9.387501 -8.956 -1.934 -4.7985 -7.1685 -3.7765 -5.569 -12.6896 -7.678501 -4.46 -5.909 -3.5015 
-12.5809 -11.4355 -20.19272 -18.80882 -16.04422 -5.374001 -9.387501 -9.387501 -11.046 -4.7985 -8.506001 -7.1685 -9.092501 -12.6896 -15.1701 -10.4505 -7.019 -5.909 
-14.2204 -25.67022 -24.06722 -18.80882 -17.54372 -13.0143 -9.387501 -11.6221 -13.9105 -8.506001 -8.506001 -12.9817 -16.0591 -15.1701 -17.9421 -13.0095 -7.019 
-28.45512 -29.54472 -24.06722 -20.30832 -25.18402 -13.0143 -11.6221 -14.4866 -17.618 -8.506001 -14.782 -19.9483 -18.5396 -17.9421 -20.5011 -13.0095 
