-4.759 
n/a 
n/a 
n/a 
n/a 
-4.759 
n/a 
n/a 
n/a 
n/a 
-4.759 
n/a 
n/a 
n/a 
n/a 
-4.759 
n/a 
n/a 
n/a 
n/a 
-4.3235 -3.5455 -1.4985 -3.8405 -1.7565 -7.4885 0 -5.1845 -3.1385 -5.7565 -1.7695 -7.252 -4.317 -3.959 0 -5.081 -3.0365 0 -4.431 -2.356 -3.45 -4.9225 -1.756 -3.9535 -3.8245 -3.0365 -4.179 0 
-6.0605 -3.91 -4.7545 -4.563 -9.320001 -7.4885 -5.1845 -7.4095 -7.9635 -6.202 -7.1125 -7.1755 -6.091001 -3.959 -5.081 -7.569 -3.0365 -4.431 -5.562 -5.0785 -7.7165 -6.156 -5.4855 -7.5 -6.346 -8.377501 -4.179 
-6.7165 -5.4455 -5.365 -13.2877 -9.320001 -11.0145 -7.4095 -12.6109 -8.377501 -10.294 -8.783 -7.8605 -6.091001 -9.285501 -7.569 -7.569 -8.4925 -5.562 -8.383 -9.242001 -8.977 -10.4585 -8.330501 -9.181001 -11.4702 -8.377501 
-7.214 -5.984 -14.1329 -13.2877 -12.9998 -13.2395 -12.6109 -13.0249 -11.959 -11.488 -9.644 -7.624001 -11.6999 -12.0063 -7.569 -12.8584 -9.139001 -8.383 -12.8681 -10.554 -13.3771 -13.3035 -9.763 -14.4076 -11.4702 
-8.8315 -14.8745 -14.1329 -16.9675 -15.2248 -18.4409 -13.0249 -16.6064 -13.8773 -12.6053 -9.2755 -13.4167 -14.4207 -12.0063 -12.8584 -13.5049 -12.1078 -12.8681 -14.1801 -14.9541 -16.2221 -14.736 -14.9986 -14.4076 
-4.444 0 -3.034 -1.4985 -12.16972 -4.0965 -2.7415 -4.9295 -2.4265 -3.251 -4.0005 -3.502 -3.75 -4.317 -3.959 -3.325 -3.1435 -4.947 -3.0415 -1.4985 -6.4735 -5.7565 -1.7695 -3.1495 -4.7505 -1.756 -4.4785 -1.4985 -3.1385 -1.7565 -2.3335 -3.959 -1.756 -4.0455 -4.292 -3.251 -3.9595 -3.5015 -3.1495 -3.1385 -3.511 -1.934 -3.1495 -3.959 -2.5045 -2.985 -3.5205 -4.7505 0 
-4.444 -3.034 -3.947 -14.76202 -16.26622 -6.906501 -7.8265 -7.243 -4.8545 -7.198 -8.2495 -5.0795 -5.846001 -6.091001 -6.8285 -5.7535 -7.904 -7.6235 -4.5735 -7.190001 -10.27 -6.202 -4.7475 -6.667 -5.869 -6.265 -6.344 -4.2575 -4.861 -4.314 -6.56 -5.173 -5.8795 -8.911501 -8.109501 -5.561 -5.6235 -6.5205 -5.148 -5.979 -4.582 -4.5395 -5.772 -5.9545 -5.065001 -4.257 -7.545001 -4.7505 
-6.9585 -3.947 -17.53132 -18.85852 -19.07622 -12.3081 -9.901 -9.319 -8.725 -11.8106 -9.842 -6.633 -7.073501 -8.97 -8.769 -9.486 -10.621 -8.8875 -10.2865 -11.2849 -10.477 -9.038501 -8.041 -7.789001 -10.622 -7.709001 -8.965501 -5.1835 -7.0795 -9.003 -8.394 -10.019 -10.4765 -12.8048 -10.6119 -6.478001 -8.292 -8.446501 -7.5855 -6.5055 -7.187 -6.27 -7.570001 -8.4345 -6.424 -7.7665 -7.545001 
-7.6245 -17.53132 -21.62782 -21.66852 -24.47782 -14.3826 -11.9764 -13.2751 -13.49 -13.4031 -9.9235 -7.624001 -10.009 -10.674 -12.6655 -12.29 -11.885 -14.6323 -14.3814 -11.4919 -13.3135 -12.6004 -9.040001 -12.7954 -12.066 -10.6031 -9.736 -7.3275 -12.6177 -10.9488 -13.69 -14.7466 -14.3698 -15.3072 -11.5289 -9.013 -10.5425 -10.688 -7.961 -8.553 -8.837501 -7.9115 -9.75 -9.883 -10.564 -7.7665 
-21.35742 -21.62782 -24.43782 -27.07012 -26.55232 -16.458 -15.9325 -18.0401 -15.0825 -13.4846 -10.1795 -10.5975 -11.713 -14.5705 -15.4695 -13.554 -17.6298 -18.7272 -14.5884 -14.3284 -16.8754 -13.5994 -14.1048 -14.2394 -14.9601 -11.3736 -11.8536 -13.3353 -14.5635 -16.2448 -18.4176 -18.6399 -16.8722 -16.2242 -14.0639 -11.5721 -12.784 -11.0635 -10.4255 -10.0475 -10.5035 -10.176 -11.2459 -14.023 -10.564 
-4.1065 0 -1.934 -3.135 -1.7565 -1.4985 -7.252 -3.959 -1.7565 -3.994 -2.9705 -3.152 -3.325 -1.4985 -4.1 -1.7565 -1.4985 -6.864 -4.0965 0 -3.3715 -6.4735 -2.674 -3.1125 -4.9045 -2.0935 -4.9715 -1.756 -2.674 -6.288 -2.356 -1.4985 -5.578 0 
-4.1065 -1.934 -4.4015 -3.9195 -2.4195 -6.173 -8.3655 -5.473 -5.779 -7.0845 -5.007 -6.104 -3.898 -5.0695 -5.164001 -2.4195 -7.8675 -8.968 -4.0965 -3.3715 -8.4685 -8.0445 -3.6315 -6.916 -6.838 -6.002 -6.335501 -4.3315 -8.1455 -6.6125 -3.1615 -6.14 -5.578 
-5.0645 -4.4015 -5.5905 -4.168 -6.9125 -10.4015 -11.5025 -7.3995 -8.204 -8.847501 -7.742001 -6.6895 -6.657 -5.5715 -6.290501 -8.476001 -9.1125 -8.968 -8.044001 -8.4685 -9.816501 -8.669001 -7.4975 -8.583 -10.703 -7.356 -8.412001 -9.623501 -8.6925 -7.1455 -7.382 -6.14 
-7.714 -5.5905 -5.786 -9.5255 -11.486 -12.4587 -13.6472 -9.8125 -9.4175 -11.7285 -8.1525 -8.904 -6.859 -6.679 -10.5125 -9.797501 -9.1125 -13.1089 -13.345 -9.816501 -10.407 -12.787 -9.316 -12.8892 -12.057 -9.045 -13.8764 -10.2015 -9.1225 -10.0955 -7.382 
-8.2465 -5.786 -10.533 -13.9177 -13.7614 -14.5342 -16.0602 -11.124 -12.8277 -12.139 -10.0965 -8.922001 -7.4855 -10.585 -11.834 -9.797501 -13.3034 -18.4099 -14.693 -10.407 -14.525 -14.6055 -13.5544 -14.2432 -13.746 -14.5934 -14.4544 -10.8549 -12.1241 -10.0955 
-4.317 -3.959 -1.756 -5.1845 -3.1385 -3.0695 -3.251 -5.7565 -1.7695 -3.1495 
-6.091001 -5.173 -7.0085 -7.4095 -4.286 -4.7295 -7.347 -6.202 -4.7475 
-7.3005 -11.5541 -9.126 -9.014501 -6.123 -7.998 -7.767 -9.038501 
-13.9016 -13.6716 -10.7575 -10.3165 -9.187 -8.35 -10.4035 
-16.0191 -15.3031 -12.0595 -13.5425 -9.685 -11.0815 
-4.759 
n/a 
n/a 
n/a 
n/a 
