-4.759 
n/a 
n/a 
n/a 
n/a 
-4.759 
n/a 
n/a 
n/a 
n/a 
-4.759 
n/a 
n/a 
n/a 
n/a 
-4.759 
n/a 
n/a 
n/a 
n/a 
-4.3435 0 -3.402 -2.264 -5.6495 0 -3.77 -2.9775 -3.4095 -2.4945 -3.8755 -2.3345 -4.1145 -2.356 -4.9845 -3.794 -2.3335 -5.3655 -4.1145 -1.756 -2.4265 -3.074 -3.837 -3.8105 -1.4985 -4.692 -2.9775 -4.522 -2.4285 -2.6165 0 
-4.3435 -3.402 -3.793 -7.479 -5.6495 -3.77 -7.6615 -5.982 -5.167 -5.463 -4.4955 -7.519501 -6.956 -6.939 -8.583501 -5.8385 -6.469001 -9.842501 -6.368 -3.949 -4.605 -5.8735 -7.099 -4.5835 -6.064 -8.534 -7.5465 -6.299 -4.3195 -2.6165 
-9.7155 -3.793 -8.1115 -7.479 -10.1995 -7.6615 -11.265 -8.203001 -7.7565 -6.347 -9.597 -11.0794 -12.3036 -10.3675 -9.8655 -11.0364 -11.3748 -12.7712 -8.165501 -6.14 -6.4465 -8.4075 -7.5625 -8.6925 -9.101001 -13.4646 -9.4125 -7.2885 -4.3195 
-10.188 -8.1115 -8.1115 -12.3994 -14.091 -11.265 -13.486 -10.304 -8.6855 -12.1685 -13.7289 -16.427 -15.7321 -11.6495 -15.2108 -15.9422 -14.3035 -14.5687 -10.757 -7.9985 -8.694 -8.675501 -12.0139 -11.8617 -14.2526 -15.3306 -9.574 -7.2885 
-14.7433 -8.1115 -13.1517 -16.2909 -17.6945 -13.486 -15.587 -10.6195 -15.013 -16.3004 -19.0765 -19.8555 -17.0141 -16.9948 -20.1166 -18.8709 -16.101 -17.1602 -12.6155 -10.3192 -8.859501 -13.5341 -15.1831 -17.0133 -16.1186 -15.4921 -9.574 
-2.3345 -3.8755 -3.16 -3.64 -6.093 0 -4.1145 -5.032 -4.4 -3.458 -2.985 -4.297 0 -3.074 -2.4265 -2.742 -3.335 -3.8105 -1.4985 -2.9775 -4.522 -2.4285 -2.6165 
-7.197001 -7.362 -4.892 -10.8625 -6.093 -4.1145 -9.418 -8.5155 -5.774 -6.0175 -6.727 -4.297 -3.074 -5.653 -4.095 -5.183001 -6.8005 -4.5835 -4.4135 -7.5465 -6.299 -4.3195 
-11.2687 -8.226001 -12.9777 -10.8625 -11.2159 -9.418 -13.5391 -9.644501 -7.825 -10.3475 -6.727 -7.6055 -5.653 -7.177501 -6.3355 -7.614 -7.449501 -7.035 -8.424 -9.4125 -7.2885 
-12.1327 -16.7005 -12.9777 -15.9854 -16.5194 -13.5391 -14.6681 -11.8809 -12.536 -10.3475 -9.567 -9.801001 -7.177501 -9.1625 -9.069501 -8.145 -10.6735 -9.9835 -9.9775 -9.574 
-20.6072 -16.7005 -18.1006 -21.2889 -20.6405 -14.6681 -16.9045 -16.5919 -12.536 -13.4753 -11.9577 -11.4145 -9.1625 -11.9589 -9.594001 -11.4764 -13.622 -10.401 -10.1765 
-2.3345 -5.7485 -1.4985 -3.585 -1.7695 -4.0355 -1.4985 -3.64 0 -4.1145 -5.104 -1.4985 -3.0105 -2.0935 -4.9845 -4.367 -3.458 -3.6065 -3.64 -1.756 -3.074 -7.3155 -2.7835 -1.8085 -4.015 -2.9775 -2.186 -3.333 -2.4285 -2.6165 
-6.9135 -6.3345 -4.369 -5.2295 -4.562 -5.4695 -5.3715 -3.64 -4.1145 -9.916 -5.8295 -5.1355 -5.573501 -6.5715 -9.5235 -9.071501 -5.7115 -6.844501 -5.2805 -4.566 -9.1405 -9.1105 -4.329 -4.5105 -6.811001 -4.91 -4.2385 -5.653 -4.3195 
-7.451 -7.612501 -6.081 -8.402 -6.0105 -9.524 -5.3715 -7.400001 -9.916 -11.0027 -9.411 -7.2025 -10.6559 -11.7775 -14.5432 -11.5788 -8.6695 -8.123501 -7.926001 -10.3815 -10.554 -10.048 -6.562 -7.1995 -8.108001 -6.634 -6.8835 -6.2635 
-8.422 -9.328501 -9.2565 -9.349001 -10.0995 -9.524 -10.1185 -14.2389 -11.0027 -14.5842 -11.7722 -12.7001 -15.8619 -16.7972 -17.0505 -14.5368 -10.044 -10.126 -13.9771 -11.795 -11.4915 -12.281 -9.0205 -8.606001 -10.2602 -10.1765 -7.939 
-10.1505 -12.607 -10.127 -13.4812 -10.0995 -14.4382 -16.9574 -15.3256 -14.5842 -16.9454 -17.2698 -17.9061 -20.8816 -19.3045 -20.0085 -15.9113 -12.0465 -16.5109 -15.3906 -12.7325 -13.7245 -14.7395 -9.262501 -10.8086 -13.8027 -11.3544 
-7.637001 -4.622 -1.7565 -4.877 -1.7695 -4.236 -2.9775 -1.7565 -5.2125 -1.7695 -4.9845 -1.7695 -4.245 0 
-13.0308 -7.961 -6.632 -6.734 -5.427001 -8.411501 -4.9315 -6.833001 -7.0015 -6.762001 -6.4115 -6.460001 -4.245 
-16.3698 -13.2623 -8.610001 -10.8985 -9.666 -10.8965 -10.2286 -8.6525 -12.515 -9.9505 -11.9316 -6.460001 
-21.6711 -15.2403 -12.8381 -15.1375 -12.7494 -16.1936 -12.0481 -14.307 -15.7035 -15.543 -11.9316 
-23.6491 -19.4684 -17.0771 -18.2209 -18.0465 -18.0131 -17.7026 -17.4955 -21.296 -15.543 
