-4.759 
n/a 
n/a 
n/a 
n/a 
-4.759 
n/a 
n/a 
n/a 
n/a 
-4.759 
n/a 
n/a 
n/a 
n/a 
-4.759 
n/a 
n/a 
n/a 
n/a 
-3.4225 -4.39 -4.9675 -3.324 -3.468 -5.473 -4.164 -1.756 -3.1435 -3.4635 -4.767 -2.742 -4.4305 -1.4985 -4.25 -4.707 -4.015 -1.934 -1.4985 -4.146 -1.7565 -4.3535 0 -4.388 -1.756 -4.076 0 
-4.7525 -9.220001 -8.158001 -7.35 -8.047501 -10.7335 -5.7745 -4.1365 -6.107 -8.7305 -7.651 -5.6405 -4.947 -5.22 -7.3475 -10.013 -6.139501 -2.6125 -6.910501 -7.421 -6 -4.3535 -4.388 -5.273 -5.4485 -4.076 
-10.0125 -12.9005 -12.6736 -12.5251 -14.6722 -12.344 -8.3475 -6.2495 -11.8648 -11.7929 -10.1465 -6.154 -8.834 -10.2135 -13.5713 -12.2391 -6.615 -7.5595 -7.807 -11.9661 -6 -8.0165 -5.273 -8.250501 -5.4485 
-14.0474 -17.4161 -17.8487 -19.1498 -16.2827 -14.917 -10.7023 -12.1739 -14.9272 -14.2884 -10.466 -9.986001 -14.0801 -16.4373 -15.7974 -12.7146 -11.8784 -7.889 -12.4803 -11.9661 -10.292 -9.260501 -8.250501 -8.250501 
-18.563 -22.5912 -24.4734 -20.7603 -18.8557 -17.2718 -16.6267 -15.2363 -17.4227 -14.6079 -14.298 -15.2321 -20.3039 -18.6634 -16.2729 -17.978 -12.2079 -12.5755 -12.4803 -16.2581 -11.536 -12.511 -8.250501 
-3.135 -3.59 -3.8665 -3.213 0 -5.5465 0 0 -2.95 -3.402 -2.3345 -3.135 -4.159 -1.934 -5.4075 -3.8035 -4.686 -1.934 -5.4075 -3.6215 0 -4.3215 0 -6.634501 0 -4.1805 0 -1.756 -8.3415 -3.893 -4.4035 -3.89 -3.59 -2.4945 -4.4305 -2.5195 -3.995 -4.237 0 
-7.0045 -7.732501 -8.095 -3.213 -5.5465 -5.5465 0 -2.95 -6.0855 -7.214001 -5.141 -6.721001 -6.097001 -7.756001 -8.166 -6.361 -6.752 -7.756001 -8.8195 -3.6215 -4.3215 -4.3215 -6.634501 -6.634501 -4.1805 -4.1805 -1.756 -9.4895 -8.314501 -9.956501 -9.8405 -8.748 -5.948 -8.509501 -7.913 -6.152 -8.308001 -4.237 
-11.6022 -12.6458 -8.095 -8.831 -5.5465 -5.5465 -2.95 -6.0855 -9.828 -9.715501 -9.112 -10.2285 -12.633 -10.757 -10.647 -9.526001 -13.1938 -11.4522 -8.8195 -9.052 -4.3215 -12.0272 -6.634501 -11.421 -4.1805 -5.388 -9.691 -10.768 -15.4539 -15.3935 -14.6985 -11.3164 -12.3472 -12.2534 -11.7903 -10.228 -8.308001 
-16.5155 -12.6458 -14.1692 -8.831 -5.5465 -10.2185 -6.0855 -9.828 -12.4973 -13.8047 -12.6687 -16.7645 -15.634 -13.238 -13.812 -16.3342 -16.89 -11.4522 -14.7028 -9.052 -12.0272 -12.0272 -11.421 -11.421 -5.388 -13.64 -10.6658 -18.2449 -21.3001 -20.2515 -17.2669 -17.7156 -16.0911 -16.1307 -15.8663 -10.228 
-16.5155 -18.72 -14.1692 -8.831 -10.2185 -13.5766 -9.828 -12.4973 -16.5865 -17.3614 -19.2047 -19.7655 -18.115 -16.403 -20.6202 -20.0304 -16.89 -17.3355 -14.7028 -16.9011 -12.0272 -16.8137 -11.421 -12.6285 -13.64 -14.6148 -18.2449 -23.6819 -26.1581 -22.8199 -23.6661 -21.4595 -19.9684 -20.2067 -15.8663 
-3.1495 -3.5795 -2.664 -5.014 -3.682 -2.0935 -3.599 -4.2995 0 -4.2485 0 -4.9135 0 -1.756 -2.8965 -5.014 -4.045 0 -2.664 -4.3355 -3.682 -2.3335 -5.516 -4.2485 0 -4.4505 -3.3425 0 -1.756 -4.9175 -1.7565 -4.3355 -4.644 0 -4.008 -2.0935 -4.208 -3.9785 -2.264 -3.873 -1.756 -4.1115 0 -1.756 -1.8085 -3.682 -1.7565 -4.237 -1.756 -5.0185 -4.0415 -2.5195 -4.4925 -1.756 -5.112 -1.7695 -1.4985 -4.6985 -3.135 -4.008 -3.074 -3.5795 -4.664 -1.7565 -4.3 -1.756 -4.592 -4.2645 
-5.3495 -5.447001 -6.7625 -7.441 -5.037 -5.7065 -6.824 -4.2995 -4.2485 -4.2485 -4.9135 -4.9135 -1.756 -3.751 -7.6455 -8.1055 -4.045 -2.664 -6.219501 -7.133 -5.5845 -7.0495 -9.360001 -4.2485 -4.4505 -7.034 -3.3425 -1.756 -6.4 -6.0875 -6.009501 -6.9615 -4.644 -4.008 -5.394501 -6.3595 -6.812 -6.3485 -5.654 -5.114 -5.7375 -4.1115 -1.756 -3.584 -5.008 -4.9685 -5.66 -5.4575 -6.1385 -7.538501 -5.8485 -6.73 -5.555501 -6.3405 -6.949501 -2.7955 -5.1995 -7.7615 -6.4925 -6.850501 -5.372 -8.257501 -6.351 -5.5075 -5.639 -5.6555 -6.513 
-7.419001 -9.5325 -8.533501 -9.068001 -8.483 -8.5135 -6.824 -8.5935 -4.2485 -8.9235 -4.9135 -6.080501 -3.751 -8.019 -9.762 -8.1055 -7.2435 -6.219501 -8.408001 -9.1975 -7.8015 -10.1465 -9.360001 -8.4125 -7.034 -7.034 -4.828 -6.4 -7.3175 -9.209001 -8.269 -6.9615 -9.5 -5.394501 -9.526501 -9.349001 -8.224 -9.061001 -6.643 -6.448 -5.7375 -5.537 -3.584 -6.79 -5.7745 -8.530001 -6.598 -7.1385 -8.0965 -9.306001 -9.1215 -7.692 -7.444 -8.123501 -8.102 -6.382 -8.189501 -10.1225 -8.337501 -7.933501 -9.6875 -9.441001 -9.669001 -6.5935 -6.213 -7.2395 
-10.5325 -10.2555 -9.8335 -10.576 -10.553 -8.5135 -9.3955 -8.5935 -8.9235 -8.9235 -6.080501 -8.2845 -8.019 -10.092 -9.762 -10.4035 -10.485 -8.408001 -10.0065 -10.4435 -10.3405 -10.1465 -10.587 -9.558001 -7.034 -8.306 -9.375001 -7.3175 -10.3475 -9.877001 -8.269 -10.6215 -10.487 -9.526501 -10.487 -10.3175 -10.181 -9.8035 -7.507 -6.448 -7.478 -7.377501 -6.79 -7.5425 -9.433001 -9.474 -8.011001 -8.283501 -9.961 -10.5755 -10.3355 -9.392501 -9.126 -9.313001 -9.8085 -9.071 -10.275 -10.5815 -9.2445 -10.5035 -10.3005 -10.5055 -10.391 -7.079 -7.633 
-10.5915 -10.5855 -10.5775 -10.5945 -10.553 -10.495 -9.3955 -10.6095 -8.9235 -9.465 -8.2845 -9.481501 -10.092 -10.092 -10.6005 -10.622 -10.624 -10.0065 -10.558 -10.601 -10.3405 -10.593 -10.606 -9.558001 -8.306 -10.5745 -9.893001 -10.3475 -10.5335 -9.877001 -10.621 -10.642 -10.6385 -10.487 -10.5205 -10.5155 -10.375 -10.3715 -7.507 -7.900001 -9.273001 -10.494 -7.5425 -10.542 -10.1645 -10.0325 -8.987 -10.0185 -10.59 -10.605 -10.5865 -10.495 -10.172 -10.355 -10.567 -10.575 -10.584 -10.6 -10.5045 -10.5195 -10.516 -10.5215 -10.465 -9.051001 
-3.4225 -4.1265 -5.5465 -3.8405 -3.4625 -1.7565 -1.4985 -3.213 -1.7695 -2.489 -1.934 -3.8565 -3.8405 -1.7695 -2.489 -3.922 -1.4985 -3.188 -4.2485 
-6.775001 -10.368 -10.8012 -7.021 -4.9855 -2.4195 -4.3955 -4.908 -3.1405 -4.348 -5.741 -7.684 -5.658 -3.1405 -7.828501 -4.7665 -3.619 -8.014 
-13.6633 -15.6227 -13.9817 -8.831501 -6.158 -5.18 -6.08 -5.901 -4.8625 -8.929501 -10.2711 -9.7165 -6.824 -8.703001 -8.519501 -8.331 -8.822001 
-18.918 -18.8032 -15.7922 -9.796 -9.397 -6.76 -6.602 -8.38 -9.403501 -13.6114 -12.3036 -10.6625 -13.0761 -9.6505 -12.5194 -14.1672 
-22.0985 -20.6137 -16.7567 -13.1772 -11.1062 -7.063 -9.435 -13.135 -14.1122 -15.6439 -13.2496 -16.9146 -14.0236 -13.6826 -18.3556 
