-4.759 
n/a 
n/a 
n/a 
n/a 
-4.759 
n/a 
n/a 
n/a 
n/a 
-4.759 
n/a 
n/a 
n/a 
n/a 
-4.759 
n/a 
n/a 
n/a 
n/a 
-4.795 -2.5195 -3.5455 -3.43 -3.3715 -4.285 -1.7695 -1.4985 -6.864 -4.0965 
-6.3345 -5.71 -8.2395 -6.2845 -8.720501 -5.118001 -2.7955 -7.8675 -8.968 
-8.823501 -11.0386 -11.3714 -12.1149 -10.1855 -5.5765 -9.244 -9.1125 
-14.7169 -14.1705 -17.2018 -13.5799 -10.644 -12.8198 -10.244 
-17.8488 -20.0009 -18.6668 -14.0384 -17.8873 -13.8198 
-3.5455 -5.9715 -2.4945 -3.383 -4.4465 -1.7695 -9.196501 -3.59 
-9.896501 -9.813001 -4.732 -8.051001 -6.836 -11.1415 -11.117 
-14.0432 -12.0505 -9.123501 -10.4185 -16.8016 -13.062 
-16.2807 -16.442 -11.8456 -20.3841 -18.7221 
-20.6722 -19.1641 -21.8112 -22.3046 
-1.934 -8.163 -3.7575 -7.1955 -4.318 -8.985001 -1.934 -6.864 -3.5435 
-10.9315 -12.3993 -11.9954 -12.1741 -14.5064 -11.0814 -9.2825 -10.089 
-15.1678 -20.6372 -16.974 -22.3625 -16.6028 -18.4299 -12.6957 
-23.4057 -25.6158 -27.1624 -24.4589 -23.9513 -21.8431 
-28.3843 -35.8042 -29.2588 -31.8074 -27.3645 
-2.5195 -1.4985 -3.5455 -6.818501 -4.3465 -4.318 -4.285 -2.0935 -7.4885 
-3.1695 -4.554 -11.8486 -10.523 -8.914001 -7.2025 -6.640501 -10.1725 
-5.8305 -13.2791 -15.5531 -15.0905 -12.1743 -9.715 -15.2705 
-14.645 -16.9836 -20.1206 -18.3508 -14.6868 -18.5108 
-18.3495 -21.5511 -23.3809 -20.8633 -23.4826 
