-4.759 
n/a 
n/a 
n/a 
n/a 
-4.759 
n/a 
n/a 
n/a 
n/a 
-4.759 
n/a 
n/a 
n/a 
n/a 
-4.759 
n/a 
n/a 
n/a 
n/a 
-1.4985 -2.8965 -4.031 -2.0935 -3.1435 -4.8565 -2.186 -2.3335 -1.4985 -4.2665 -3.7855 -2.3085 -2.3335 -2.4945 -2.6165 -4.3625 -3.818 -1.756 -2.925 -2.4945 -3.098 -1.4985 -3.989 -3.881 -2.3345 -1.8085 -3.6765 -2.264 -1.8085 -3.7695 0 
-3.928 -5.8795 -4.8935 -4.568 -6.9235 -6.678 -3.9765 -3.3515 -5.031 -7.572001 -6.6265 -6.065001 -3.947 -3.8065 -5.5625 -7.2925 -5.4255 -4.2585 -3.7675 -4.907001 -4.514 -5.536 -7.936 -4.5275 -3.8605 -4.452 -5.6835 -3.5925 -5.228 -3.7695 
-6.9275 -7.1825 -7.041 -8.434 -9.1975 -8.316 -4.788 -6.788 -7.7755 -10.155 -9.681001 -7.641 -5.0555 -6.8315 -7.5165 -8.867001 -7.644 -5.16 -6.1385 -6.6975 -8.0985 -9.1955 -8.262 -6.079 -5.8505 -6.6175 -7.0185 -6.4195 -5.228 
-7.8295 -9.372001 -9.940001 -10.718 -10.9539 -8.847501 -8.469001 -8.7845 -10.2805 -13.2095 -11.3354 -8.7145 -8.2675 -9.396501 -9.259001 -11.3205 -8.408501 -7.487 -7.916 -10.513 -12.5708 -9.725 -9.7995 -8.122001 -7.851501 -7.5585 -10.0785 -6.4195 
-9.983001 -12.3822 -11.7372 -12.4744 -11.4854 -12.9029 -10.6829 -12.1767 -13.335 -14.8639 -12.4089 -12.1455 -10.3345 -9.936501 -11.8127 -12.085 -10.9113 -9.306001 -11.7541 -14.9853 -13.1003 -11.7235 -11.9335 -10.4185 -8.9575 -10.9009 -10.0785 
-2.7295 -4.9045 -3.9765 -2.5685 -3.681 -1.934 -4.278 0 -3.433 -2.0935 -3.3715 -3.681 -2.925 -3.013 -5.651501 -2.674 -2.9995 -4.0745 0 
-6.494 -6.462 -6.4545 -4.9485 -5.219 -6.2645 -4.278 -3.433 -6.166 -4.713 -5.4275 -5.7295 -4.609 -8.529501 -6.316 -4.4625 -5.983 -4.0745 
-8.953 -8.6325 -8.042001 -6.742 -9.713501 -6.2645 -8.089001 -6.166 -7.689 -6.998 -7.5435 -6.9285 -9.762501 -10.8065 -9.086 -7.231 -5.983 
-11.5229 -11.1258 -9.927501 -11.7241 -9.713501 -9.1835 -11.0576 -7.689 -10.564 -8.9925 -8.8 -11.8356 -10.779 -10.4355 -11.631 -7.231 
-14.0162 -13.0113 -15.1674 -11.7241 -12.6325 -12.4477 -12.5806 -10.564 -12.5585 -10.575 -13.8759 -12.8731 -11.5405 -13.0206 -11.7346 
-9.330001 -1.8085 -9.498501 -3.9765 -4.2275 -2.264 -3.013 -2.6165 -3.0465 -1.934 -8.120501 -1.756 -4.972 -9.122001 -3.9765 -1.756 -3.158 -3.433 -3.0465 -1.934 -1.8085 -3.6885 0 
-11.4637 -10.9315 -13.7666 -9.798 -6.5325 -6.311001 -3.724 -5.122 -4.8825 -10.647 -9.6005 -6.391 -15.0618 -13.5999 -6.075 -5.7015 -7.48 -6.954 -4.8825 -3.2685 -4.486 -3.6885 
-20.5867 -15.1996 -19.5881 -12.776 -11.4383 -7.113001 -5.8225 -6.8535 -14.7129 -12.127 -14.3427 -16.8724 -19.5397 -15.6984 -11.0851 -10.7195 -11.4942 -8.752501 -6.423 -7.2 -4.486 
-24.8548 -21.0211 -22.5661 -17.6818 -12.2403 -9.2705 -7.557 -16.8887 -16.1929 -16.8692 -24.8241 -21.3503 -21.6382 -20.7085 -16.1031 -14.7337 -13.2927 -11.2128 -10.2695 -7.2 
-30.6763 -23.9991 -27.4719 -18.4838 -14.3978 -11.1732 -18.0822 -18.3687 -20.9351 -27.3506 -29.302 -23.4488 -26.6483 -25.7265 -20.1173 -16.5322 -15.753 -15.0593 -10.2695 
-2.0935 -4.3555 0 -8.6805 -3.807 -3.699 -3.9285 -2.264 -2.5685 -3.6885 -4.7505 -1.7565 -4.278 -1.756 -2.4265 -5.032 -1.8085 -3.254 -1.7565 -3.602 -3.6055 -4.278 -3.2645 -4.1725 -3.254 -4.417 -3.9005 -3.3425 -2.3345 -3.5825 0 -4.4725 0 -3.5125 0 -4.7615 0 -3.8475 0 -3.9675 0 -3.5855 0 -3.433 0 -6.1165 0 -1.756 -4.481 0 
-4.763 -4.3555 -7.812 -11.5375 -6.774 -7.8175 -5.7385 -4.5375 -6.596 -6.312 -5.763 -6.515 -6.202001 -3.949 -6.567 -5.677 -4.394 -4.0065 -5.373 -7.47 -8.727501 -8.019501 -5.866 -6.909 -8.4475 -8.620501 -7.276 -5.7285 -4.98 -3.5825 -4.4725 -4.4725 -3.5125 -3.5125 -4.7615 -4.7615 -3.8475 -3.8475 -3.9675 -3.9675 -3.5855 -3.5855 -3.433 -3.433 -6.1165 -6.1165 -1.756 -5.721 -4.481 
-4.763 -10.0715 -10.064 -12.2885 -9.610001 -8.654 -7.778501 -8.548 -9.2735 -8.1855 -8.92 -7.7925 -8.181001 -7.8575 -7.2195 -7.0295 -4.528 -6.677 -8.8255 -9.327001 -9.3065 -10.2345 -9.155001 -12.436 -10.064 -10.068 -9.805 -8.376501 -4.98 -7.356501 -4.4725 -6.831501 -3.5125 -6.4745 -4.7615 -7.837501 -3.8475 -5.4225 -3.9675 -6.878 -3.5855 -5.1265 -3.433 -9.635 -6.1165 -7.094 -5.721 -5.721 
-10.0715 -10.077 -10.0765 -10.089 -9.932001 -10.057 -10.071 -10.0215 -9.502 -8.985001 -10.2595 -9.633 -12.4855 -8.467501 -8.679501 -7.044 -7.186 -9.3405 -9.354 -9.34 -10.6345 -13.7205 -14.7685 -13.4115 -10.0765 -10.0805 -10.0775 -8.376501 -7.4945 -7.356501 -6.831501 -6.831501 -6.4745 -6.4745 -7.837501 -7.837501 -5.4225 -5.4225 -6.878 -6.878 -5.1265 -5.1265 -9.635 -9.635 -7.094 -10.0745 -5.721 
-10.077 -10.0825 -10.082 -10.0875 -10.077 -10.076 -10.0765 -10.0295 -10.021 -10.361 -12.272 -14.0373 -13.0955 -9.887501 -8.701 -9.9475 -10.05 -9.355 -9.357 -10.883 -14.6794 -19.6628 -15.3674 -13.424 -10.0855 -10.0865 -10.0775 -10.0745 -7.4945 -9.529 -6.831501 -9.645 -6.4745 -8.0795 -7.837501 -9.605 -5.4225 -8.491501 -6.878 -7.848001 -5.1265 -10.078 -9.635 -10.003 -10.0745 -10.0745 
