-4.759 
n/a 
n/a 
n/a 
n/a 
-4.759 
n/a 
n/a 
n/a 
n/a 
-4.759 
n/a 
n/a 
n/a 
n/a 
-4.759 
n/a 
n/a 
n/a 
n/a 
-2.3615 -4.201 -3.7805 -3.458 -2.7625 -8.530001 0 -3.13 -4.3365 -4.349 -2.4265 0 
-6.607 -7.952001 -7.4515 -6.096 -11.4647 -8.530001 -3.13 -6.9455 -7.976501 -6.354 -2.4265 
-10.523 -12.297 -10.238 -16.1206 -11.4647 -12.3378 -6.9455 -10.9601 -10.259 -6.354 
-14.868 -15.0835 -20.2626 -16.1206 -15.2725 -16.1533 -10.9601 -13.2426 -10.259 
-17.6545 -25.1081 -20.2626 -19.9284 -19.088 -20.1679 -13.2426 -13.2426 
-1.934 -2.3615 -3.458 -3.7805 -2.7625 -3.8315 0 -3.13 -4.3365 
-3.539 -7.3555 -7.044001 -7.000501 -5.9175 -3.8315 -3.13 -6.9455 
-9.0085 -11.2079 -11.0368 -9.297501 -5.9175 -6.7485 -6.9455 
-13.0017 -15.2007 -13.3338 -9.297501 -9.176001 -7.830501 
-16.9945 -17.4977 -13.3338 -13.0962 -9.488501 
-1.4985 -3.7805 -5.083 -2.3615 -4.201 -1.934 -2.7625 -3.8315 -1.756 -3.13 -4.3365 
-4.8195 -7.158501 -7.6225 -6.607 -5.6445 -5.5425 -5.9175 -5.274 -5.729 -6.9455 
-8.304501 -10.0065 -10.025 -8.1805 -9.581 -7.376501 -7.607 -8.3485 -8.308001 
-11.0189 -10.5085 -10.315 -10.5535 -10.5055 -8.785501 -9.8395 -8.4055 
-11.5209 -10.5535 -10.703 -11.478 -10.72 -10.647 -9.8835 
-3.7805 -4.983 -5.083 -2.3615 -4.201 -1.934 -15.29972 -4.3365 
-6.826 -9.887501 -7.6225 -6.607 -5.6445 -18.24012 -19.11522 
-10.7595 -12.6228 -10.025 -8.1805 -23.02302 -22.05562 
-13.4948 -15.0253 -10.315 -25.93102 -26.83852 
-15.8973 -15.3153 -28.29192 -29.74652 
