-4.759 
n/a 
n/a 
n/a 
n/a 
-4.759 
n/a 
n/a 
n/a 
n/a 
-4.759 
n/a 
n/a 
n/a 
n/a 
-4.759 
n/a 
n/a 
n/a 
n/a 
-6.0745 -3.8375 -1.756 -5.254 -3.8375 
-10.8122 -5.325 -7.269001 -8.554501 
-12.2997 -9.487 -9.7635 
-16.4617 -9.979501 
-16.9542 
-3.9195 -5.0275 -1.756 -12.16972 -5.1765 
-9.651501 -7.212 -14.93432 -17.34622 
-12.0302 -20.88752 -20.11082 
-25.70572 -26.06402 
-30.88222 
-4.215 -3.8375 -1.756 -4.8305 -3.8745 
-5.722 -5.325 -5.5435 -5.5415 
-5.7425 -5.7545 -5.582 
-5.7535 -5.758 
-5.757 
-6.0745 -3.8375 -1.756 -9.763 -3.8375 
-10.8122 -5.325 -12.5276 -13.6679 
-12.2997 -17.0624 -16.4325 
-24.0371 -20.9673 
-27.942 
