-4.759 
n/a 
n/a 
n/a 
n/a 
-4.759 
n/a 
n/a 
n/a 
n/a 
-4.759 
n/a 
n/a 
n/a 
n/a 
-4.759 
n/a 
n/a 
n/a 
n/a 
-4.4715 -1.4985 -5.2695 -2.4945 -4.0745 -2.356 -3.0835 -9.883 0 -2.872 -3.1015 -7.7305 -1.4985 -3.989 -2.8645 -4.164 
-6.333001 -7.1835 -6.8715 -6.09 -6.104 -5.852 -12.4295 -8.995001 -2.872 -5.068501 -7.814 -9.322001 -5.513 -7.607 -5.1465 
-10.6095 -8.592501 -10.335 -7.912001 -10.564 -12.1065 -8.718 -8.386001 -5.068501 -9.305 -9.347 -13.3669 -8.410501 -9.677501 
-10.654 -12.1846 -12.157 -12.5474 -16.6095 -11.8975 -10.918 -10.71 -9.305 -10.5335 -13.3937 -16.2644 -10.254 
-14.2461 -14.0066 -16.7924 -18.5929 -16.6095 -15.3969 -14.1279 -14.9723 -10.5335 -14.5802 -16.2912 -18.1079 
-3.17 -1.7565 -1.4985 -5.2695 -2.4945 -4.0745 -3.5445 -1.4985 -3.3975 0 -3.1015 -3.1495 -3.251 -4.164 -4.4715 
-4.179 -2.4195 -7.1835 -6.8715 -6.09 -7.3315 -4.002 -4.584001 -3.3975 -3.1015 -6.327 -6.7205 -6.1225 -8.655001 
-4.497 -7.961501 -8.592501 -10.335 -8.557501 -7.8835 -6.612 -4.584001 -6.5895 -6.327 -9.556 -9.4265 -10.2385 
-9.1505 -9.253501 -12.1846 -12.8025 -9.043501 -10.7425 -6.612 -7.672 -9.737 -9.556 -12.4586 -13.7353 
-9.8225 -12.9354 -14.6521 -13.2885 -12.0407 -10.7425 -9.915001 -10.5745 -13.0288 -12.4586 -16.7674 
-1.4985 -4.9385 -4.371 -2.186 -4.067 -4.081 -1.7695 -2.664 -3.498 -2.3345 -1.4985 -3.0835 -4.4455 -1.934 -3.5035 -2.872 -3.1015 -3.6135 -3.4625 -1.934 -2.3335 -4.2605 0 
-7.4995 -6.924001 -5.9015 -5.135 -8.5795 -5.434 -4.185 -5.1155 -6.239 -3.233 -3.535 -7.88 -5.811501 -5.1175 -6.019 -5.068501 -6.724 -6.472 -4.565 -4.359 -6.1315 -4.2605 
-8.137501 -8.5275 -8.960501 -10.4765 -10.281 -7.361501 -5.6315 -7.466001 -7.2495 -5.7815 -8.387501 -8.483001 -6.0465 -7.457 -8.4245 -9.116 -10.0855 -7.192501 -7.2185 -6.459001 -6.1315 
-9.7025 -11.7077 -14.4066 -13.1096 -12.2085 -7.588 -7.537001 -8.112 -9.425501 -10.476 -9.525001 -8.509001 -8.455501 -9.7115 -12.5272 -12.3497 -10.806 -9.479501 -9.397 -6.459001 
-13.0073 -17.1538 -17.0397 -15.0371 -12.435 -9.131001 -8.146001 -10.347 -14.3662 -11.6135 -9.6745 -12.0084 -10.575 -13.9198 -15.7609 -13.0702 -13.093 -11.7136 -9.397 
-4.9385 -5.2695 -2.4945 -3.6615 -1.934 -3.0835 -5.4415 -4.4715 -4.0745 0 -2.872 -2.6165 -2.3335 -2.186 -6.7435 
-7.165 -6.8715 -6.642 -4.437 -5.331 -8.731 -10.718 -7.908 -4.0745 -2.872 -4.245 -4.9205 -3.7085 -9.081 
-8.361 -11.5956 -7.0745 -8.573501 -11.7819 -14.3419 -14.1545 -7.908 -6.568 -4.245 -6.6095 -6.791 -10.9445 
-13.4003 -12.0281 -11.5374 -15.3052 -17.3928 -17.7784 -14.1545 -9.696001 -8.105 -6.6095 -9.574 -14.719 
-13.8328 -16.491 -18.2691 -20.9161 -20.8293 -17.7784 -15.9425 -11.27 -10.1 -9.574 -17.55 
