-4.759 
n/a 
n/a 
n/a 
n/a 
-4.759 
n/a 
n/a 
n/a 
n/a 
-4.759 
n/a 
n/a 
n/a 
n/a 
-4.759 
n/a 
n/a 
n/a 
n/a 
-2.4265 -3.7965 -3.5155 -4.1955 -1.756 -4.127 -5.2225 
-5.329 -5.9875 -6.467 -5.783 -5.5705 -7.672 
-7.375 -8.364 -6.6735 -6.865001 -8.7875 
-9.8295 -8.689 -7.636 -9.738501 
-10.236 -9.635501 -10.7151 
-2.4265 -3.074 -3.837 -4.127 -6.7085 
-4.605 -5.8735 -7.9785 -11.117 
-6.4465 -10.523 -15.6941 
-11.3948 -18.2386 
-19.1104 
-2.7295 -2.674 -3.962 -4.127 -1.756 -3.9675 -2.4945 -4.431 -3.147 0 
-3.8 -4.902 -8.6245 -5.780001 -4.942 -6.638 -6.2865 -8.3745 -3.147 
-5.571 -9.338 -10.4957 -10.3285 -7.174 -9.935 -9.2095 -8.3745 
-9.852 -11.2786 -15.0442 -12.5605 -10.634 -13.0136 -9.2095 
-11.7926 -15.8271 -17.2762 -16.0205 -13.7126 -13.0136 
-4.127 -1.756 -4.77 -2.186 -4.431 -2.925 -3.147 -1.756 -2.7295 -2.7765 -3.047 -2.4265 0 
-5.780001 -6.2925 -6.498501 -6.265 -6.0915 -5.325 -4.731 -4.083 -4.065 -4.5075 -4.803 -2.4265 
-9.4905 -8.1335 -10.1185 -7.8725 -8.2655 -6.6665 -6.1375 -5.5535 -5.696 -5.856501 -4.803 
-11.3585 -11.8197 -12.1304 -10.181 -9.812 -7.9905 -7.672501 -7.0985 -7.273 -5.856501 
-15.0447 -13.8316 -14.4389 -11.7275 -11.4718 -9.416 -9.191501 -8.4945 -7.273 
