-4.759 
n/a 
n/a 
n/a 
n/a 
-4.759 
n/a 
n/a 
n/a 
n/a 
-4.759 
n/a 
n/a 
n/a 
n/a 
-4.759 
n/a 
n/a 
n/a 
n/a 
-2.5685 -3.3255 -1.4985 -3.882 -3.355 -1.7565 -1.4985 -4.684 -4.153 -5.0775 -2.0935 -4.0515 -3.1715 -5.4165 -2.0935 -4.1755 0 
-6.028 -3.8945 -5.587 -6.9185 -3.725 -2.4195 -5.553 -5.274 -8.977001 -6.495 -5.1355 -7.1905 -7.949501 -6.9475 -6.5375 -4.1755 
-6.3365 -8.135 -7.072 -6.994501 -4.0515 -6.1165 -5.7765 -9.910501 -9.998001 -9.698501 -8.564501 -13.0243 -10.155 -10.1465 -6.5375 
-10.1345 -9.187 -7.0965 -7.228001 -7.524 -6.245 -10.0535 -10.6255 -13.3577 -13.4905 -14.3639 -15.2298 -13.3304 -10.1465 
-11.1865 -9.190001 -7.316 -8.302501 -7.5655 -10.5035 -10.679 -14.4716 -17.1497 -19.2899 -16.5694 -18.4052 -13.3304 
-3.962 -1.7565 -4.0325 -5.5 -4.153 0 -3.4225 -4.0965 -4.463 -2.7455 -5.277 -3.766 -4.1 -1.7695 -4.1755 0 
-5.5025 -5.575 -6.568501 -5.5985 -4.153 -3.4225 -4.2 -9.4315 -7.189 -7.87 -9.252001 -7.095 -5.885 -6.154 -4.1755 
-9.311001 -7.9795 -6.6815 -5.5985 -7.255001 -4.2 -9.488 -12.1793 -12.6281 -12.0046 -10.156 -8.7565 -9.420501 -6.154 
-12.6089 -8.101001 -6.6815 -8.373 -8.883 -9.488 -12.2488 -17.6184 -16.7627 -12.9086 -10.3005 -12.4888 -9.420501 
-12.7304 -8.101001 -9.3655 -10.1305 -14.2844 -12.2488 -17.6879 -21.753 -17.6667 -13.0531 -14.0328 -12.4888 
-1.934 -3.251 -1.7565 -4.684 -4.153 -1.7695 -6.329 -2.7455 -1.7695 -3.6845 -7.309501 -1.7695 -4.1755 
-5.727 -4.97 -6.562 -5.274 -6.192 -8.751 -9.892 -4.8235 -4.2695 -10.5795 -7.84 -6.154 
-6.818 -10.8145 -6.68 -7.1505 -13.7741 -12.2976 -11.9832 -6.7455 -10.479 -11.8795 -12.3065 
-12.7097 -10.9325 -9.5105 -15.0226 -17.3207 -14.3888 -13.9052 -13.7373 -10.5935 -12.2155 
-12.8277 -13.763 -17.2952 -18.5692 -19.4119 -16.3108 -20.897 -13.9058 -12.7598 
-3.5455 -1.4985 -3.962 -1.7565 -4.684 -4.153 0 -1.4985 -2.985 -3.2785 -4.4725 -5.0325 -2.7455 -5.277 -4.712 -1.7695 -4.1755 
-3.91 -4.324 -5.5025 -6.562 -5.274 -4.153 -1.4985 -4.1115 -4.88 -8.7115 -9.141001 -7.371 -7.87 -8.521001 -6.717 -6.154 
-6.466001 -5.562 -10.3545 -6.68 -5.274 -5.544001 -4.1115 -5.686501 -9.709001 -13.4498 -11.6829 -12.8027 -10.688 -8.6555 -10.001 
-7.285501 -10.3745 -10.43 -6.68 -6.609 -8.028001 -5.686501 -9.732 -15.0945 -15.9917 -17.1146 -15.6207 -10.8225 -12.3521 
-13.051 -10.43 -10.43 -8.791 -9.0795 -10.163 -9.732 -15.2205 -17.6364 -21.4234 -19.9326 -15.7552 -14.5191 
