-4.759 
n/a 
n/a 
n/a 
n/a 
-4.759 
n/a 
n/a 
n/a 
n/a 
-4.759 
n/a 
n/a 
n/a 
n/a 
-4.759 
n/a 
n/a 
n/a 
n/a 
-2.5685 -1.4985 -3.1385 -2.186 -2.871 
-3.7015 -4.2575 -5.6995 -4.247 
-5.7305 -6.807 -7.5525 
-8.7 -8.522501 
-10.733 
-2.3585 -3.2645 -3.3785 -3.043 -1.7695 -3.511 -3.4225 0 
-4.2495 -5.202 -4.566 -3.528 -4.633 -6.959001 -3.4225 
-5.5365 -6.7955 -4.9585 -6.088 -7.988501 -6.959001 
-7.2835 -6.95 -7.51 -8.839001 -7.988501 
-7.488 -9.4825 -10.3156 -8.839001 
-6.879 -7.4245 -12.16972 
-14.8357 -20.15782 
-27.56902 
n/a 
n/a 
-6.879 -8.882 -12.16972 
-16.2932 -21.33832 
-28.74952 
n/a 
n/a 
