-4.759 
n/a 
n/a 
n/a 
n/a 
-4.759 
n/a 
n/a 
n/a 
n/a 
-4.759 
n/a 
n/a 
n/a 
n/a 
-4.759 
n/a 
n/a 
n/a 
n/a 
-3.3635 0 -12.16972 -6.4055 
-3.3635 -12.16972 -18.57522 
-16.12722 -18.57522 
-22.53272 
n/a 
-3.2495 -4.6945 -1.756 -3.7825 -9.6765 -11.0965 
-5.97 -6.285001 -5.3135 -14.5268 -15.8715 
-6.8595 -8.001 -16.2588 -18.5098 
-8.410501 -19.6169 -17.4078 
-19.7922 -20.3209 
-3.3635 0 -8.241 -5.847 -11.0965 
-3.3635 -8.241 -8.983 -13.834 
-10.3475 -8.983 -14.5705 
-10.3715 -10.484 
-11.3177 
-3.3635 0 -9.3205 -5.847 -11.0965 
-3.3635 -9.3205 -10.841 -13.834 
-13.278 -10.841 -18 
-14.7985 -15.305 
-18.81 
