-4.759 
n/a 
n/a 
n/a 
n/a 
-4.759 
n/a 
n/a 
n/a 
n/a 
-4.759 
n/a 
n/a 
n/a 
n/a 
-4.759 
n/a 
n/a 
n/a 
n/a 
-5.359 -3.2875 -2.186 -3.0835 -3.0835 -5.6055 -1.4985 -4.2375 -8.695001 0 
-8.31 -5.4535 -5.597 -6.4475 -9.4125 -6.6405 -6.015 -10.766 -8.695001 
-11.2472 -8.577001 -9.147 -13.3679 -10.069 -11.612 -13.6529 -10.766 
-14.3707 -12.7248 -16.2794 -14.0244 -15.0405 -19.2499 -13.6529 
-18.5185 -19.8572 -16.9359 -18.9959 -22.6784 -19.2499 
-4.2375 -3.668 -3.562 -2.186 -3.0835 -4.4895 -2.3345 -4.524 -3.2875 
-9.723001 -7.959001 -5.785501 -5.597 -6.178 -5.5805 -6.93 -6.633 
-14.014 -9.9615 -9.603001 -7.775001 -7.2915 -10.2755 -9.3995 
-16.0165 -13.757 -11.949 -9.248001 -11.9887 -12.745 
-19.812 -16.103 -13.422 -14.0326 -14.4582 
-10.9635 -2.186 -1.4985 -4.0435 -3.981 -1.7565 -4.1945 -3.9815 -4.99 -1.934 -4.524 -3.2875 
-12.6785 -3.339 -5.091001 -7.642001 -5.78 -6.403 -8.3395 -8.609 -5.477 -5.59 -6.633 
-13.7402 -7.1255 -8.395 -10.0925 -10.504 -11.4006 -13.7946 -9.1555 -9.024 -8.514 
-17.5552 -10.8719 -10.9973 -14.8165 -15.5016 -16.8557 -14.3411 -12.8513 -12.3118 
-21.543 -13.4742 -15.7213 -19.8141 -20.9567 -17.4022 -18.0369 -16.1391 
-3.347 -1.7565 -1.4985 -4.2375 -4.717 -2.3335 -4.4795 -5.7055 -1.4985 -3.0835 -2.95 -1.934 -4.524 
-4.908 -2.4195 -6.015 -8.349501 -7.493 -6.465 -10.1 -6.951 -3.535 -4.3945 -4.54 -5.59 
-5.5015 -7.033501 -9.836 -11.9003 -11.8761 -12.8299 -11.3455 -8.988001 -4.569 -5.361 -8.093 
-9.521501 -11.2043 -13.648 -16.2834 -18.241 -14.0754 -13.3825 -9.3345 -5.404 -9.198501 
-14.1651 -15.0163 -18.0311 -22.6483 -19.4865 -16.1124 -13.729 -9.993 -9.304001 
