-4.759 
n/a 
n/a 
n/a 
n/a 
-4.759 
n/a 
n/a 
n/a 
n/a 
-4.759 
n/a 
n/a 
n/a 
n/a 
-4.759 
n/a 
n/a 
n/a 
n/a 
-3.64 -3.77 -1.7695 -3.2345 -1.756 -4.676 -2.7765 -3.8085 -4.1145 -2.229 -3.433 -3.3825 0 
-7.83 -4.2755 -3.713 -5.557 -6.3745 -9.744 -8.171 -9.055 -6.818501 -5.796 -5.888 -3.3825 
-8.2545 -6.042 -5.989501 -11.4131 -11.5093 -15.1641 -14.0797 -12.634 -11.0755 -8.154 -5.888 
-10.451 -6.912001 -12.069 -16.5479 -16.9294 -21.0728 -17.6587 -16.891 -13.4335 -8.154 
-11.321 -13.6107 -17.2038 -21.968 -22.8381 -24.6518 -21.9157 -19.249 -13.4335 
-4.1145 -2.186 -1.8085 -3.433 -2.9705 -2.186 -3.2955 -1.7695 -3.5185 -2.688 -3.64 -4.236 0 
-6.3365 -3.164 -5.584001 -6.001 -3.89 -4.348001 -3.9425 -4.134 -4.9865 -6.356501 -7.6665 -4.236 
-7.133 -6.5075 -7.567501 -6.797 -5.7615 -4.837 -5.655 -5.9055 -7.5 -9.6665 -7.6665 
-10.419 -8.182 -8.412001 -8.2565 -6.2085 -6.481501 -7.3755 -7.8335 -10.328 -9.6665 
-12.0935 -9.154 -9.913 -8.771501 -7.863501 -8.184501 -9.932501 -10.8565 -10.328 
-1.4985 -3.4865 -3.845 -5.058 -1.7565 -4.1145 -6.653 -2.186 -1.4985 -3.77 -3.3755 -1.7565 -4.1885 -1.756 -5.241 -3.64 0 
-4.9305 -6.7565 -9.8325 -5.5855 -6.695001 -8.133 -8.643001 -3.339 -5.473001 -5.318501 -4.5295 -5.4625 -5.5635 -6.281 -8.8085 -3.64 
-8.292001 -13.9084 -10.5465 -9.778 -10.041 -10.0445 -10.1855 -6.689 -5.9515 -6.910501 -6.9475 -6.6985 -7.040501 -9.606 -8.8085 
-15.6185 -14.6224 -14.739 -14.1942 -11.9525 -11.587 -13.5355 -7.105 -8.236 -8.640501 -8.396501 -8.863501 -9.884501 -9.606 
-16.3325 -18.8149 -19.1552 -16.1057 -13.495 -14.937 -13.9515 -9.316 -10.1295 -9.576501 -10.5535 -11.9039 -9.884501 
-4.278 -4.331 -2.5045 -1.8085 -5.17 -3.4105 -2.0935 -7.83 0 -1.8085 -3.046 -3.1065 -7.297 -4.571 -3.4105 -4.257 -3.602 -3.152 -3.881 -2.3345 -4.2695 -1.756 -4.302 -3.325 -1.8085 -4.562 -3.585 
-9.1155 -6.021 -3.3625 -6.316501 -8.443501 -5.408 -9.137001 -7.83 -1.8085 -4.2695 -4.7985 -7.6565 -9.336 -7.754 -7.2395 -7.6245 -6.5655 -5.955 -4.5275 -6.075 -5.489 -6.0115 -7.141 -4.692 -5.3085 -6.8605 
-9.5965 -6.266 -7.2215 -8.772501 -9.639501 -9.493 -9.137001 -9.429501 -4.2695 -5.998 -8.161 -11.9315 -10.7595 -9.836 -9.863001 -9.212 -7.781 -6.621 -7.2535 -7.2605 -8.348001 -8.785001 -8.377501 -8.035 -7.1715 
-9.722501 -9.774 -9.509001 -9.706 -9.7635 -9.493 -9.782001 -9.661 -5.998 -11.97 -11.162 -10.789 -9.9405 -9.870501 -9.8795 -9.782001 -8.259001 -9.113501 -8.236 -9.678 -9.972501 -9.6085 -9.986501 -9.805 
-9.831 -9.825001 -9.820001 -9.809001 -9.7635 -9.8215 -9.822001 -9.769 -9.8065 -10.334 -9.9335 -9.9285 -9.918 -9.883 -9.89 -9.814 -9.689 -9.624001 -9.77 -9.976501 -9.988001 -9.9995 -10.0205 
