-4.759 
n/a 
n/a 
n/a 
n/a 
-4.759 
n/a 
n/a 
n/a 
n/a 
-4.759 
n/a 
n/a 
n/a 
n/a 
-4.759 
n/a 
n/a 
n/a 
n/a 
-2.3585 -3.3875 -3.7825 -1.4985 -4.1825 -3.509 -3.436 -2.985 -3.3095 -1.4985 -3.5965 
-4.1445 -6.455 -4.847 -5.2305 -7.0505 -6.8665 -6.805 -7.0735 -4.9325 -4.746 
-7.414001 -7.683 -10.0785 -7.9985 -10.107 -9.8715 -8.603001 -8.476 -8.297501 
-8.328 -13.1949 -12.8729 -11.5686 -13.1616 -12.6533 -10.3745 -11.9198 
-14.0595 -15.9893 -16.443 -14.6232 -15.9434 -14.4248 -13.8183 
-3.699 -3.8625 -1.7695 -3.3095 -1.8085 -2.688 -3.5965 0 
-6.5645 -5.2885 -4.26 -4.7575 -3.642 -5.9075 -3.5965 
-8.153 -9.015501 -5.3035 -5.964 -6.2835 -5.9075 
-12.3142 -9.981001 -6.257 -7.320001 -6.2835 
-13.2797 -11.1371 -7.7275 -7.320001 
-3.091 -3.264 -5.7035 -1.4985 -3.264 -1.7565 -4.5865 -4.296 -1.934 -2.664 -4.0225 
-6.6675 -8.495001 -7.509501 -4.0935 -3.6125 -6.542 -7.9535 -5.419 -4.0475 -4.918 
-12.5377 -10.218 -9.504001 -4.178 -7.3455 -9.070001 -9.106 -7.37 -6.271 
-14.2607 -12.2125 -9.564501 -7.7645 -9.580501 -9.984 -11.1506 -9.564 
-16.2552 -12.273 -13.188 -9.729 -10.405 -12.1562 -13.3446 
-12.16972 -3.824 -3.4985 -4.2165 -3.5965 
-15.99372 -6.501 -7.04 -7.953501 
-18.67072 -9.742001 -10.76 
-21.91172 -13.982 
-26.15172 
