-4.759 
n/a 
n/a 
n/a 
n/a 
-4.759 
n/a 
n/a 
n/a 
n/a 
-4.759 
n/a 
n/a 
n/a 
n/a 
-4.759 
n/a 
n/a 
n/a 
n/a 
-2.9805 -3.7555 -3.383 -5.345 -3.859 -3.9795 -6.296 -9.738001 -3.7555 -2.5045 -2.739 
-5.3095 -6.523 -7.781 -9.8715 -7.890501 -9.285501 -17.0172 -14.0155 -6.6915 -6.01 
-7.797 -11.5614 -12.6861 -14.1242 -13.5383 -20.6845 -21.2947 -16.9515 -10.6622 
-13.1548 -16.4665 -16.9388 -19.772 -24.9373 -24.962 -24.2307 -20.9222 
-18.0599 -20.7192 -22.5866 -31.171 -29.2148 -27.898 -28.2014 
-2.9805 -3.7555 -4.1865 -3.8195 -5.0845 -3.9795 0 -1.934 -2.739 -2.9805 -3.7555 -6.296 -6.7225 -3.9795 0 -3.1435 -3.859 -4.4665 -3.9795 -1.934 -4.917 0 -3.9795 0 
-5.3095 -9.025001 -6.8305 -8.248501 -8.902 -3.9795 -1.934 -4.8905 -6.572001 -5.3095 -9.6945 -7.6835 -8.778 -3.9795 -3.1435 -5.978 -7.0195 -8.067 -5.5905 -7.566 -4.917 -3.9795 -3.9795 
-10.5425 -11.8432 -10.292 -9.0655 -8.902 -5.5905 -4.8905 -7.355 -9.286 -11.7039 -10.37 -8.882501 -8.778 -7.747001 -5.978 -9.142 -11.3004 -9.400001 -12.1991 -7.566 -9.8125 -3.9795 
-13.3607 -15.3047 -11.8038 -9.0655 -10.6475 -8.383 -7.355 -10.3675 -15.8908 -12.3794 -11.569 -8.882501 -12.8941 -10.143 -9.142 -13.7221 -12.6334 -16.1716 -12.1991 -12.8309 -9.8125 
-16.8222 -16.8165 -11.8038 -10.7035 -13.44 -10.341 -10.3675 -17.1627 -16.5663 -13.5784 -11.569 -13.0666 -15.2901 -13.415 -13.7221 -15.0551 -19.405 -16.1716 -17.464 -12.8309 
-1.4985 -3.859 -3.2825 -3.299 -3.518 -3.9795 -4.281 -9.682501 -2.7415 -3.7855 -1.7695 -3.595 -2.264 -2.739 -2.3345 -1.4985 -5.172 -1.7565 -3.8735 
-4.4795 -6.803 -6.358001 -4.972 -7.569 -7.323 -14.2801 -12.6928 -5.209001 -4.793 -4.741 -5.329 -5.5575 -4.728 -3.233 -6.395 -6.426001 -5.112 
-7.1385 -9.586 -9.106001 -9.462501 -11.2331 -18.5481 -17.2904 -15.1603 -5.926001 -6.5845 -6.664001 -9.998501 -7.9645 -5.8055 -7.521 -7.312 -6.8865 
-9.940001 -13.008 -13.5771 -13.2698 -22.4582 -21.5584 -19.7579 -15.8773 -7.341001 -8.445001 -11.6651 -12.5295 -8.041 -11.6393 -8.048 -7.6695 
-13.569 -17.4791 -17.3844 -24.4949 -25.4685 -24.0259 -20.4749 -17.2923 -9.154 -13.5485 -14.1961 -12.606 -16.3836 -12.1663 -8.29 
-2.9805 -3.7555 -4.39 -3.4155 -3.9795 -6.296 -7.87 -2.264 -2.739 -2.9705 -2.7415 -2.6165 -3.4635 -1.7695 -4.1865 -4.6695 -3.655 0 
-5.3095 -10.068 -7.797501 -7.996 -9.285501 -9.5115 -10.0345 -5.5575 -6.4495 -4.512 -4.266 -5.785 -4.2045 -6.303 -6.931 -7.573501 -3.655 
-12.0774 -13.4755 -13.2798 -13.657 -13.1788 -11.851 -13.8908 -9.994501 -7.8255 -6.0655 -7.099501 -5.901 -8.028001 -8.2755 -9.540501 -7.573501 
-15.4849 -18.9578 -18.9408 -17.5503 -15.5183 -15.7073 -18.3278 -11.5901 -10.3155 -8.909 -7.126 -10.3345 -9.546 -11.4564 -9.540501 
-20.9672 -24.6188 -22.8341 -19.8898 -19.3746 -20.1443 -19.9234 -14.0801 -13.159 -8.934501 -11.6669 -11.8525 -13.8273 -11.4564 
