-4.759 
n/a 
n/a 
n/a 
n/a 
-4.759 
n/a 
n/a 
n/a 
n/a 
-4.759 
n/a 
n/a 
n/a 
n/a 
-4.759 
n/a 
n/a 
n/a 
n/a 
-4.1225 -3.355 -4.446 -4.2405 -3.5785 -1.7565 -4.152 -1.934 -2.664 -3.158 0 
-6.331501 -9.442 -9.231501 -6.13 -4.9835 -5.824 -6.101001 -4.0475 -7.346 -3.158 
-13.3355 -14.2793 -11.1936 -7.0675 -7.796501 -7.4825 -8.448001 -8.585001 -7.346 
-18.1728 -16.2414 -12.1311 -9.795 -9.222 -9.497001 -13.3151 -8.585001 
-20.1349 -17.1789 -14.8586 -11.2121 -11.3527 -14.5053 -13.3151 
-1.934 -1.4985 -4.1225 -3.9035 -1.4985 -4.152 -3.852 -3.1425 -3.228 -2.0935 -2.743 -3.5785 
-2.6125 -4.965 -7.064001 -5.8775 -5.139501 -6.307501 -6.9905 -6.515 -5.7945 -5.4875 -4.9755 
-5.6495 -7.4185 -9.129001 -10.1185 -6.6905 -9.245501 -9.626 -7.3345 -8.4665 -7.2355 
-7.7285 -9.571501 -13.4718 -11.6695 -9.705501 -12.0424 -10.5035 -9.930501 -9.969501 
-9.856501 -13.9507 -15.0228 -14.6845 -12.535 -12.9199 -13.0995 -11.4989 
-3.502 -3.9035 -4.2875 -4.113 -3.5455 -2.743 -3.5785 
-8.252 -8.352501 -6.827001 -7.554501 -7.612501 -4.9755 
-13.5276 -11.349 -9.555 -12.1523 -9.273001 
-16.5241 -14.077 -14.3432 -13.8128 
-19.2521 -18.8652 -16.0037 
-1.934 -3.502 -3.7575 -2.925 -3.695 -2.743 -3.5785 -4.152 0 
-4.8155 -5.712 -6.5305 -6.4895 -6.928 -4.9755 -8.1945 -4.152 
-8.064 -8.771 -10.757 -10.4265 -8.977 -10.733 -8.1945 
-11.3446 -13.0457 -14.694 -12.4755 -14.3805 -10.733 
-15.6193 -16.9827 -16.743 -17.879 -14.3805 
