-4.759 
n/a 
n/a 
n/a 
n/a 
-4.759 
n/a 
n/a 
n/a 
n/a 
-4.759 
n/a 
n/a 
n/a 
n/a 
-4.759 
n/a 
n/a 
n/a 
n/a 
-1.4985 -8.5905 -3.748 -3.1385 -3.511 -1.934 -1.4985 -3.644 -4.23 -4.1355 
-8.575001 -8.309501 -5.326 -5.979 -4.582 -2.6125 -4.9855 -7.186501 -8.866 
-10.9465 -9.912001 -7.183001 -6.5055 -5.3785 -5.9285 -10.1075 -13.0927 
-11.6805 -11.652 -7.4735 -7.1645 -8.805 -11.4663 -16.0137 
-13.909 -12.1829 -8.002001 -10.259 -14.89 -17.3725 
-2.872 0 -8.1595 -3.748 -4.9225 -3.325 -4.4625 
-2.872 -5.8015 -7.755001 -8.6395 -7.875 -8.0365 
-9.748501 -8.347501 -13.6908 -11.8046 -13.1621 
-12.5417 -13.7636 -16.9287 -17.0917 
-17.9578 -16.9287 -22.2158 
-1.934 -5.2655 -1.7565 0 -4.4685 -4.122 -3.748 -3.1385 -3.8245 -3.325 -1.4985 -3.17 -4.23 -3.42 0 
-5.303 -5.3035 -1.7565 -4.4685 -6.356 -6.0755 -5.326 -5.577001 -6.427 -3.898 -3.7115 -7.397501 -8.103001 -3.42 
-5.307 -5.3035 -6.323501 -6.356 -8.422501 -7.565001 -7.138 -7.7965 -7.012 -6.7155 -8.0345 -11.9887 -8.103001 
-5.307 -10.8525 -8.2425 -8.422501 -9.894501 -9.342501 -9.318001 -8.3345 -8.5935 -11.8047 -12.8883 -11.9887 
-10.868 -12.7715 -8.621 -9.894501 -11.9684 -11.6447 -9.585 -10.634 -14.4883 -16.6585 -12.8883 
-2.872 0 -4.4685 -1.7695 -4.589 -4.5445 -4.23 -4.9225 -2.4945 -3.8245 -1.934 -3.8735 
-2.872 -4.4685 -6.5415 -6.421 -8.936001 -9.365001 -7.8325 -6.9525 -5.751 -4.7245 -4.885 
-8.4135 -6.5415 -7.9635 -10.4675 -13.6645 -13.0773 -10.2085 -9.3655 -6.158 -7.5845 
-10.9065 -7.9635 -12.3462 -15.196 -17.3768 -15.4533 -12.6215 -9.7565 -8.965 
-12.3285 -12.3462 -17.0747 -18.9083 -19.7528 -17.8663 -13.0125 -12.5957 
