-4.759 
n/a 
n/a 
n/a 
n/a 
-4.759 
n/a 
n/a 
n/a 
n/a 
-4.759 
n/a 
n/a 
n/a 
n/a 
-4.759 
n/a 
n/a 
n/a 
n/a 
-2.9195 -3.7425 0 -6.1595 0 -3.801 0 -4.1745 0 -3.7805 0 -3.5025 -1.756 -3.3715 -3.36 -5.1845 -2.186 -4.4755 -3.936 0 
-6.618 -3.7425 -6.1595 -6.1595 -3.801 -3.801 -4.1745 -4.1745 -3.7805 -3.7805 -3.5025 -5.073 -4.6545 -6.941501 -9.4715 -7.895 -6.273001 -6.1095 -3.936 
-6.618 -10.4265 -6.1595 -9.576 -3.801 -5.832 -4.1745 -6.1125 -3.7805 -7.443501 -5.073 -7.8485 -8.6155 -13.8298 -12.1794 -12.4348 -7.314501 -6.1095 
-13.776 -10.4265 -9.576 -9.576 -5.832 -5.832 -6.1125 -6.1125 -7.443501 -8.535501 -7.8485 -11.9667 -15.6548 -16.5377 -16.7192 -13.4763 -7.314501 
-13.776 -13.843 -9.576 -10.2355 -5.832 -8.699 -6.1125 -9.373 -8.535501 -12.044 -11.9667 -19.006 -18.3627 -21.0775 -17.7607 -13.4763 
-1.4985 -3.948 -4.029 -1.7565 -3.932 -3.2775 -2.5045 -3.801 0 -5.9565 -2.9195 0 -3.9515 
-4.7695 -5.9085 -5.1 -5.824 -6.658 -3.678 -6.750501 -3.801 -5.2405 -8.8505 -2.9195 -3.9515 
-6.714 -6.987 -10.3779 -8.2215 -6.6655 -7.1215 -6.750501 -8.064 -8.053 -8.053 -6.213 
-7.7635 -12.3805 -12.7754 -8.2325 -10.159 -7.1215 -10.257 -10.4425 -8.053 -12.8539 
-13.287 -14.778 -12.7864 -10.647 -10.159 -10.32 -13.0681 -10.4425 -12.8539 
-5.1845 -3.6885 -2.8645 -3.1125 -4.742 -4.4755 -3.9225 -4.578 0 -4.535 0 -3.801 0 -4.1745 -1.756 -3.913 -4.3225 -3.383 -4.668 -2.356 -6.005 -3.918 0 
-7.323501 -6.476 -3.5345 -6.035501 -7.067 -6.9555 -8.4165 -4.578 -4.535 -4.535 -3.801 -3.801 -4.1745 -5.4985 -5.6895 -6.1405 -8.064 -6.352 -6.6445 -8.423 -10.862 -3.918 
-9.792001 -7.0365 -6.2925 -8.764501 -8.654 -11.6923 -8.4165 -6.081 -4.535 -7.186 -3.801 -5.832 -5.4985 -8.282001 -7.469 -10.477 -10.155 -7.803 -13.0193 -13.5844 -10.862 
-10.5565 -9.539001 -9.025001 -10.0925 -13.4452 -11.6923 -10.1305 -6.081 -7.186 -7.186 -5.832 -6.6485 -8.282001 -8.650001 -12.1301 -12.568 -12.7774 -14.4606 -18.1807 -13.5844 
-13.059 -12.4519 -10.2925 -14.8219 -13.4452 -13.4063 -10.1305 -7.433 -7.186 -8.098001 -6.6485 -10.2135 -8.650001 -13.4313 -14.2211 -15.1904 -19.435 -19.622 -18.1807 
-5.1845 -3.6885 -2.186 -7.5405 -2.5685 -3.2295 -1.4985 -3.36 -3.115 -2.9195 -3.7425 0 -3.852 0 -3.7955 0 -3.5025 
-7.323501 -5.4995 -8.8575 -8.915 -4.661 -3.844 -4.598001 -6.7135 -7.114501 -6.618 -3.7425 -3.852 -3.852 -3.7955 -3.7955 -3.5025 
-9.148001 -12.7716 -10.4595 -9.019 -4.894 -7.2935 -7.711 -9.745001 -9.906 -6.618 -7.2625 -3.852 -7.904 -3.7955 -8.295 
-16.6557 -14.3736 -10.5895 -9.1505 -7.7465 -9.6815 -11.1823 -12.7475 -9.906 -9.0555 -7.2625 -7.904 -7.904 -8.295 
-18.2577 -14.5036 -10.793 -12.2014 -9.790001 -13.2516 -14.1848 -12.7475 -12.3435 -9.0555 -11.8525 -7.904 -13.0459 
