-4.759 
n/a 
n/a 
n/a 
n/a 
-4.759 
n/a 
n/a 
n/a 
n/a 
-4.759 
n/a 
n/a 
n/a 
n/a 
-4.759 
n/a 
n/a 
n/a 
n/a 
-3.766 -3.17 -1.7565 -4.4755 -1.7565 -12.16972 -4.0725 -2.9775 -1.7565 -4.031 -1.7695 -3.5795 0 
-8.1835 -4.179 -6.657001 -5.392 -14.87542 -16.24222 -6.0015 -4.9315 -5.849501 -5.006 -4.6205 -3.5795 
-8.809501 -10.7495 -7.472001 -19.31292 -18.94792 -18.17122 -9.7305 -9.844001 -7.246001 -7.8365 -4.6205 
-15.737 -11.5645 -21.66712 -23.38542 -20.87692 -21.90022 -14.837 -11.2995 -10.172 -7.8365 
-16.552 -25.75962 -25.73962 -25.31442 -24.60592 -27.00672 -16.2925 -14.2255 -10.172 
-3.17 -1.7565 -3.995 0 -4.3665 -3.222 -2.3335 -4.147 
-4.179 -5.423 -3.995 -4.3665 -7.189001 -5.569 -6.981 
-8.211 -5.423 -8.754001 -7.189001 -9.6245 -9.449 
-8.211 -10.6215 -11.8773 -9.6245 -13.7231 
-14.1885 -13.7448 -14.3128 -13.7231 
-3.676 -2.8645 -3.948 -5.473 -3.618 -3.851 -3.1435 -4.845 -4.4755 -3.873 -2.356 -3.948 -3.9755 0 
-5.929501 -6.6625 -8.1995 -6.473 -7.1895 -7.61 -6.7035 -8.5625 -9.24 -6.2 -5.4665 -5.647 -3.9755 
-10.316 -11.257 -8.628 -9.453501 -12.1331 -10.382 -10.025 -14.0446 -11.6582 -9.403 -7.1415 -5.647 
-14.9105 -11.6855 -11.7433 -14.3619 -14.9051 -13.7035 -15.1939 -16.4628 -14.8612 -11.1052 -7.1415 
-15.339 -14.8008 -16.6517 -17.1339 -18.2266 -18.8724 -17.6121 -19.6658 -16.5634 -11.1052 
-3.851 -1.7695 -4.157 -5.101 -3.4425 0 -3.676 -2.8645 -3.0415 -3.3715 -6.849 
-4.0015 -5.7 -8.7215 -6.176001 -3.4425 -3.676 -5.929501 -5.7805 -4.5985 -10.119 
-6.2895 -10.418 -10.533 -6.176001 -8.182501 -5.929501 -8.3785 -6.4865 -11.5958 
-11.1817 -12.2295 -10.533 -11.6448 -9.989 -8.3785 -8.571501 -13.7206 
-12.9932 -12.2295 -16.0018 -13.4513 -12.715 -8.571501 -16.4998 
