-4.759 
n/a 
n/a 
n/a 
n/a 
-4.759 
n/a 
n/a 
n/a 
n/a 
-4.759 
n/a 
n/a 
n/a 
n/a 
-4.759 
n/a 
n/a 
n/a 
n/a 
-3.433 -1.7565 -2.3335 -4.8345 -4.4825 0 
-4.1845 -4.314 -7.805 -7.973001 -4.4825 
-6.014 -8.966001 -10.0785 -7.973001 
-10.597 -11.4099 -10.0785 
-13.0409 -11.4099 
-3.0415 -3.995 -5.2425 -2.186 -4.474 0 
-8.08 -7.2275 -7.5695 -8.288 -4.474 
-11.8061 -9.413 -14.0757 -8.288 
-13.9916 -15.8746 -14.0757 
-20.4532 -15.8746 
-3.433 -1.7565 -2.3335 -3.995 -5.2425 -2.7415 -4.4825 0 
-4.1845 -4.314 -6.8535 -7.2275 -7.2355 -8.028501 -4.4825 
-6.014 -8.774 -9.711 -9.3315 -13.3289 -8.028501 
-10.7798 -11.5607 -10.5455 -15.5123 -13.3289 
-13.5665 -12.3952 -16.7263 -15.5123 
-3.0415 -3.995 -5.2425 -4.638 
-8.08 -7.2275 -9.043 
-11.8061 -10.5535 
-15.1321 
n/a 
