-4.759 
n/a 
n/a 
n/a 
n/a 
-4.759 
n/a 
n/a 
n/a 
n/a 
-4.759 
n/a 
n/a 
n/a 
n/a 
-4.759 
n/a 
n/a 
n/a 
n/a 
-2.3615 -3.42 -3.819 -1.756 -3.819 -4.315 -4.8915 -4.725 -2.674 -2.7625 -3.682 0 
-5.5645 -7.1395 -5.438 -5.461 -9.68 -9.1365 -9.2855 -8.551001 -6.5175 -6.8195 -3.682 
-9.041 -8.8505 -7.827001 -11.8524 -14.5385 -13.6251 -14.7801 -12.4925 -10.057 -6.8195 
-10.7792 -11.4743 -14.9464 -16.7109 -19.0271 -19.1197 -18.7216 -16.032 -10.057 
-13.403 -18.5937 -19.8049 -21.1995 -24.5217 -23.0612 -22.2611 -16.032 
-3.1495 -3.6185 -2.4945 -4.503 -1.8085 -3.469 -3.6185 -1.756 -4.267 -4.3735 -5.678 -4.725 -3.4265 -2.186 -4.3615 0 
-6.014 -5.6595 -8.25 -5.643001 -4.362 -6.2145 -5.2365 -5.7465 -9.6425 -10.733 -11.6178 -8.160001 -5.398 -6.353001 -4.3615 
-7.111 -9.986001 -9.512501 -8.467001 -8.9575 -7.2115 -9.747001 -11.7852 -16.002 -16.6728 -15.0528 -10.001 -9.946 -6.353001 
-11.6945 -11.2485 -12.4233 -13.3803 -10.5047 -12.29 -15.8991 -18.1447 -21.9418 -20.1078 -16.8938 -14.549 -9.946 
-12.957 -14.1593 -17.3366 -14.9275 -15.5832 -18.4421 -22.2586 -24.0845 -25.3768 -21.9488 -21.4418 -14.549 
-2.5045 -1.4985 -4.6285 -1.7565 -3.1495 -3.6185 -2.7295 -2.7765 -3.2345 -4.8195 -4.7695 0 -3.777 -2.4265 -4.0555 -2.7625 -5.678 -4.725 
-3.1915 -5.8155 -6.2805 -3.914 -6.014 -6.5465 -4.065 -4.7005 -8.917001 -8.831501 -4.7695 -3.777 -6.1075 -5.285501 -8.234 -9.414001 -11.6178 
-7.604001 -6.490001 -9.1185 -6.9965 -7.9795 -7.9505 -5.7245 -10.7175 -13.1716 -8.831501 -10.0475 -6.1075 -9.3585 -9.873501 -15.2361 -15.6084 
-8.127001 -9.319001 -12.2864 -9.277 -9.253 -9.729 -12.0155 -14.9721 -13.1716 -14.4001 -12.51 -9.3585 -14.1771 -16.8756 -21.4305 
-11.147 -12.5107 -14.5669 -10.361 -11.0815 -16.0828 -16.2701 -14.9721 -18.7402 -16.8626 -15.761 -14.1771 -21.1792 -23.07 
-2.3615 -3.6185 -2.871 -1.7695 -2.871 -4.207 -4.919 -3.6185 -4.256 -4.3735 -4.5145 -1.934 -4.725 -4.4385 -4.3615 
-7.526501 -6.914001 -4.734 -4.5615 -6.789001 -9.068501 -8.526 -7.479501 -9.4035 -7.8525 -6.3245 -6.7095 -9.097501 -8.154501 
-11.4662 -8.752001 -5.682 -8.169001 -12.3779 -12.8449 -12.699 -13.5268 -12.9809 -9.3645 -11.6974 -10.1465 -12.8921 
-13.3042 -9.856001 -9.677 -14.1449 -16.1543 -17.0179 -18.7463 -17.1042 -14.4929 -15.3904 -15.1344 -14.1765 
-14.4082 -14.0676 -16.8915 -17.9213 -20.3273 -23.0652 -22.3237 -18.6162 -20.5188 -18.8274 -19.1644 
