-4.759 
n/a 
n/a 
n/a 
n/a 
-4.759 
n/a 
n/a 
n/a 
n/a 
-4.759 
n/a 
n/a 
n/a 
n/a 
-4.759 
n/a 
n/a 
n/a 
n/a 
-7.190001 -4.179 -2.186 -5.1805 -3.7825 -3.4795 0 
-8.514001 -5.982 -6.3525 -8.0525 -5.665 -3.4795 
-10.0645 -7.861001 -9.978001 -10.1725 -5.665 
-10.6155 -11.8261 -10.738 -10.1725 
-14.5806 -12.5861 -10.738 
-7.190001 -4.179 -2.186 -1.8085 -3.7825 -3.193 -4.179 0 
-8.514001 -5.982 -3.164 -5.2345 -5.7365 -6.5265 -4.179 
-10.0645 -6.788001 -6.3715 -6.5145 -7.922501 -6.5265 
-11.0079 -8.8725 -7.732501 -8.484 -7.922501 
-13.0924 -8.896501 -9.177501 -8.484 
-7.190001 -2.186 -1.4985 -3.7825 -3.4795 -4.179 -4.759 
-8.7165 -3.339 -4.8035 -5.665 -7.201 -7.691 
-9.622001 -7.215 -7.1845 -9.015 -11.1198 
-13.784 -10.328 -10.5425 -13.8576 
-16.897 -13.686 -15.3851 
-7.190001 -4.179 -4.7425 -1.934 -2.7275 -3.4795 
-8.514001 -7.973001 -6.7545 -5.262 -7.651 
-12.6648 -10.3475 -10.8043 -10.586 
-15.0393 -14.3973 -16.1283 
-19.0891 -19.7213 
