-4.759 
n/a 
n/a 
n/a 
n/a 
-4.759 
n/a 
n/a 
n/a 
n/a 
-4.759 
n/a 
n/a 
n/a 
n/a 
-4.759 
n/a 
n/a 
n/a 
n/a 
-2.5195 -4.749 -4.153 -4.179 -5.59 -3.43 -4.68 -1.7695 -4.4755 -5.0275 
-7.3805 -6.386 -8.746 -10.0445 -8.528501 -6.7995 -6.0175 -5.448 -8.142 
-8.607 -11.506 -14.6107 -12.983 -12.2008 -7.267 -9.856501 -8.316 
-13.948 -17.3707 -17.5492 -16.6553 -12.6683 -11.616 -12.8087 
-19.8127 -20.3092 -21.2215 -17.1228 -17.0173 -14.5682 
-2.5195 -4.749 -4.153 -8.795501 -4.0875 -5.003 -1.7695 -2.489 -3.6975 -1.934 -3.8735 0 
-7.3805 -6.386 -13.8311 -13.1888 -9.749001 -6.448 -3.1405 -6.474 -5.568 -4.885 -3.8735 
-8.607 -16.5911 -18.2244 -18.8503 -10.677 -7.5675 -6.7275 -7.5815 -8.029 -4.885 
-19.0331 -20.9844 -23.8859 -19.7783 -11.7965 -11.4745 -7.87 -10.022 -8.029 
-23.4264 -26.6459 -24.8139 -20.8978 -15.7035 -12.617 -10.322 -10.022 
-2.5195 -8.297 -4.153 -5.59 -4.4755 -5.0275 -1.934 -3.8735 
-11.136 -10.048 -8.262501 -9.502501 -8.142 -6.366 -4.885 
-12.887 -14.1575 -12.3356 -13.2708 -9.004001 -8.267 
-16.9965 -18.2306 -16.1039 -14.1328 -10.5035 
-21.0696 -21.9989 -16.9659 -15.6323 
-2.5195 -2.846 -4.153 -4.179 0 -3.982 -4.4755 -5.0275 -1.934 -3.8735 0 
-5.589 -7.9655 -8.746 -4.179 -3.982 -9.276501 -8.142 -6.366 -4.885 -3.8735 
-10.382 -12.8897 -8.746 -9.0425 -9.276501 -13.1124 -9.004001 -8.267 -4.885 
-15.3062 -12.8897 -13.6087 -14.3424 -13.1124 -13.9744 -10.5035 -8.267 
-15.3062 -17.7524 -18.9086 -18.1783 -13.9744 -15.4739 -10.5035 
