-4.759 
n/a 
n/a 
n/a 
n/a 
-4.759 
n/a 
n/a 
n/a 
n/a 
-4.759 
n/a 
n/a 
n/a 
n/a 
-4.759 
n/a 
n/a 
n/a 
n/a 
-3.3715 -3.959 -3.4075 -4.231 -5.366 -2.985 -3.2015 -1.7695 -4.037 -2.0935 -7.6355 0 
-5.699 -7.175 -6.758 -9.022501 -6.762 -5.657001 -4.977 -4.8205 -4.876 -9.433001 -7.6355 
-8.834001 -10.2925 -12.0223 -9.713 -7.6865 -6.896 -8.955501 -5.6385 -12.9711 -9.433001 
-12.0857 -15.5568 -12.7128 -10.4375 -7.969 -9.638 -9.597501 -14.1988 -12.9711 
-17.35 -16.2473 -13.4373 -10.72 -10.9386 -11.2328 -18.1848 -14.1988 
-2.688 -2.743 -5.181 -2.9195 -4.803 -2.3345 -2.645 -3.59 -4.9725 -1.756 -10.132 
-6.2535 -6.565001 -8.611 -9.354 -5.9655 -5.33 -6.440001 -8.475 -5.8695 -12.8966 
-7.627001 -9.524 -15.8995 -10.1315 -9.153501 -10.2085 -12.3362 -9.413501 -18.0169 
-11.4864 -17.7481 -16.677 -13.2823 -13.6534 -16.2175 -13.2747 -21.5791 
-19.7105 -18.5256 -19.8278 -17.7822 -19.6624 -17.156 -25.4403 
-7.1125 -3.59 -5.098 -7.9285 -2.688 -5.181 
-11.0953 -8.966001 -14.1481 -10.368 -7.7565 
-16.4713 -18.1849 -16.5876 -15.4365 
-25.6902 -20.6244 -21.6561 
-28.1297 -25.6929 
-3.3715 -3.959 -3.4075 -4.2245 -1.756 -4.671 -3.152 -4.803 -2.688 -2.743 -10.3 
-5.699 -7.175 -6.5515 -5.7035 -6.414 -7.4525 -6.422501 -7.98 -6.2535 -13.211 
-8.834001 -10.8786 -8.295 -11.1321 -8.924 -10.7175 -10.5325 -11.7585 -17.4203 
-12.6718 -12.6221 -13.9236 -13.6421 -12.1814 -15.0683 -14.311 -22.9253 
-14.4153 -18.2507 -16.4336 -16.8995 -16.5322 -18.8468 -25.4778 
