-4.759 
n/a 
n/a 
n/a 
n/a 
-4.759 
n/a 
n/a 
n/a 
n/a 
-4.759 
n/a 
n/a 
n/a 
n/a 
-4.759 
n/a 
n/a 
n/a 
n/a 
-4.931 -2.3335 -4.461 -2.925 -1.934 -1.8085 -4.2465 -1.934 -1.4985 -3.9785 -1.7565 -1.4985 -2.791 -2.7765 -3.498 -2.925 -1.934 -1.4985 -4.3355 
-7.1 -6.2115 -5.633501 -4.436501 -3.2685 -5.695 -6.1925 -2.6125 -4.496 -4.924 -2.4195 -4.3645 -5.815001 -6.289001 -4.956 -4.436501 -2.6125 -5.199 
-9.2745 -6.9775 -6.452001 -5.452001 -6.815001 -7.4585 -6.8405 -4.783 -4.959 -5.224 -5.416501 -6.947001 -9.292001 -6.6475 -5.868 -4.967 -6.115 
-9.2775 -7.663001 -7.252 -9.280001 -8.4965 -7.949 -8.8645 -5.0745 -5.2625 -8.4855 -8.2305 -10.1505 -9.651001 -7.6095 -6.368 -8.174001 
-9.363501 -8.5745 -10.159 -11.0857 -8.882001 -9.695001 -9.040501 -5.3995 -8.573001 -11.6695 -11.8016 -10.7045 -10.8416 -8.225 -8.6425 
-3.7745 -3.676 -2.8645 -4.5445 -3.1435 -6.073 0 
-5.269 -5.929501 -7.159 -6.995 -8.4705 -6.073 
-8.073501 -10.5035 -8.9905 -10.757 -8.4705 
-12.8189 -12.335 -12.8339 -10.757 
-14.6504 -16.1784 -12.8339 
-3.68 -3.7015 -2.3335 0 
-8.163 -6.119 -2.3335 
-10.733 -6.119 
-10.733 
n/a 
-7.931 -5.302 -1.7695 -2.3615 0 
-11.9095 -7.1785 -3.736 -2.3615 
-14.6892 -8.821501 -3.736 
-16.3322 -8.821501 
-16.3322 
