-4.759 
n/a 
n/a 
n/a 
n/a 
-4.759 
n/a 
n/a 
n/a 
n/a 
-4.759 
n/a 
n/a 
n/a 
n/a 
-4.759 
n/a 
n/a 
n/a 
n/a 
-1.7695 -4.3845 -6.5215 -2.356 -4.0275 -4.3955 -3.9355 -2.186 -1.8085 -3.4865 -4.602 0 
-4.8485 -10.375 -9.2205 -5.9465 -7.189 -7.632501 -6.272 -3.164 -4.572001 -7.1195 -4.602 
-11.2194 -13.074 -12.9864 -8.914001 -9.507501 -10.341 -7.2485 -5.7465 -7.401501 -7.1195 
-13.9184 -16.8399 -15.9539 -11.3107 -12.2742 -11.3175 -10.2035 -8.580501 -7.401501 
-17.6843 -19.8074 -18.3506 -14.0774 -13.2507 -14.2725 -13.0375 -8.580501 
-4.4615 -1.934 -10.939 -3.519 -2.356 -5.4175 -2.186 -1.8085 -3.4865 -4.602 
-5.9665 -13.8794 -14.458 -5.752 -7.347501 -7.1195 -3.164 -4.572001 -7.1195 
-18.6581 -17.3984 -16.691 -11.4235 -9.651501 -8.139 -5.7465 -7.401501 
-22.1771 -19.6314 -22.3625 -13.7275 -10.588 -11.0915 -8.580501 
-24.4101 -25.3029 -24.6665 -14.664 -13.5405 -13.9255 
-3.737 -4.942 -1.934 -6.219 -3.9355 -2.186 -1.8085 -4.602 0 
-7.330501 -6.8795 -8.000501 -7.2165 -6.272 -3.164 -6.177501 -4.602 
-9.133 -13.5714 -8.982 -9.788501 -7.2485 -7.3115 -6.177501 
-15.9765 -14.5529 -12.1354 -10.691 -11.69 -7.3115 
-16.958 -17.7063 -13.0379 -15.1325 -11.69 
-3.535 -3.8235 -4.447 -2.186 -2.664 -3.4865 -4.602 0 
-7.767 -7.912 -6.643 -3.8555 -7.5275 -7.1195 -4.602 
-12.2943 -10.119 -7.826 -8.6085 -11.3455 -7.1195 
-14.5013 -11.4152 -13.4418 -12.6441 -11.3455 
-15.7975 -17.031 -17.4774 -12.6441 
