-4.759 
n/a 
n/a 
n/a 
n/a 
-4.759 
n/a 
n/a 
n/a 
n/a 
-4.759 
n/a 
n/a 
n/a 
n/a 
-4.759 
n/a 
n/a 
n/a 
n/a 
-4.1035 -1.7565 -3.951 -1.934 -1.4985 -4.4935 -3.3755 0 
-5.0635 -5.3835 -5.6445 -2.6125 -5.858001 -9.0935 -3.3755 
-8.941001 -6.9715 -6.201 -6.914001 -9.669001 -9.0935 
-10.0855 -7.645 -9.795501 -11.1148 -9.669001 
-10.6665 -11.4117 -14.9377 -11.1148 
-4.752 -3.8095 -1.4985 -4.4895 0 
-9.127001 -5.2515 -5.6765 -4.4895 
-10.5985 -9.5205 -5.6765 
-14.8675 -9.5205 
-14.8675 
-5.463 -3.951 -4.905 
-7.893001 -8.800501 
-12.9867 
n/a 
n/a 
-3.881 -1.934 -1.4985 -5.463 -2.186 -4.4895 
-5.05 -2.6125 -6.731501 -7.002501 -5.884501 
-5.829 -7.714 -7.655001 -11.0608 
-9.750001 -9.9455 -11.8431 
-12.4821 -14.1336 
