-4.759 
n/a 
n/a 
n/a 
n/a 
-4.759 
n/a 
n/a 
n/a 
n/a 
-4.759 
n/a 
n/a 
n/a 
n/a 
-4.759 
n/a 
n/a 
n/a 
n/a 
-4.278 -3.9675 -2.4265 -3.7855 -2.0935 -3.594 0 -3.7455 -4.1585 -3.074 -3.3425 
-9.005501 -6.363501 -6.8105 -5.6715 -5.861 -3.594 -3.7455 -6.1365 -7.500501 -6.257 
-11.6469 -11.6901 -9.578501 -9.1385 -5.861 -8.477 -6.1365 -9.368 -10.9549 
-16.9735 -14.4581 -13.1105 -9.1385 -11.5568 -11.3674 -9.368 -13.0528 
-19.7415 -17.9901 -13.1105 -15.0025 -14.4472 -14.5989 -13.0528 

n/a 
n/a 
n/a 
n/a 
-4.278 -3.397 -2.7415 -3.2955 -1.934 -3.4005 0 -3.594 0 -4.907 -1.756 -3.7455 -3.936 0 
-8.091001 -6.412 -4.978 -4.2285 -4.859 -3.4005 -3.594 -3.594 -4.907 -6.2005 -5.889 -5.773 -3.936 
-11.8912 -8.4385 -5.908 -7.683 -4.859 -6.718 -3.594 -7.7795 -6.2005 -10.688 -7.5635 -5.773 
-13.9177 -9.126 -10.0405 -7.683 -8.809001 -6.718 -7.7795 -9.984 -10.688 -12.3625 -7.5635 
-14.6052 -13.5827 -10.0405 -12.1312 -8.809001 -11.8677 -9.984 -14.4715 -12.3625 -12.3625 
-4.278 -2.186 -3.2955 -2.5045 -3.397 -3.402 -3.781 0 -3.452 0 -4.422 -1.756 -3.7455 -3.936 0 
-5.364 -4.348001 -4.6545 -5.272 -5.909 -5.712501 -3.781 -3.452 -3.452 -4.422 -5.7305 -5.889 -5.773 -3.936 
-8.904 -5.574 -8.514501 -8.3785 -8.7935 -5.712501 -7.4215 -3.452 -8.587501 -5.7305 -9.892 -7.5635 -5.773 
-10.0255 -9.638 -12.0876 -11.5408 -8.7935 -9.0305 -7.4215 -8.587501 -9.785001 -9.892 -10.6255 -7.5635 
-14.1941 -13.3473 -15.2499 -11.5408 -12.3151 -9.0305 -13.1726 -9.785001 -14.5033 -10.6255 -10.6255 
