-4.759 
n/a 
n/a 
n/a 
n/a 
-4.759 
n/a 
n/a 
n/a 
n/a 
-4.759 
n/a 
n/a 
n/a 
n/a 
-4.759 
n/a 
n/a 
n/a 
n/a 
-3.9615 -12.16972 -3.11 -6.79 -3.5035 -1.756 -2.4945 -2.6165 -4.3285 -2.3345 -3.8475 
-17.37322 -15.27972 -10.2385 -10.7175 -4.74 -4.2725 -3.8065 -5.818 -5.495501 -6.507501 
-20.48322 -22.40822 -14.3214 -11.954 -7.0845 -5.271501 -6.4875 -6.940001 -8.052 
-27.61172 -26.49112 -15.5579 -14.2985 -8.145 -8.508 -7.6505 -9.327001 
-31.69462 -27.72762 -17.9024 -15.359 -11.6997 -9.3015 -9.880001 

n/a 
n/a 
n/a 
n/a 
-3.3715 -4.284 -4.0455 -2.186 -3.7015 -1.4985 -4.179 -1.756 -1.4985 -7.679501 -4.88 0 
-9.025001 -8.2615 -6.309 -5.937 -4.3435 -5.087 -5.011001 -3.0405 -9.108001 -13.0689 -4.88 
-13.1951 -11.035 -10.9736 -6.34 -7.403501 -6.0465 -6.4875 -10.5035 -14.6706 -13.0689 
-15.9686 -15.6996 -11.3766 -8.614 -8.6365 -7.529 -14.5043 -16.0661 -14.6706 
-20.6332 -16.1026 -13.6506 -9.828001 -9.898001 -15.8752 -20.0669 -16.0661 
-3.6115 -4.284 -4.371 -2.186 -7.5795 -1.756 -3.8475 -4.5875 -2.3335 -2.186 -4.1375 
-6.5115 -8.094501 -5.9015 -10.254 -9.64 -5.226 -8.370501 -7.171 -3.7085 -5.2415 
-10.3285 -9.279 -14.6943 -12.3145 -13.328 -9.969501 -11.2168 -9.1995 -6.75 
-11.513 -18.2434 -16.7548 -16.0025 -18.0715 -12.9832 -13.2453 -12.4386 
-20.4774 -20.3039 -20.4428 -20.746 -21.0852 -15.0117 -16.4844 
