-4.759 
n/a 
n/a 
n/a 
n/a 
-4.759 
n/a 
n/a 
n/a 
n/a 
-4.759 
n/a 
n/a 
n/a 
n/a 
-4.759 
n/a 
n/a 
n/a 
n/a 
-12.16972 0 -5.409 
-12.16972 -5.409 
-17.57872 
n/a 
n/a 
-6.938 
n/a 
n/a 
n/a 
n/a 
-6.938 0 -6.5085 0 -5.409 -6.5085 -4.3745 
-6.938 -6.5085 -6.5085 -5.409 -10.287 -10.411 
-10.19 -6.5085 -9.519501 -10.287 -14.4537 
-10.19 -9.519501 -14.9715 -14.4537 
-13.201 -14.9715 -19.1382 
-12.16972 0 -5.831 -3.826 -4.126 -1.7565 -5.7565 0 -12.16972 
-12.16972 -5.831 -10.5975 -6.2925 -5.221001 -8.832001 -5.7565 -12.16972 
-18.00072 -10.5975 -13.064 -6.695 -13.0659 -8.832001 -19.13442 
-22.76722 -13.064 -13.4665 -14.7021 -13.0659 -22.56152 
-25.23372 -13.4665 -21.4736 -14.7021 -26.79542 
