-4.759 
n/a 
n/a 
n/a 
n/a 
-4.759 
n/a 
n/a 
n/a 
n/a 
-4.759 
n/a 
n/a 
n/a 
n/a 
-4.759 
n/a 
n/a 
n/a 
n/a 
-4.393 0 -7.4635 -9.643001 0 -5.1645 0 
-4.393 -7.4635 -17.5611 -9.643001 -5.1645 -5.1645 
-12.2245 -17.5611 -17.5611 -14.8355 -5.1645 
-22.3221 -17.5611 -22.7536 -14.8355 
-22.3221 -22.7536 -22.7536 
-11.8565 -9.643001 0 -5.1645 0 
-22.3221 -9.643001 -5.1645 -5.1645 
-22.3221 -14.8355 -5.1645 
-27.5146 -14.8355 
-27.5146 
-4.393 0 -7.4635 -9.643001 0 -5.1645 0 
-4.393 -7.4635 -17.5611 -9.643001 -5.1645 -5.1645 
-12.2245 -17.5611 -17.5611 -14.8355 -5.1645 
-22.3221 -17.5611 -22.7536 -14.8355 
-22.3221 -22.7536 -22.7536 
-4.393 0 -7.4635 -9.643001 0 -5.1645 0 
-4.393 -7.4635 -17.5611 -9.643001 -5.1645 -5.1645 
-12.2245 -17.5611 -17.5611 -14.8355 -5.1645 
-22.3221 -17.5611 -22.7536 -14.8355 
-22.3221 -22.7536 -22.7536 
