-4.759 
n/a 
n/a 
n/a 
n/a 
-4.759 
n/a 
n/a 
n/a 
n/a 
-4.759 
n/a 
n/a 
n/a 
n/a 
-4.759 
n/a 
n/a 
n/a 
n/a 
-2.4265 -2.7415 -5.259 -1.934 -3.676 -4.613 
-3.681 -7.241 -7.6235 -4.7985 -8.2735 
-8.389 -8.933001 -10.9324 -9.006001 
-10.13 -12.3165 -15.1399 
-13.6763 -16.524 
-1.934 -4.613 -4.3665 -2.4945 -4.4755 
-5.7765 -9.606501 -5.6425 -6.2685 
-9.978001 -10.9533 -10.3675 
-11.3786 -15.6783 
-16.1036 
-4.63 -4.4755 -1.934 -3.676 -1.934 -4.613 0 
-7.882 -6.256 -4.7985 -5.558 -5.7765 -4.613 
-9.303 -9.268001 -6.568501 -8.848001 -5.7765 
-12.5084 -11.2104 -9.564501 -8.848001 
-14.4508 -14.2064 -9.564501 
-4.63 -1.934 -3.676 -1.934 -4.613 0 
-5.8555 -4.7985 -5.558 -5.7765 -4.613 
-9.5865 -6.568501 -8.848001 -5.7765 
-11.6579 -9.564501 -8.848001 
-14.6539 -9.564501 
