-4.759 
n/a 
n/a 
n/a 
n/a 
-4.759 
n/a 
n/a 
n/a 
n/a 
-4.759 
n/a 
n/a 
n/a 
n/a 
-4.759 
n/a 
n/a 
n/a 
n/a 
-3.308 -3.275 -2.7455 -4.365 -2.3345 -9.9875 
-5.0735 -5.658 -6.922 -7.5185 -10.6215 
-6.466 -10.061 -9.925501 -16.3711 
-11.2584 -13.0645 -18.9433 
-14.2619 -22.0823 
-7.308001 -4.2115 -4.494 -1.7695 -6.864 
-12.1993 -7.9235 -4.520501 -9.3815 
-15.9113 -7.929 -13.0797 
-15.9168 -16.521 
-24.5088 
-10.536 -8.937 -3.4605 
-19.75 -12.8395 
-23.6525 
n/a 
n/a 
-1.4985 -5.1465 -1.7565 -7.308001 -2.7455 -7.4885 
-6.29 -7.135 -10.1945 -10.784 -10.4035 
-7.647 -16.0024 -13.8133 -18.442 
-16.7744 -19.6212 -21.4713 
-20.3932 -27.2792 
