-4.759 
n/a 
n/a 
n/a 
n/a 
-4.759 
n/a 
n/a 
n/a 
n/a 
-4.759 
n/a 
n/a 
n/a 
n/a 
-4.759 
n/a 
n/a 
n/a 
n/a 
-3.5155 -1.7565 -3.277 -3.498 -2.5045 -4.031 -1.7565 -5.6305 0 
-4.8955 -4.25 -7.2235 -6.054501 -6.034 -5.741 -6.561501 -5.6305 
-5.762 -7.608001 -9.834001 -10.022 -8.3745 -6.8025 -6.561501 
-8.931001 -10.2035 -13.8641 -12.3625 -9.998001 -6.8025 
-11.6847 -14.3168 -16.2046 -13.986 -9.998001 
-3.5155 -4.1705 -2.9905 -3.222 -4.031 -1.7565 -5.6305 0 
-7.825 -6.816501 -5.5885 -7.992001 -5.741 -6.561501 -5.6305 
-10.228 -8.487 -10.159 -9.226001 -6.8025 -6.561501 
-12.0877 -13.2449 -11.393 -9.4835 -6.8025 
-16.8456 -14.4789 -11.6505 -9.4835 
-3.5155 -1.7565 -3.1495 -4.7995 -5.635 -1.934 -4.031 -1.7565 -5.6305 
-4.8955 -3.914 -7.2145 -9.0825 -7.2955 -6.289 -5.741 -6.561501 
-5.5855 -7.807 -12.0139 -11.1706 -11.9993 -7.4595 -6.8025 
-9.1785 -12.7028 -14.102 -15.8744 -13.1698 -7.7365 
-14.2405 -14.7909 -18.8058 -17.0449 -13.4468 
-3.345 -3.2495 -4.431 -8.3525 -12.16972 -4.3355 0 
-6.703501 -7.5525 -13.8645 -20.90342 -16.50522 -4.3355 
-11.5661 -17.292 -26.41542 -25.23892 -16.50522 
-21.3056 -29.84292 -30.75092 -25.23892 
-33.85652 -34.17842 -30.75092 
