-4.759 
n/a 
n/a 
n/a 
n/a 
-4.759 
n/a 
n/a 
n/a 
n/a 
-4.759 
n/a 
n/a 
n/a 
n/a 
-4.759 
n/a 
n/a 
n/a 
n/a 
-4.207 -4.3565 -5.7305 -4.1455 -1.934 -3.4605 
-10.038 -7.0015 -8.571 -5.8585 -6.186 
-12.808 -9.719501 -11.0082 -10.7595 
-15.526 -12.2847 -15.9092 
-18.0912 -17.1857 
-10.614 -4.1455 -4.282 -2.264 -3.5025 
-11.0575 -9.1005 -5.5805 -5.6125 
-14.9212 -10.6996 -8.623 
-16.2509 -13.7421 
-19.2944 
-10.614 -2.229 -4.1455 -2.7765 -2.489 -4.215 -2.5195 -4.2115 0 
-9.3135 -6.182 -7.017 -3.495 -5.261 -5.644 -6.7065 -4.2115 
-11.04 -8.6625 -7.383501 -6.160501 -7.053 -10.5086 -6.7065 
-12.8851 -8.959001 -8.380501 -7.698 -12.3892 -10.5086 
-13.1701 -9.635 -10.3605 -13.4442 -12.3892 
-1.7695 -4.207 -12.224 -4.1455 -1.934 -3.4605 0 
-4.9555 -15.1595 -10.955 -5.8585 -6.186 -3.4605 
-14.9315 -16.1224 -14.3465 -10.7595 -6.186 
-17.0845 -20.2446 -19.3861 -10.7595 
-21.0681 -25.1456 -19.3861 
