-4.759 
n/a 
n/a 
n/a 
n/a 
-4.759 
n/a 
n/a 
n/a 
n/a 
-4.759 
n/a 
n/a 
n/a 
n/a 
-4.759 
n/a 
n/a 
n/a 
n/a 
-6.256001 -3.147 -2.5195 -3.748 -3.9055 -1.7695 -3.7925 -3.9055 0 
-9.127001 -5.738 -6.347 -8.1435 -6.068 -5.5045 -7.6215 -3.9055 
-11.9928 -10.553 -11.7769 -10.404 -9.646501 -9.05 -7.6215 
-16.8078 -15.9829 -14.0374 -13.9825 -9.701 -9.05 
-22.2377 -18.2434 -17.6159 -14.037 -9.701 
-3.748 -1.7695 -3.7925 -2.9805 -2.7415 -4.1445 -3.147 
-6.226501 -5.5045 -7.424001 -4.004 -6.5965 -7.6 
-8.634501 -9.024501 -8.327001 -7.3225 -9.393001 
-12.5867 -10.316 -11.8427 -10.243 
-13.8782 -13.8317 -14.7632 
-5.9035 -2.5195 -3.748 -4.6105 -1.7695 -3.7925 -4.6105 0 
-7.7655 -6.347 -8.658501 -6.8055 -5.5045 -8.7425 -4.3225 
-12.175 -11.4885 -11.2625 -8.852 -10.1535 -8.455501 
-17.6585 -15.0759 -13.5318 -14.7239 -10.6465 
-20.9039 -17.0208 -20.4805 -16.1371 
-1.934 -4.153 -3.748 -1.7695 -3.7925 -4.6025 -1.934 -2.3615 -3.9565 0 
-7.276 -8.404001 -6.226501 -5.5045 -8.394 -6.2605 -3.539 -6.298 -3.9565 
-12.3076 -9.913501 -8.634501 -10.934 -10.468 -8.087501 -7.275 -6.298 
-13.8171 -13.2281 -14.4962 -13.008 -12.8464 -10.3745 -7.275 
-17.1317 -19.0898 -16.5702 -15.3864 -15.1334 -10.3745 
