-4.759 
n/a 
n/a 
n/a 
n/a 
-4.759 
n/a 
n/a 
n/a 
n/a 
-4.759 
n/a 
n/a 
n/a 
n/a 
-4.759 
n/a 
n/a 
n/a 
n/a 
-8.024501 -5.09 -2.186 -3.644 -2.7455 -4.5735 -2.0935 -2.871 -9.2795 -3.9355 0 
-13.5921 -7.231 -6.868501 -6.078501 -8.1665 -6.3135 -4.604 -13.3485 -13.5184 -3.9355 
-15.7331 -12.2243 -8.733001 -11.9241 -10.2847 -9.170501 -15.5681 -17.5874 -13.5184 
-20.7264 -14.0888 -14.9138 -14.0423 -13.1417 -20.3192 -19.807 -17.5874 
-22.5909 -20.2696 -17.032 -16.8993 -24.2904 -24.5581 -19.807 
-3.8225 -4.338 -2.186 -3.2955 -2.0935 -4.8515 -1.4985 -5.4415 -1.756 -3.074 -3.2955 -2.0935 -4.1685 -4.1545 0 
-8.206501 -6.679501 -4.348001 -4.307 -6.4725 -5.5995 -6.2635 -6.92 -4.566 -5.43 -4.307 -5.738 -8.2115 -4.1545 
-10.155 -8.493 -5.274 -8.123 -7.091001 -9.7635 -7.254001 -9.637001 -7.35 -6.351501 -8.1505 -10.0285 -8.2115 
-11.9685 -9.938001 -8.695001 -8.693501 -11.7356 -10.8906 -10.396 -12.5708 -8.343 -10.1105 -12.797 -10.0285 
-13.4135 -13.4944 -9.120501 -13.4701 -12.8627 -14.0326 -13.3298 -13.5638 -12.2196 -14.757 -12.797 
-4.426 -1.7565 -1.4985 -3.6115 -4.7285 -4.1555 -3.147 -3.135 -4.3955 -2.186 -3.6065 -3.681 -2.3335 -2.186 -5.366 -2.4285 -5.4415 -2.9645 -1.934 -2.95 0 
-5.47 -2.4195 -4.081 -6.5495 -8.4455 -5.77 -6.2245 -7.257 -6.2575 -5.206 -5.7925 -4.784 -3.7085 -6.9915 -7.236 -7.258501 -8.684 -4.6135 -4.784 -2.95 
-5.9535 -5.180501 -6.670501 -9.978001 -9.541501 -8.558001 -10.7809 -9.250501 -8.5795 -8.449501 -7.1425 -6.9775 -8.6085 -8.394501 -7.4665 -10.159 -10.647 -8.222501 -4.784 
-8.462501 -7.797 -10.054 -11.0524 -12.3295 -13.7082 -12.7744 -11.8271 -11.8112 -10.1635 -9.005501 -12.3513 -10.1225 -8.686501 -10.2275 -12.391 -14.256 -8.222501 
-10.2375 -11.2985 -11.1648 -13.8404 -17.4797 -15.7017 -15.351 -15.0588 -13.5252 -12.1449 -14.6691 -13.8653 -10.449 -11.6071 -12.5173 -16 -14.256 
-4.431 -3.8235 -4.3955 -3.837 -3.776 -5.1375 -1.756 -2.4265 -3.837 -3.6885 -3.354 -1.7565 -3.99 -3.0415 -2.3615 -3.8235 -2.186 -3.2955 0 
-8.928 -6.42 -9.052 -8.059 -8.4405 -6.2955 -3.949 -5.396 -7.626 -6.629 -4.273 -6.297501 -6.67 -5.189 -6.017 -5.6135 -4.348001 -3.2955 
-11.9101 -11.1817 -13.503 -13.0299 -9.731001 -8.5985 -6.311 -9.264501 -10.8587 -6.731 -8.8195 -9.753501 -8.976 -8.903501 -7.0385 -7.0605 -4.348001 
-16.6718 -15.6327 -18.4739 -14.3204 -12.07 -11.0231 -10.264 -12.5318 -10.9607 -11.5229 -12.4809 -12.1281 -12.8603 -9.585501 -7.9625 -7.0605 
-21.1228 -20.6036 -19.7644 -16.6594 -14.4946 -14.9761 -13.5313 -12.6338 -15.7526 -15.1843 -14.8555 -16.0124 -13.5423 -10.7045 -7.9625 
