-4.759 
n/a 
n/a 
n/a 
n/a 
-4.759 
n/a 
n/a 
n/a 
n/a 
-4.759 
n/a 
n/a 
n/a 
n/a 
-4.759 
n/a 
n/a 
n/a 
n/a 
-1.4985 -4.1865 -4.5605 -2.186 -1.4985 -4.9785 -4.0815 -1.7565 -1.4985 -4.7095 -4.348 -1.7565 -3.8735 -2.356 -7.25 -3.711 -1.756 -3.5485 0 -3.5005 -5.77 -4.9785 -4.6045 -4.4095 -1.756 -5.5465 -4.283 -6.126 0 -5.383 0 0 -2.4265 -2.186 -1.4985 -3.188 -2.229 -3.859 -4.1735 -4.5605 
-5.177 -7.1365 -6.828 -3.339 -5.967 -8.515501 -5.422 -2.4195 -5.599501 -5.061501 -5.6535 -5.112 -6.3865 -9.5825 -9.7565 -4.841 -4.8465 -3.5485 -3.5005 -8.528501 -9.910501 -6.897501 -7.9215 -5.54 -6.9835 -9.3725 -8.2205 -6.126 -5.383 -5.383 0 -2.4265 -3.292 -3.339 -3.619 -4.279 -5.6585 -6.051001 -8.509001 
-7.5375 -8.776 -8.112 -8.221001 -9.077001 -9.250001 -5.751 -6.06 -5.745501 -6.462501 -8.6195 -7.3455 -13.2789 -11.8775 -10.3955 -5.0605 -4.8465 -6.717 -7.989 -13.0815 -11.2705 -9.6245 -9.127501 -10.564 -11.0065 -11.9455 -8.2205 -9.951 -5.383 -5.383 -2.4265 -3.292 -4.5995 -4.9385 -4.3695 -6.789001 -6.522 -9.338 
-8.852501 -9.8675 -9.9645 -9.747001 -9.3395 -9.312 -7.6705 -6.152 -6.624001 -8.9925 -11.1028 -14.5201 -16.679 -12.9051 -10.6245 -5.0605 -7.5925 -11.2408 -13.3823 -14.8628 -12.093 -10.413 -13.363 -13.674 -12.3175 -10.7575 -10.028 -9.951 -5.383 -8.555 -3.292 -4.5995 -6.988 -4.97 -6.8415 -6.897501 -10.096 
-9.988501 -10.6015 -10.177 -9.775001 -9.378 -10.148 -7.8375 -7.0205 -9.170501 -11.582 -18.2774 -17.9202 -17.425 -13.0896 -10.6135 -7.666501 -12.2832 -16.6341 -14.8628 -15.6853 -12.1605 -14.6485 -17.5191 -15.5591 -12.3175 -12.565 -10.028 -9.951 -8.555 -9.245501 -4.5995 -6.988 -7.114501 -7.534 -6.952 -10.115 
-3.034 -1.4985 -3.9005 -4.225 -3.6215 -4.0545 -2.0935 -2.7405 -2.7415 -8.358001 -2.5045 -7.5045 -4.277 -4.3515 0 -2.4265 -2.186 -2.743 0 -2.645 -3.1575 -2.8845 -4.0545 -1.756 -4.048 0 -2.645 -3.1575 -3.5905 -4.0545 0 
-3.947 -4.797 -8.199 -6.111001 -6.984 -5.574 -5.2535 -5.9575 -7.918 -8.074 -11.0235 -10.2135 -5.847001 -4.3515 -2.4265 -3.292 -5.8585 -2.743 -2.645 -3.72 -7.281001 -6.5 -5.3165 -6.455 -4.048 -2.645 -3.72 -7.813001 -7.2245 -4.0545 
-7.64 -9.05 -10.757 -8.375001 -8.585001 -7.41 -7.382501 -11.5625 -9.4005 -16.9836 -13.0924 -10.968 -5.847001 -6.687 -3.292 -7.298 -5.8585 -5.8675 -3.72 -8.560501 -10.7025 -7.553 -10.459 -6.455 -7.262001 -3.72 -9.062 -11.8526 -7.2245 
-12.1018 -11.827 -13.021 -9.668501 -10.4345 -9.0365 -12.8934 -12.8999 -18.339 -19.0935 -15.2503 -11.2214 -8.047501 -7.3465 -7.298 -7.298 -8.861 -7.28 -8.560501 -12.129 -11.7555 -13.4431 -10.459 -8.8915 -8.288 -9.062 -13.2458 -11.8526 
-14.8788 -14.091 -14.3145 -11.7864 -12.061 -14.7578 -14.0944 -22.7961 -20.6557 -21.2514 -15.2503 -13.5684 -8.727 -11.7053 -7.298 -10.2375 -9.3485 -12.3899 -12.129 -13.182 -17.6456 -13.4431 -12.8955 -10.361 -14.1958 -13.2458 -13.2458 
-1.934 -3.158 -8.499001 -3.9005 -4.828 -4.0545 -7.5045 -4.277 -4.3515 -2.186 -2.743 0 -3.93 -4.0745 -1.4985 -3.158 -8.531501 -4.0545 -2.4265 -2.186 -4.048 0 -3.93 -4.0745 -1.4985 -3.158 -3.5905 0 
-5.7375 -12.7492 -12.7459 -8.917001 -7.3355 -11.6225 -10.2135 -5.847001 -6.4875 -5.8585 -2.743 -3.93 -8.769501 -5.278 -4.178 -12.7817 -12.8862 -6.546 -3.292 -7.1555 -4.048 -3.93 -8.769501 -5.278 -4.178 -5.795 -3.5905 
-16.3353 -16.9961 -17.7624 -11.5707 -14.3646 -12.4425 -10.968 -7.719501 -10.0575 -5.8585 -7.2635 -8.769501 -10.168 -9.0745 -14.0251 -17.1364 -15.3777 -7.0655 -8.6745 -7.1555 -8.442 -8.769501 -10.168 -9.0745 -6.693 -5.795 
-20.5822 -22.0126 -20.4161 -18.5998 -14.4401 -12.7984 -13.3099 -11.4971 -10.0575 -9.0395 -12.4258 -10.168 -13.9645 -19.2584 -18.3798 -19.6279 -15.8972 -12.9512 -8.6745 -9.887501 -13.6953 -10.168 -13.9645 -11.9263 -6.693 
-25.5987 -24.6663 -27.4452 -18.6753 -16.598 -14.8869 -17.1251 -11.4971 -13.2385 -14.6694 -13.8243 -13.9645 -24.1484 -23.6131 -20.8713 -20.1474 -21.7829 -12.9512 -11.5929 -15.5684 -15.0938 -13.9645 -16.8163 -11.9263 
-2.7405 -3.158 -1.934 -3.54 -3.6885 0 -7.5045 -7.135 -7.378 -1.934 -2.8845 -3.158 -1.934 -2.743 0 -4.507 0 -3.5905 -3.158 -1.934 -4.048 0 -4.507 0 
-6.007501 -4.7985 -5.0325 -7.023001 -3.6885 -7.186 -15.277 -15.2266 -9.604 -4.7805 -6.1285 -4.7985 -5.496 -2.743 -4.507 -4.507 -3.5905 -6.6715 -4.7985 -6.9105 -4.048 -4.507 -4.507 
-6.837501 -8.014501 -8.929501 -7.023001 -12.0899 -15.5274 -23.619 -17.4526 -12.4491 -8.283501 -7.1115 -8.879001 -5.496 -8.081 -4.507 -9.363501 -6.6715 -8.3505 -9.933001 -6.9105 -9.504001 -4.507 
-11.8239 -12.2019 -8.929501 -16.599 -20.4313 -23.619 -25.845 -20.2977 -15.9521 -9.738501 -12.7796 -8.879001 -10.523 -8.081 -9.363501 -12.5495 -8.3505 -14.4956 -9.933001 -12.7635 -9.504001 
-16.0113 -12.2019 -18.9989 -24.9404 -28.5229 -25.845 -28.6901 -23.8007 -17.4071 -14.8866 -12.7796 -14.1482 -10.523 -13.0901 -12.5495 -14.2285 -14.4956 -14.4956 -15.786 -12.7635 
