-4.759 
n/a 
n/a 
n/a 
n/a 
-4.759 
n/a 
n/a 
n/a 
n/a 
-4.759 
n/a 
n/a 
n/a 
n/a 
-4.759 
n/a 
n/a 
n/a 
n/a 
-10.5165 -12.16972 -4.299 -3.616 -4.891 -4.299 -2.341 
-22.68622 -16.46872 -7.9265 -8.17 -8.580501 -6.6675 
-26.98522 -20.09622 -12.9349 -12.2009 -10.4945 
-30.61272 -25.10462 -16.9658 -14.1149 
-35.62112 -29.13552 -18.8798 
-3.616 -4.6775 -4.5115 -2.264 -8.903001 -4.145 
-6.8195 -9.779501 -5.4995 -11.0145 -10.575 
-12.4233 -11.1005 -15.0092 -12.6865 
-13.7443 -20.6102 -16.6812 
-23.254 -22.2822 
-3.616 -4.891 -4.299 -2.341 -2.264 -8.903001 -10.005 
-8.17 -8.580501 -6.6675 -5.295 -11.0145 -19.113 
-12.2009 -10.4945 -9.451 -14.5347 -21.2245 
-14.1149 -13.6954 -18.8059 -24.7447 
-17.3158 -23.0503 -29.0159 
-10.5165 -3.599 -4.4685 -4.299 0 -2.341 -2.3345 -3.616 -4.891 
-14.1155 -6.8645 -8.066 -4.299 -2.341 -5.215 -6.019 -8.17 
-17.381 -11.2414 -8.066 -6.6675 -5.215 -9.007 -11.2904 
-21.7579 -11.2414 -11.3369 -9.323 -9.007 -14.4372 
-21.7579 -14.5123 -13.9924 -13.3626 -14.4372 
