-4.759 
n/a 
n/a 
n/a 
n/a 
-4.759 
n/a 
n/a 
n/a 
n/a 
-4.759 
n/a 
n/a 
n/a 
n/a 
-4.759 
n/a 
n/a 
n/a 
n/a 
-3.5015 -1.7695 -3.5015 
-4.5585 -5.0115 
-6.4445 
n/a 
n/a 
-6.3175 -2.5195 -2.871 -3.5015 -1.7695 -3.571 -3.5015 0 
-6.9885 -4.743 -5.183 -4.5585 -4.6785 -6.194 -3.5015 
-9.9565 -6.4635 -6.3245 -6.6015 -6.9675 -6.194 
-11.8532 -6.593 -6.631 -8.4385 -6.9675 
-11.9827 -6.6375 -8.54 -8.4385 
-6.4075 -7.8615 -6.4075 -8.892501 
-14.885 -14.662 -15.916 
-21.6855 -24.1705 
-31.194 
n/a 
-12.16972 -6.4075 -8.892501 
-18.57722 -15.916 
-28.08572 
n/a 
n/a 
