-4.759 
n/a 
n/a 
n/a 
n/a 
-4.759 
n/a 
n/a 
n/a 
n/a 
-4.759 
n/a 
n/a 
n/a 
n/a 
-4.759 
n/a 
n/a 
n/a 
n/a 
-3.2615 -5.149 -4.347 -5.8195 -3.9755 -1.7565 -4.7715 0 -6.8335 -4.5185 -3.264 -2.3335 -2.4265 -4.0935 -6.368 0 -1.7565 -2.855 -3.6065 -5.825 -3.8825 -2.264 -3.45 -4.7715 0 
-6.831 -9.446501 -10.4505 -10.4438 -4.312 -6.244 -4.7715 -6.8335 -11.965 -6.85 -4.533 -3.913 -5.351 -11.0735 -6.160501 -1.7565 -5.1705 -6.8645 -9.036 -8.843 -5.7535 -5.2765 -7.646 -4.7715 
-11.6707 -15.694 -15.0748 -10.7803 -7.8545 -6.244 -12.3638 -11.965 -14.2965 -8.072001 -5.853 -6.609 -12.8478 -11.5273 -9.209001 -5.1705 -8.017 -12.566 -12.1288 -9.904 -8.6595 -8.807 -7.646 
-17.9182 -20.3183 -15.4113 -14.3228 -7.8545 -14.4135 -17.4953 -14.2965 -15.5185 -9.7585 -9.3815 -14.4478 -12.9594 -14.5758 -12.6525 -8.017 -13.8135 -15.6588 -13.1898 -13.3984 -12.4932 -8.807 
-22.5425 -20.6548 -18.9538 -14.3228 -16.3324 -19.545 -19.8268 -15.5185 -17.205 -13.403 -17.2621 -14.4478 -16.0079 -18.0193 -16.064 -13.8135 -16.9063 -16.7198 -16.6842 -17.2321 -12.4932 
-3.2615 -5.15 -3.6215 -5.8195 -3.9755 -1.7565 -4.7715 -7.509 -4.5185 -2.8645 -3.557 -2.3335 -3.0365 -2.186 -2.855 -3.6065 -5.825 0 -3.047 -1.4985 -3.568 -2.5045 -3.401 0 -2.4945 -3.8825 -1.934 -6.368 0 
-7.0955 -9.941 -9.5725 -10.4438 -4.312 -6.244 -13.0393 -12.7015 -6.9335 -5.5535 -4.678 -4.2925 -3.66 -5.8265 -6.8645 -9.036 -5.825 -3.047 -4.095 -4.649 -6.096 -5.866 -3.401 -2.4945 -5.478001 -4.9695 -9.511001 -6.160501 
-12.3945 -16.0084 -14.2816 -10.7803 -7.8545 -15.089 -18.2318 -15.1165 -9.278001 -6.171 -6.3205 -4.7505 -8.3105 -9.967 -12.566 -9.036 -8.923 -4.095 -6.870501 -6.7155 -8.1995 -5.866 -6.3545 -5.478001 -5.959001 -12.8085 -10.078 
-18.4619 -20.7175 -14.6181 -14.3228 -17.0079 -20.2815 -20.6468 -17.461 -10.023 -7.888 -6.9545 -9.369 -12.6078 -15.6685 -12.566 -12.2088 -10.244 -6.870501 -8.4215 -8.39 -8.1995 -7.995001 -9.757 -5.959001 -14.3489 -13.1959 
-23.171 -21.054 -18.1606 -23.4762 -22.2004 -22.6965 -22.9913 -18.206 -11.7428 -8.210501 -11.8334 -13.7057 -18.3093 -15.6685 -15.7388 -13.5298 -10.6185 -8.4215 -9.559501 -8.39 -10.054 -11.5571 -10.5355 -14.4931 -14.4931 
-3.2615 -1.4985 -5.9155 -2.264 -7.342501 -3.9755 -1.7565 -4.7715 -6.07 0 -4.5185 -3.557 -2.3335 -2.855 -3.319 -1.7565 -5.825 0 -3.047 -1.4985 -3.568 -1.934 -1.4985 -3.401 -3.7575 0 -2.186 -6.368 0 
-4.032 -7.269 -7.188 -9.3475 -11.9575 -4.312 -6.244 -9.887501 -6.07 -4.5185 -8.0655 -4.678 -6.476501 -6.9275 -4.165 -7.362 -5.825 -3.047 -4.095 -4.649 -5.48 -2.6125 -3.9525 -5.369 -3.7575 -2.186 -9.5445 -6.160501 
-9.718 -8.549001 -15.6085 -15.9006 -12.7716 -7.8545 -11.9372 -9.887501 -10.7025 -8.0655 -9.1765 -8.064 -10.586 -7.7945 -10.3545 -7.362 -8.923 -4.095 -6.870501 -6.184 -6.1095 -5.2085 -5.554 -5.369 -5.7625 -10.1855 -10.1855 
-11.3288 -17.0349 -21.5889 -16.3879 -16.3141 -13.8561 -11.9372 -14.7236 -14.2495 -9.1765 -12.6245 -12.7677 -10.679 -14.3326 -10.3545 -11.0502 -10.244 -6.870501 -8.1085 -6.796 -8.749001 -7.1295 -5.554 -7.185 -14.223 -10.1855 
-19.8147 -23.0153 -21.9254 -19.9304 -22.3157 -13.8561 -16.7733 -18.2706 -15.3605 -12.6245 -17.3282 -12.8607 -17.2171 -14.3326 -14.0427 -12.3712 -10.6185 -8.1085 -8.6505 -9.156501 -10.204 -7.1295 -7.290501 -15.9359 -14.223 
-3.2615 -5.149 -7.342501 -4.7715 -3.0365 -2.4945 -2.855 -3.319 -1.7565 -5.1245 -2.4945 -3.0365 0 -3.047 -1.4985 -3.401 -3.7575 -3.919 0 0 -2.3615 -3.778 -2.186 -3.7855 -2.3345 -8.259501 -3.0695 -2.7415 -1.4985 -6.6185 0 
-6.831 -12.8 -11.9286 -7.5495 -3.688 -6.4755 -6.9275 -4.165 -7.2215 -7.7025 -4.952001 -3.0365 -3.047 -4.095 -3.9525 -5.369 -8.345 -3.919 0 -2.3615 -5.4315 -5.569 -4.9225 -5.0075 -8.323 -9.380501 -4.6395 -4.063 -7.711 -6.6185 
-14.762 -18.8577 -15.1842 -8.1385 -6.868501 -10.634 -7.7945 -9.38 -10.025 -10.703 -4.952001 -6.806001 -4.095 -7.205 -5.554 -10.76 -8.345 -3.919 -2.3615 -5.4315 -6.3125 -8.022 -5.6565 -10.408 -10.512 -9.8725 -5.8275 -10.0815 -7.711 
-20.5627 -21.6357 -15.7732 -11.382 -10.749 -11.501 -13.3581 -12.2369 -13.0255 -10.703 -8.638 -7.8395 -7.205 -8.578 -11.2868 -10.76 -8.345 -6.425 -5.4315 -6.3125 -8.89 -9.198501 -11.7925 -12.7825 -11.3935 -10.7715 -12.4878 -10.0815 
-23.3407 -22.2247 -19.0167 -15.2625 -11.616 -17.0646 -16.215 -15.2374 -13.0255 -14.389 -9.709001 -11.1011 -8.578 -14.5272 -11.2868 -10.76 -11.6592 -10.1635 -6.3125 -8.89 -10.0675 -15.8503 -14.3376 -13.623 -12.36 -17.6392 -12.4878 
