-4.759 
n/a 
n/a 
n/a 
n/a 
-4.759 
n/a 
n/a 
n/a 
n/a 
-4.759 
n/a 
n/a 
n/a 
n/a 
-4.759 
n/a 
n/a 
n/a 
n/a 
-6.3215 -6.923 -5.8895 -8.9635 -4.677 
-8.639501 -8.774 -15.8488 -10.4265 
-9.464001 -19.6451 -17.3118 
-20.5497 -21.1081 
-22.0127 
-5.8555 -6.923 -5.8895 -9.8555 -4.677 -2.186 -2.5045 -6.3215 0 
-9.3985 -8.774 -16.7408 -10.147 -6.5685 -4.660501 -8.210501 -6.3215 
-12.0443 -20.5371 -17.0323 -12.1497 -8.8385 -10.115 -8.210501 
-23.8074 -20.8286 -19.035 -14.4197 -14.3348 -10.115 
-24.0989 -22.8313 -21.305 -19.916 -14.3348 
-8.7255 -4.628 -6.923 -5.8895 -8.771501 -4.677 
-13.6757 -8.594 -8.774 -15.6568 -9.0395 
-17.6417 -9.901 -19.4531 -15.9248 
-18.9487 -21.0487 -19.7211 
-30.0964 -21.3167 
-6.3215 -4.628 -9.438001 -5.8895 -12.16972 -4.677 
-9.127501 -10.862 -15.4309 -19.05502 -16.84672 
-15.4169 -16.8549 -28.59642 -23.73202 
-21.4098 -30.02042 -33.27342 
-34.57532 -34.69742 
