-4.759 
n/a 
n/a 
n/a 
n/a 
-4.759 
n/a 
n/a 
n/a 
n/a 
-4.759 
n/a 
n/a 
n/a 
n/a 
-4.759 
n/a 
n/a 
n/a 
n/a 
-1.934 -5.8385 -1.4985 -4.631 -3.966 -2.985 -3.4975 -3.355 -1.7695 -4.065 0 -2.688 -6.191 -4.3195 -2.688 -3.586 
-7.711 -8.1005 -5.528 -9.019501 -5.648 -6.7305 -7.97 -5.411 -6.2135 -4.065 -2.688 -7.3135 -9.814501 -7.6535 -3.615 
-8.714001 -9.876 -9.150001 -9.978001 -9.536 -11.9008 -10.233 -9.901001 -6.2135 -7.548 -7.3135 -10.004 -10.351 -8.3925 
-10.071 -13.7662 -9.993 -13.866 -14.9269 -14.1638 -14.723 -9.901001 -9.704 -13.1513 -10.004 -10.3525 -10.3685 
-14.2434 -14.6092 -13.881 -19.2569 -17.1899 -18.6538 -14.723 -13.3915 -15.4569 -15.8418 -10.3525 -10.37 
-1.934 -4.766 -4.631 -3.1385 -3.966 -2.985 -3.4975 -4.418 -1.7695 -4.088 0 -2.688 -6.191 -5.369 -2.5045 -2.688 -3.586 0 
-5.9565 -9.459001 -7.258 -6.868501 -5.648 -6.7305 -6.838 -6.318 -5.860001 -4.088 -2.688 -7.3135 -10.784 -6.956 -4.7545 -3.615 -3.586 
-11.1119 -12.1586 -11.2954 -7.146501 -9.536 -10.7688 -9.7015 -10.4185 -5.860001 -6.257501 -7.3135 -10.76 -12.371 -9.623501 -6.627501 -3.615 
-13.8115 -16.196 -11.5734 -11.9087 -13.7949 -13.6323 -13.8126 -10.4185 -9.218501 -9.885 -10.76 -12.347 -15.0385 -11.6779 -6.627501 
-17.8489 -16.474 -16.3356 -16.1676 -16.6584 -17.7434 -13.8126 -14.4476 -12.8592 -13.4625 -12.347 -15.0145 -17.0929 -11.6779 
-1.934 -5.8385 -4.631 -2.8645 -6.7575 -2.985 -3.4975 -5.4085 -1.7695 -1.4985 -4.088 -3.1385 -2.688 -6.191 -2.7415 -4.164 -3.222 -2.688 -3.586 0 
-7.711 -9.818001 -8.2185 -8.6125 -8.7915 -6.7305 -9.958501 -7.0915 -2.7955 -6.322001 -7.693501 -6.557 -7.3135 -8.792001 -5.8395 -6.4655 -5.731 -3.615 -3.586 
-12.0387 -13.5589 -14.0855 -10.7025 -12.7914 -13.8893 -11.9839 -8.251 -7.552501 -10.13 -11.4686 -11.7973 -8.966001 -12.0826 -7.586 -8.9775 -7.016 -3.615 
-15.7796 -19.4259 -16.1755 -14.7024 -19.9502 -15.9147 -13.1434 -13.328 -10.609 -14.0649 -16.7089 -13.4498 -12.3226 -13.8291 -10.494 -10.734 -7.016 
-21.6466 -21.5159 -20.1754 -21.8612 -21.9756 -17.0742 -18.2204 -16.3845 -15.3907 -19.3052 -18.3614 -16.8064 -14.0691 -16.7371 -12.2505 -10.734 
-1.934 -5.8385 -4.631 -3.1385 -3.966 -2.985 -3.4975 -3.8195 -1.7695 -4.088 -2.688 -6.191 -2.7415 -5.369 -2.5045 -2.688 -3.586 
-7.711 -9.818001 -7.258 -6.868501 -5.648 -6.7305 -8.358001 -5.597 -5.860001 -6.257501 -7.3135 -8.792001 -6.3245 -6.956 -4.7545 -3.615 
-12.0387 -12.5984 -11.2954 -7.146501 -9.536 -12.2888 -10.304 -9.913 -9.218501 -9.885 -8.966001 -10.038 -7.699501 -9.623501 -6.627501 
-14.8191 -16.6358 -11.5734 -11.9087 -15.3149 -14.2348 -14.62 -14.2207 -12.8592 -11.6685 -10.038 -12.9768 -10.434 -11.6779 
-18.8565 -16.9138 -16.3356 -17.6876 -17.2609 -18.5508 -18.9277 -17.8614 -14.6427 -12.7405 -12.9762 -15.7113 -12.4884 
