-4.759 
n/a 
n/a 
n/a 
n/a 
-4.759 
n/a 
n/a 
n/a 
n/a 
-4.759 
n/a 
n/a 
n/a 
n/a 
-4.759 
n/a 
n/a 
n/a 
n/a 
-7.581 -3.264 -3.74 -1.7695 -5.296 -2.4285 -4.0135 -2.5195 -1.4985 -3.6825 -3.321 -2.9805 -4.254 -3.325 -3.091 -3.783 -9.225 
-10.451 -7.288501 -4.2995 -6.671 -6.507 -5.1665 -5.4975 -3.1695 -4.87 -6.913 -5.175 -5.5985 -6.887 -5.621 -5.721 -13.2665 
-14.4755 -7.965501 -9.715501 -8.107 -10.3374 -7.2685 -6.4535 -6.5515 -7.755001 -8.607 -8.037001 -7.952001 -8.725 -9.0985 -15.0836 
-15.1525 -13.7511 -11.2101 -12.2144 -12.4394 -8.0845 -10.1265 -9.598001 -9.3065 -11.6266 -10.66 -9.814 -12.6325 -19.2109 
-20.9381 -15.2457 -15.3175 -14.3164 -13.2554 -12.0431 -13.2804 -11.1739 -12.4077 -14.2496 -12.522 -13.8439 -22.7449 
-1.7695 -4.2765 -1.7695 -2.489 -3.8255 -6.564 -7.581 -4.3215 -2.3335 0 -4.674 -3.4405 -2.6165 -3.331 -1.7695 -4.081 -4.1285 -3.7015 -3.1405 -1.756 -2.3085 -3.0805 -3.6515 -1.7695 -4.543 0 -1.756 -2.9805 -4.254 -5.217 -1.756 -4.3035 -1.7695 -4.081 -3.091 -3.699 -5.2685 -4.433 -2.802 -6.453 0 
-4.5005 -7.033501 -3.1405 -5.5785 -9.816501 -15.0304 -12.7497 -5.1075 -2.3335 -4.674 -6.824 -3.7415 -5.0865 -3.669 -4.517 -8.325001 -7.432 -6.021501 -4.618 -3.733 -3.7245 -5.3485 -3.9135 -5.49 -4.543 -1.756 -4.3555 -5.5985 -9.1125 -7.128001 -5.6665 -4.6755 -4.517 -6.430501 -7.2235 -8.512501 -10.3415 -7.622 -8.804501 -6.453 
-7.410501 -8.397 -6.226 -11.8395 -18.3083 -20.1991 -13.5357 -5.1075 -5.9345 -6.824 -8.694 -5.739501 -5.298 -6.197 -8.629001 -12.2703 -10.586 -7.039001 -5.4585 -5.004 -5.37 -5.419 -7.305501 -5.49 -6.447001 -4.3555 -7.243 -11.1244 -11.6815 -11.7049 -5.8595 -7.0565 -6.685501 -10.1725 -12.5228 -14.2303 -13.5305 -13.9319 -8.804501 
-8.6505 -11.6735 -12.7258 -20.3313 -23.477 -20.9851 -13.5357 -9.6975 -8.330501 -8.694 -11.4048 -5.935 -7.963 -10.7558 -12.6221 -15.4243 -10.776 -7.8595 -6.7775 -6.723001 -5.4375 -8.429001 -7.305501 -6.858 -8.570001 -7.243 -12.8599 -13.6934 -16.2584 -11.8979 -8.307 -8.905001 -10.208 -16.307 -18.2406 -17.4193 -19.8404 -13.9319 
-12.0134 -18.1733 -21.2176 -25.5 -24.263 -20.9851 -18.1257 -12.2981 -10.4505 -11.4048 -11.6003 -9.2495 -12.8418 -14.7489 -15.7761 -15.6143 -11.5965 -9.392 -8.4515 -6.7795 -8.441501 -8.429001 -8.553 -9.073001 -11.5667 -12.8599 -15.4289 -18.2703 -16.4514 -14.3454 -9.8415 -12.4895 -16.6463 -22.0248 -21.4296 -23.7292 -19.8404 
-7.581 -4.1585 0 0 -3.013 -5.651501 -3.013 -4.0175 -3.7015 -3.1405 -2.3085 -5.627 -1.934 -2.3615 -4.7485 0 0 -3.2615 -2.3335 -2.9805 -3.74 -1.7695 -3.5015 -3.741 -2.802 -11.0235 -1.934 -4.7485 0 
-11.08 -4.1585 0 -3.013 -8.529501 -7.033 -8.329 -7.152501 -6.021501 -4.598 -7.5745 -7.1365 -3.539 -7.344501 -4.7485 0 -3.2615 -5.0495 -4.1515 -7.245 -4.2995 -5.0115 -7.173 -6.359 -13.8581 -12.9575 -6.9525 -4.7485 
-11.08 -4.1585 -3.013 -7.7565 -11.1545 -13.9385 -11.982 -9.657001 -7.2225 -10.0345 -9.6595 -9.278501 -8.476501 -7.344501 -4.7485 -3.2615 -5.0495 -6.606 -8.271 -7.4685 -7.300001 -8.741 -9.863001 -17.8043 -15.7921 -17.976 -6.9525 
-11.08 -8.051001 -7.7565 -9.718 -15.4459 -17.6289 -14.4865 -10.8984 -12.8256 -12.1765 -11.8427 -14.4944 -8.476501 -7.344501 -7.751 -5.0495 -6.606 -10.8869 -8.755501 -10.6875 -11.3017 -11.5208 -21.3083 -19.7383 -20.8106 -17.976 
-14.9725 -13.3375 -9.718 -15.6727 -19.3257 -20.1334 -15.7279 -16.5015 -14.9676 -14.3597 -17.0586 -14.4944 -8.476501 -10.66 -9.838 -6.606 -10.8869 -11.3714 -12.1145 -14.6892 -14.0815 -22.9661 -23.2423 -24.7568 -20.8106 
-7.581 -4.2765 -1.4985 -5.865 0 0 -3.013 -2.6165 -4.3855 -1.934 -3.1405 -1.934 -3.6825 -2.3085 -3.0805 -3.9355 -1.4985 -3.6825 -1.756 -2.5045 -1.4985 -3.5015 -1.4985 -3.535 -3.6825 -2.802 -8.493 0 
-12.7047 -5.248 -7.252501 -5.865 0 -3.013 -3.724 -6.635 -5.280001 -5.5275 -4.871 -6.5925 -6.0705 -3.7245 -6.565001 -4.938 -4.87 -5.315 -4.604 -3.1915 -4.737 -4.9995 -4.255 -7.384501 -7.0865 -10.7495 -8.493 
-13.6762 -9.299001 -7.252501 -5.865 -3.013 -3.724 -7.4385 -8.0115 -8.978001 -7.4735 -9.9615 -9.2795 -7.342 -8.7865 -8.622001 -7.544001 -6.299 -7.9885 -5.134 -6.1965 -6.547501 -7.7685 -7.764 -11.3825 -15.4802 -10.7495 
-17.7272 -9.299001 -7.252501 -9.092501 -3.724 -7.4385 -8.984501 -12.2847 -11.0914 -13.0266 -12.6485 -10.1955 -12.71 -10.4615 -11.4164 -8.5565 -8.927501 -8.436501 -7.8525 -8.255501 -9.2025 -11.4589 -11.909 -19.7762 -15.4802 
-17.7272 -9.299001 -11.2338 -9.787001 -7.4385 -8.984501 -13.3831 -14.3981 -16.6445 -15.7136 -13.5645 -15.9053 -14.385 -13.2559 -12.4289 -11.416 -9.285001 -11.2752 -10.13 -11.0833 -13.0103 -15.6039 -20.3027 -19.7762 
