-4.759 
n/a 
n/a 
n/a 
n/a 
-4.759 
n/a 
n/a 
n/a 
n/a 
-4.759 
n/a 
n/a 
n/a 
n/a 
-4.759 
n/a 
n/a 
n/a 
n/a 
-3.6085 -2.186 -2.871 -1.4985 -8.380501 -3.6885 -2.0935 -2.5685 -2.8965 -3.6885 -4.468 0 
-5.869 -4.247 -5.1 -9.651501 -12.4724 -5.5805 -3.987 -4.555 -6.119 -7.1295 -4.468 
-8.000501 -6.6575 -13.4868 -14.2138 -14.3644 -7.6225 -5.7695 -7.654 -7.688 -7.1295 
-10.5135 -15.4637 -18.0491 -16.1058 -16.4064 -9.514 -7.7005 -7.705501 -7.688 
-19.3197 -20.026 -19.9411 -18.1478 -18.2979 -11.6844 -7.706 -7.705501 
-3.6085 -2.9705 -4.9325 -3.59 -4.0005 -2.186 -4.1605 -2.5045 -4.4905 -3.6885 
-6.936 -8.6415 -8.823501 -6.7605 -6.9805 -5.8435 -6.108 -7.2355 -8.971001 
-13.0134 -12.8381 -12.4476 -9.3555 -10.964 -7.0255 -11.664 -11.9948 
-17.21 -16.4622 -15.0426 -13.2638 -12.146 -12.9419 -16.4233 
-20.8341 -19.0572 -18.9509 -14.4458 -18.0624 -17.7012 
-2.5685 -3.2295 -3.59 -3.6085 -2.186 -2.871 -1.7565 -1.4985 -5.103 -3.6885 
-4.661 -7.5585 -7.008 -5.869 -4.247 -3.5385 -2.4195 -7.005501 -9.14 
-8.4475 -11.2555 -9.007 -8.000501 -4.411 -3.7675 -7.654001 -10.354 
-12.3829 -13.2545 -10.523 -8.092501 -4.5655 -8.741 -11.2791 
-14.3819 -14.7705 -10.5395 -8.250501 -10.2026 -12.8315 
-3.6085 -3.5395 -1.8085 -4.1895 -4.2915 -2.0935 -3.59 0 
-6.9875 -5.428 -6.0015 -9.943501 -6.256 -6.203001 -3.59 
-9.277 -9.710501 -12.5261 -11.908 -10.8759 -6.203001 
-13.6467 -16.3089 -14.4906 -16.5279 -10.8759 
-20.2451 -18.2734 -19.1105 -16.5279 
