-4.759 
n/a 
n/a 
n/a 
n/a 
-4.759 
n/a 
n/a 
n/a 
n/a 
-4.759 
n/a 
n/a 
n/a 
n/a 
-4.759 
n/a 
n/a 
n/a 
n/a 
-3.6085 -3.6885 -5.7175 -2.5195 -4.088 
-5.021 -9.389001 -6.13 -6.0615 
-10.2185 -9.9995 -9.5915 
-10.618 -13.4468 
-14.0653 
-3.6085 -2.186 -4.6275 -1.934 -4.088 
-5.869 -6.232 -5.73 -4.9295 
-10.6124 -7.367 -8.753 
-11.7474 -10.8734 
-15.2538 
-3.6085 -2.7415 -4.2215 -1.934 -4.088 0 
-6.774 -4.7885 -4.885 -4.9295 -4.088 
-8.878 -5.2365 -7.0365 -4.9295 
-9.201 -7.4135 -7.0365 
-11.4504 -7.4135 
-3.6085 -4.2215 -1.934 -4.088 0 
-7.4525 -4.885 -4.9295 -4.088 
-8.647 -7.0365 -4.9295 
-10.2925 -7.0365 
-10.2925 
