-4.759 
n/a 
n/a 
n/a 
n/a 
-4.759 
n/a 
n/a 
n/a 
n/a 
-4.759 
n/a 
n/a 
n/a 
n/a 
-4.759 
n/a 
n/a 
n/a 
n/a 
-4.034 -3.531 -4.255 -5.465 -1.4985 -3.8275 -3.7015 -3.676 
-7.236001 -6.434 -11.1415 -6.1095 -4.726 -5.687 -6.9285 
-10.038 -14.3523 -11.786 -10.1425 -6.2635 -7.974 
-18.2255 -14.9968 -15.819 -11.68 -8.6335 
-18.87 -19.0298 -17.3565 -14.05 
-4.034 -3.531 -2.341 -2.3335 -3.193 -5.867 -1.7695 -4.9435 -1.7565 -3.8275 0 
-7.236001 -5.5715 -5.7055 -5.214 -9.5325 -6.57 -7.2215 -6.422 -4.8265 -3.8275 
-9.2775 -9.05 -8.842 -12.1353 -10.0085 -12.835 -8.623501 -10.5694 -4.8265 
-12.8538 -12.3163 -15.8763 -12.6113 -16.1923 -14.237 -12.6159 -10.5694 
-16.1201 -19.3506 -16.3523 -18.7951 -17.5943 -18.2294 -12.6159 
-4.025 -2.186 -3.7855 -2.0935 -4.426 
-5.49 -4.9225 -5.6715 -6.383501 
-8.3675 -6.5055 -9.834001 
-9.6955 -10.9422 
-14.4942 
-4.034 -8.3535 -2.264 -3.777 -4.255 -1.756 -3.8275 -4.0555 -1.7695 -2.664 -3.498 0 
-10.4595 -10.3225 -5.540501 -6.7885 -6.055 -5.858 -7.198 -4.7475 -4.185 -5.1155 -3.498 
-12.4285 -13.599 -8.029501 -9.969501 -11.3192 -9.581 -7.6935 -6.349 -5.6315 -5.1155 
-15.705 -16.088 -10.543 -15.1905 -15.0422 -10.14 -8.047 -6.4995 -5.6315 
-18.194 -18.6015 -15.764 -18.9135 -15.6012 -10.4935 -8.104 -6.4995 
