-4.759 
n/a 
n/a 
n/a 
n/a 
-4.759 
n/a 
n/a 
n/a 
n/a 
-4.759 
n/a 
n/a 
n/a 
n/a 
-4.759 
n/a 
n/a 
n/a 
n/a 
-1.4985 -5.325 -4.96 -5.9325 -2.4945 -2.645 -1.934 -2.9645 0 
-8.038501 -10.647 -12.3825 -8.0895 -4.6775 -4.7605 -5.036 -2.9645 
-14.2007 -18.0695 -14.5395 -10.533 -6.987 -8.397501 -5.036 
-21.6232 -20.2265 -16.983 -12.8425 -9.730501 -8.397501 
-23.7802 -22.67 -19.2925 -15.586 -9.730501 
-4.932 -4.584 -4.571 -2.229 -3.152 -4.4715 -3.2955 0 
-9.112 -10.4765 -7.635 -5.943501 -6.2925 -6.646 -3.2955 
-15.6489 -14.0149 -10.543 -9.025001 -8.2445 -6.646 
-19.1873 -16.9229 -13.9971 -10.4115 -8.2445 
-22.0953 -20.377 -15.3836 -10.4115 
-4.4715 -2.9645 -4.571 -2.186 -5.105 -3.333 -3.2795 
-7.14 -8.932 -7.1165 -7.698 -6.002 -7.427001 
-13.2791 -11.7711 -13.3155 -8.857 -10.281 
-16.1182 -17.9701 -14.4745 -13.7398 
-22.3172 -19.1291 -19.3573 
-4.932 -3.4715 -2.4945 -3.757 -3.17 -4.079 -4.571 0 
-9.4525 -6.5345 -5.0075 -7.442 -5.7145 -8.8785 -4.571 
-12.6821 -8.9515 -8.301001 -9.678 -10.389 -8.8785 
-15.0991 -12.9286 -10.9048 -14.8297 -10.389 
-19.0762 -15.5324 -16.0565 -14.8297 
