-4.759 
n/a 
n/a 
n/a 
n/a 
-4.759 
n/a 
n/a 
n/a 
n/a 
-4.759 
n/a 
n/a 
n/a 
n/a 
-4.759 
n/a 
n/a 
n/a 
n/a 
-1.934 -3.691 -3.6065 -3.9755 -1.7565 -4.2335 -2.4945 -4.7195 -1.934 -3.6065 -3.9755 -1.7565 -4.7505 
-4.8225 -8.630501 -5.153 -4.312 -5.64 -5.851 -6.3205 -5.7355 -4.9755 -5.153 -4.312 -6.2825 
-9.181001 -10.1305 -5.1935 -7.2665 -7.5315 -7.663 -6.9785 -8.162001 -6.8665 -5.1935 -8.7495 
-10.6885 -10.2655 -7.9945 -8.686501 -9.186001 -8.185 -9.248 -9.986 -6.902 -9.85 
-10.727 -13.0665 -9.546 -10.2485 -10.068 -10.4675 -11.2812 -10.002 -12.0151 
-1.934 -3.691 -12.16972 -4.7505 -1.756 -4.4035 -3.948 -5.198 0 
-4.8225 -16.79252 -16.92022 -5.869 -5.636 -8.507 -8.708501 -5.198 
-18.43322 -21.54302 -18.03872 -10.0225 -9.742001 -13.6583 -8.708501 
-23.18372 -22.66152 -22.19222 -14.1285 -14.9613 -13.6583 
-24.30222 -26.81502 -26.29822 -19.3478 -14.9613 
-1.934 -3.691 -3.6065 -4.017 -1.7565 -4.055 -2.4945 -3.557 -1.934 -3.6065 -3.4425 0 
-4.8225 -8.630501 -5.997 -4.8305 -5.5005 -6.796 -5.304 -4.4175 -4.9755 -6.721 -3.4425 
-9.181001 -11.2506 -6.256 -8.2445 -8.461 -9.318501 -5.732501 -7.408 -8.17 -6.721 
-11.9129 -11.5096 -9.867001 -11.9492 -10.382 -9.6925 -8.207001 -10.7795 -8.17 
-12.1719 -15.1206 -13.5271 -13.8702 -10.756 -12.2402 -11.7079 -10.7795 
-3.691 -2.229 -2.674 -3.3715 -4.088 -1.756 -8.034 -1.934 -4.055 0 
-5.0855 -5.629 -5.4105 -5.932 -5.522501 -9.824001 -9.5375 -5.9565 -4.055 
-9.52 -8.564501 -8.355 -7.241 -14.4521 -11.3275 -13.6852 -5.9565 
-12.5649 -11.6622 -10.012 -16.4688 -15.9556 -15.4752 -13.6852 
-15.6626 -13.3192 -19.4622 -17.9723 -20.1033 -15.4752 
