-4.759 
n/a 
n/a 
n/a 
n/a 
-4.759 
n/a 
n/a 
n/a 
n/a 
-4.759 
n/a 
n/a 
n/a 
n/a 
-4.759 
n/a 
n/a 
n/a 
n/a 
-4.617 0 -5.0125 -9.623 -3.6385 
-4.617 -5.0125 -15.4821 -13.5853 
-10.382 -15.4821 -19.4444 
-20.8516 -19.4444 
-24.8139 
-4.617 0 -6.3335 -9.321501 -3.6385 
-4.617 -6.3335 -11.046 -13.4914 
-10.8625 -11.046 -15.2159 
-15.575 -15.2159 
-19.7449 
-4.617 -6.1265 -9.321501 -5.209 
-11.1377 -16.7792 -9.941001 
-21.7904 -17.3987 
-22.4099 
n/a 
-4.617 -6.3965 -12.16972 -5.209 
-11.4077 -19.35962 -17.37872 
-24.37082 -24.56862 
-29.57982 
n/a 
