-4.759 
n/a 
n/a 
n/a 
n/a 
-4.759 
n/a 
n/a 
n/a 
n/a 
-4.759 
n/a 
n/a 
n/a 
n/a 
-4.759 
n/a 
n/a 
n/a 
n/a 
-1.934 -4.167 -1.7695 -3.922 -4.5905 -1.7695 -4.8065 -2.0935 -3.0835 -4.191 -3.277 -14.39772 -4.157 -2.0935 -4.4245 -4.7775 -3.837 -4.566 -1.7695 -4.392 -2.229 -3.539 -3.5015 -1.4985 -4.2485 -4.157 -5.074 -4.129 -5.371 -12.16972 0 -5.371 0 -4.771 -12.16972 0 0 
-5.9285 -5.9475 -4.5985 -10.0255 -6.277 -6.782001 -7.523001 -5.3095 -6.441501 -5.1085 -18.49892 -18.83092 -6.509501 -6.1395 -7.788 -8.3935 -9.410001 -6.5195 -6.4915 -6.296 -6.139501 -7.490001 -4.9995 -5.307 -7.583 -9.362 -9.479501 -10.5325 -17.46382 -12.16972 -4.7945 -4.7945 -4.115 -16.55572 -12.16972 0 
-8.139501 -8.712501 -10.9856 -11.712 -12.1835 -9.1225 -11.0886 -9.018001 -7.027501 -22.22522 -23.51472 -21.18342 -10.7025 -9.3125 -11.67 -14.5873 -11.4359 -12.0675 -8.197001 -9.08 -10.7511 -8.3655 -8.765 -8.303501 -12.177 -14.9515 -16.7569 -23.99822 -17.97542 -16.96422 -4.7945 -7.829 -17.14672 -17.14672 -12.16972 
-10.4505 -15.347 -12.6721 -17.6185 -14.524 -12.6885 -14.7971 -9.702001 -23.70842 -26.25342 -25.86722 -25.37642 -13.8755 -13.3985 -17.8638 -16.6132 -16.9839 -13.773 -11.0518 -15.5844 -11.6266 -12.3284 -12.0205 -13.9737 -17.7668 -21.883 -29.93782 -23.99822 -22.76992 -16.96422 -8.005 -21.47552 -17.14672 -17.14672 
-17.085 -17.0335 -18.5786 -19.959 -18.09 -16.397 -15.4811 -26.34552 -27.86542 -28.60592 -30.06022 -28.54942 -17.9615 -19.5923 -19.8897 -22.1612 -18.6894 -16.6278 -17.5562 -16.4599 -15.5895 -15.5839 -17.6907 -19.2193 -24.6367 -35.06392 -29.93782 -28.79272 -22.76992 -20.17472 -21.74712 -21.74712 -17.14672 
-3.433 -1.7565 -4.243 -2.5195 -4.8065 -3.6055 -2.6615 -3.277 -3.995 -4.2485 -4.157 -1.7695 -6.9855 -1.934 -3.6055 -2.6615 -3.277 -2.5195 -4.566 -5.648 -3.918 -4.6985 -5.805501 -4.157 -1.7695 -5.074 -1.7695 -9.014 0 -10.6 -3.142 0 -1.934 -3.6055 -2.6615 -3.277 0 
-4.1845 -5.5665 -8.04 -6.866 -9.098501 -6.0115 -4.7555 -7.896501 -8.0625 -7.583 -5.6485 -8.2605 -8.157001 -4.8595 -6.0115 -4.7555 -5.3755 -6.6285 -8.5725 -9.679001 -9.693001 -10.3745 -10.647 -5.6485 -7.45 -7.321 -11.645 -8.898001 -8.290001 -11.193 -3.142 -1.934 -4.8595 -6.0115 -4.7555 -3.277 
-8.6315 -9.9665 -12.6019 -12.0618 -10.6885 -6.8595 -10.041 -12.5746 -11.702 -8.780001 -10.629 -10.366 -11.0323 -7.5655 -6.8595 -6.6635 -8.385 -8.739 -12.6975 -15.8908 -15.4684 -15.4062 -12.7131 -9.987 -10.0815 -15.231 -10.688 -15.0033 -10.3965 -10.3965 -5.782001 -4.8595 -7.5655 -6.8595 -4.7555 
-13.4275 -14.5284 -17.7977 -13.6518 -12.3715 -12.6168 -14.7191 -16.2141 -12.899 -14.3327 -12.3547 -12.7145 -13.9475 -9.139 -8.924001 -10.0125 -10.8339 -12.925 -18.9093 -21.6662 -20.5001 -17.4723 -16.7331 -11.8955 -16.512 -14.2445 -17.6983 -20.1803 -12.375 -14.9915 -9.069 -7.5655 -9.139 -6.8595 
-17.9894 -19.7242 -19.3877 -15.3348 -18.1288 -17.2949 -18.3586 -17.4111 -18.4517 -15.5762 -15.7888 -15.4381 -15.521 -11.2619 -12.603 -12.5882 -15.0199 -19.1368 -24.6847 -26.6979 -22.5662 -21.4923 -19.0905 -19.5067 -17.1203 -21.9496 -22.5415 -20.7515 -15.5627 -19.2027 -11.9276 -9.139 -9.139 

n/a 
n/a 
n/a 
n/a 
-3.2875 -3.7575 -4.2485 -1.7695 -4.8065 -3.158 -3.0835 -2.6615 -3.158 -1.7565 -6.9855 -2.802 -4.2485 -1.7695 -3.922 -4.2305 -1.7565 -4.1985 -4.566 -3.158 -2.6615 -3.158 -3.819 -5.074 -1.7695 -5.371 -3.5725 0 
-7.4575 -8.278 -6.2815 -6.782001 -7.394501 -6.4475 -5.863 -5.2895 -4.71 -8.1365 -8.411 -6.742001 -6.2815 -4.5985 -8.296 -5.3675 -5.948501 -9.97 -7.689 -5.849 -5.2895 -6.6125 -10.109 -7.321 -7.541501 -9.528 -3.5725 
-12.2902 -10.513 -12.0468 -10.0345 -11.8998 -10.007 -8.453001 -7.9965 -11.344 -10.6915 -11.5005 -9.604 -8.3485 -9.293001 -9.442 -10.485 -12.0028 -13.2222 -11.3848 -6.9045 -10.3745 -14.1569 -13.426 -12.2125 -12.5675 -9.692501 
-14.5252 -16.2783 -15.2993 -14.6628 -15.4593 -12.6718 -10.2585 -15.1439 -13.6034 -13.1479 -14.5139 -11.6704 -13.3086 -10.404 -14.6285 -16.5393 -15.255 -16.918 -12.4403 -12.9089 -17.9189 -16.8259 -15.7415 -14.9749 -12.9569 
-20.2905 -19.5308 -19.9276 -18.2223 -18.1241 -14.4773 -17.4059 -17.2309 -16.8573 -16.0099 -16.5803 -16.6305 -14.4196 -15.5905 -20.6828 -19.7915 -18.9508 -17.9735 -18.4447 -20.4533 -20.5879 -18.9344 -20.9999 -14.9459 
