-4.759 
n/a 
n/a 
n/a 
n/a 
-4.759 
n/a 
n/a 
n/a 
n/a 
-4.759 
n/a 
n/a 
n/a 
n/a 
-4.759 
n/a 
n/a 
n/a 
n/a 
-3.147 -4.649 -2.229 -5.2915 -2.186 -1.934 -4.6825 -3.8685 
-8.048 -6.2345 -7.094501 -6.972 -4.0835 -7.2075 -6.920001 
-9.217 -11.696 -8.622001 -8.493 -9.4735 -8.293 
-14.9233 -13.2235 -9.9405 -14.1304 -10.2005 
-16.4508 -14.542 -15.7117 -14.8574 
-1.8085 -5.2915 -1.7565 -4.649 -1.934 -4.6825 -3.8685 -2.7415 -3.074 -2.489 -4.3725 0 
-6.3435 -5.807 -6.545001 -7.119 -7.2075 -6.920001 -6.212501 -4.727 -4.381 -5.109 -4.3725 
-6.659 -10.3345 -8.72 -12.8651 -8.293 -9.348501 -8.284 -8.469 -6.973 -5.109 
-11.1567 -12.5095 -14.7141 -13.9506 -10.5855 -11.4326 -12.0912 -11.2472 -6.973 
-13.3317 -18.5036 -15.7996 -16.2431 -12.6696 -15.2398 -14.8694 -11.2472 
-1.8085 -5.2915 -1.7565 -4.649 -4.6825 -3.539 -2.186 -4.3725 -3.147 0 
-6.3435 -5.807 -6.545001 -9.568001 -6.1815 -6.066 -5.3785 -6.547501 -3.147 
-6.659 -10.3345 -11.8562 -11.1384 -8.535001 -9.472501 -7.8715 -6.547501 
-11.1567 -15.6457 -13.4266 -13.4919 -12.0261 -12.3167 -7.8715 
-16.4679 -17.2161 -15.7801 -16.983 -14.8703 -12.3167 
-3.0365 -2.186 -1.8085 -5.2915 -3.147 -1.7565 -4.649 -2.9705 -3.837 -3.595 -4.6825 0 
-3.66 -3.164 -6.3435 -8.4975 -6.2625 -6.545001 -8.5675 -5.8435 -6.8235 -7.190001 -4.6825 
-4.218 -7.605 -9.4305 -10.4185 -11.5078 -9.928 -11.5525 -8.415501 -9.2215 -7.190001 
-8.01 -10.19 -10.758 -15.6638 -14.8908 -12.9014 -14.1245 -10.5535 -9.2215 
-10.2175 -11.5175 -16.0033 -19.0468 -17.8642 -15.4734 -16.2625 -10.5535 
