-4.759 
n/a 
n/a 
n/a 
n/a 
-4.759 
n/a 
n/a 
n/a 
n/a 
-4.759 
n/a 
n/a 
n/a 
n/a 
-4.759 
n/a 
n/a 
n/a 
n/a 
-6.8035 -3.091 -7.296 -2.4945 -4.6335 0 -2.9805 -3.251 -3.4915 -4.602 -1.7695 -3.8905 -3.277 -6.5215 
-9.186501 -8.7185 -9.382501 -7.137001 -4.6335 -2.9805 -4.429 -6.098001 -6.9845 -6.0935 -4.6555 -5.3855 -9.1715 
-14.8772 -10.151 -14.022 -7.137001 -8.1245 -4.429 -7.593501 -9.288501 -8.1805 -9.023001 -6.077001 -10.204 
-16.3097 -14.7905 -14.022 -10.0475 -9.795501 -7.593501 -10.3885 -9.7025 -11.534 -10.6605 -10.6085 
-20.9492 -14.7905 -16.9325 -11.7185 -12.9696 -10.3885 -10.8025 -14.3366 -13.1715 -15.192 
-3.4765 -3.929 -3.091 -5.003 -3.152 -1.7565 -4.6335 -3.319 0 -2.4265 -4.3865 -5.4175 
-4.589 -6.2145 -6.866 -7.259501 -5.8025 -5.968501 -8.471001 -3.319 -2.4265 -6.346 -10.127 
-6.7945 -9.8715 -8.43 -9.665001 -10.155 -10.368 -8.471001 -6.0305 -6.346 -12.0815 
-10.5975 -10.753 -10.5975 -14.1217 -14.5545 -10.368 -10.7335 -10.4765 -12.0815 
-11.479 -12.9205 -15.0542 -18.5212 -14.5545 -12.6305 -15.1795 -16.212 
-3.4765 -3.929 -3.091 -5.003 -2.4945 -2.7455 -3.8905 0 -2.9805 -3.251 -1.4985 -4.602 -1.7565 -4.7135 -2.4265 -2.356 -4.695 0 
-4.589 -6.2145 -6.866 -7.132501 -5.1185 -6.1255 -3.8905 -2.9805 -4.429 -4.5775 -5.864 -6.4945 -6.247001 -6.6155 -4.634501 -6.6995 -4.695 
-6.7945 -9.8715 -8.2085 -9.309501 -8.8035 -6.1255 -6.0605 -4.429 -5.9835 -7.666 -6.936 -9.757 -7.986001 -9.266 -8.323501 -6.6995 
-10.5975 -10.721 -10.4185 -12.9527 -8.8035 -8.217501 -7.7985 -5.9835 -8.490001 -8.9755 -10.4675 -11.9562 -10.4505 -12.9724 -8.323501 
-11.447 -12.931 -14.0617 -12.9527 -11.0399 -10.0035 -9.005 -8.490001 -9.609 -12.59 -12.6667 -14.4207 -14.1569 -12.9724 
-3.091 -4.3285 -2.8645 -3.135 -4.6335 -3.9355 -2.872 -3.5725 -2.4265 -2.8645 -3.135 -4.447 -4.1645 -2.645 -3.1575 -2.9805 -2.8645 -4.447 -4.1645 0 
-6.0005 -7.028 -5.203 -7.449 -8.3935 -6.1435 -5.087501 -5.918 -4.1435 -5.203 -7.656001 -9.3815 -7.267 -3.72 -5.644 -4.3245 -8.5795 -9.3815 -4.1645 
-8.5535 -9.5485 -9.3615 -10.459 -9.977501 -8.579 -6.647 -7.649 -6.3155 -9.364 -13.0053 -12.4916 -8.346001 -6.4115 -6.9935 -10.1895 -13.821 -9.3815 
-11.0532 -13.707 -12.4081 -12.043 -12.9002 -9.777 -8.410501 -9.084001 -9.932 -14.9671 -16.1154 -13.5706 -11.2833 -7.864501 -13.3529 -15.431 -13.821 
-15.2117 -16.7536 -13.9921 -14.9657 -14.0982 -11.7487 -9.710501 -12.7799 -15.7901 -18.0772 -17.1944 -16.5079 -12.7363 -14.3085 -18.5944 -15.431 
