-4.759 
n/a 
n/a 
n/a 
n/a 
-4.759 
n/a 
n/a 
n/a 
n/a 
-4.759 
n/a 
n/a 
n/a 
n/a 
-4.759 
n/a 
n/a 
n/a 
n/a 
-1.934 -5.0975 0 -4.9785 -4.348 -4.5045 -1.8085 -4.4665 -2.871 -1.934 -2.1715 -3.5075 -3.188 -3.8275 -2.5045 -4.3935 
-6.4175 -5.0975 -4.9785 -6.599 -8.780001 -5.0395 -7.3505 -6.8655 -4.8125 -4.7035 -5.23 -7.305 -4.801 -6.343 -8.1085 
-6.4175 -9.495001 -6.599 -11.6504 -9.221001 -10.304 -10.1225 -8.144501 -7.608 -7.456 -8.297001 -9.071 -7.896 -12.6322 
-11.2104 -11.2637 -11.6504 -12.0914 -14.9737 -13.4102 -11.4015 -11.3254 -10.6095 -10.1465 -9.135 -11.887 -14.428 
-12.9791 -16.3151 -12.0914 -17.8441 -18.0799 -14.6892 -14.5824 -14.3269 -13.3 -11.0949 -11.9614 -18.419 
-1.4985 -3.8275 -2.3335 -4.0875 -3.5015 -1.934 -4.3935 -1.934 -5.0975 -2.186 -4.1205 -2.5045 -1.4985 -4.4665 -4.1115 -4.319 -1.7565 -1.4985 -3.0835 -3.188 -3.8275 0 
-4.726 -6.042 -5.637 -5.143 -4.704 -5.726501 -6.606 -6.4175 -8.005 -5.007 -5.3175 -3.583 -4.729 -8.568501 -7.915 -6.5295 -2.4195 -3.535 -5.7815 -4.801 -3.8275 
-6.739501 -8.311001 -6.0175 -5.692 -8.345 -7.206501 -9.967001 -8.474501 -10.304 -6.317 -6.431 -6.688001 -8.767 -12.808 -9.394501 -6.914001 -4.6785 -6.070001 -5.963 -4.801 
-9.041 -8.5175 -6.4845 -9.109 -9.220501 -10.411 -12.024 -11.0843 -11.7066 -7.1455 -8.843 -10.718 -13.1451 -14.2875 -9.8645 -9.801001 -6.719501 -6.1905 -5.963 
-9.317 -8.9405 -9.7875 -9.749001 -12.6938 -12.468 -14.6338 -12.4869 -12.5351 -9.271001 -13.048 -15.0961 -14.6246 -14.7575 -12.8467 -11.9008 -6.796 -6.1905 
-4.319 -1.7565 -6.6005 -1.934 -5.0975 -4.3195 -1.4985 -4.4665 -3.8275 -2.264 -4.1115 -1.934 -1.4985 -3.0835 -3.188 -3.8275 0 
-6.5295 -7.423 -8.371 -6.4175 -8.859 -5.1515 -4.729 -8.201 -5.147 -5.9325 -6.1155 -2.6125 -3.535 -5.7815 -4.801 -3.8275 
-13.0264 -8.718 -9.1245 -9.3395 -9.5035 -7.5555 -8.349001 -10.1345 -9.706 -8.0895 -6.6895 -4.5575 -6.070001 -5.963 -4.801 
-14.3214 -9.211 -12.0653 -9.746 -12.0383 -11.5703 -10.172 -14.8095 -12.083 -8.535001 -8.8225 -6.974 -6.1905 -5.963 
-14.8144 -12.1514 -12.4718 -12.419 -16.0531 -13.3933 -14.8588 -17.1865 -12.5285 -11.3524 -10.634 -7.1035 -6.1905 
-6.6005 -4.319 -2.186 -4.4665 -4.1115 -4.319 -1.934 -3.0835 -3.188 -3.8275 -2.5045 -5.0975 0 
-10.3615 -6.456 -7.133 -8.568501 -7.915 -6.011 -5.331 -5.7815 -4.801 -6.343 -8.7405 -5.0975 
-12.4985 -11.97 -11.9688 -12.808 -9.1955 -9.581 -7.8675 -5.963 -7.896 -13.2642 -8.7405 
-18.0125 -16.8058 -16.2083 -14.0885 -13.1967 -12.3321 -8.5675 -8.488001 -15.06 -13.2642 
-22.8483 -21.0453 -17.4888 -18.0897 -15.9478 -13.0321 -11.2567 -15.6684 -15.06 
