-4.759 
n/a 
n/a 
n/a 
n/a 
-4.759 
n/a 
n/a 
n/a 
n/a 
-4.759 
n/a 
n/a 
n/a 
n/a 
-4.759 
n/a 
n/a 
n/a 
n/a 
-4.4715 -3.995 -4.461 -1.7565 -8.828501 -1.934 -4.285 -3.892 
-9.069 -8.080501 -5.722001 -10.022 -10.66 -5.9955 -7.581 
-13.3929 -10.1635 -14.6989 -11.9841 -14.7215 -9.642 
-15.4759 -19.113 -16.661 -16.0456 -18.368 
-24.4254 -21.0751 -20.7225 -19.6921 
-4.921 -2.264 -1.4985 -4.1455 -1.7565 -3.995 -2.186 -4.7175 -3.43 -2.925 -1.7565 -5.825 0 
-6.9565 -2.9195 -4.870501 -5.11 -5.423 -5.7465 -5.732 -7.4685 -5.0455 -4.898 -7.362 -5.825 
-7.365 -5.568 -5.3985 -7.788001 -7.5575 -9.625501 -7.9475 -7.883 -5.285 -9.8915 -7.362 
-9.1245 -5.951 -7.8915 -8.987 -11.5747 -10.3975 -8.22 -7.9125 -10.3285 -9.8915 
-9.832 -8.4545 -9.0845 -13.2006 -12.3467 -11.301 -8.247001 -13.0026 -10.3285 
-2.925 -3.7575 -1.7565 -4.5905 -2.186 -3.3365 -1.7565 -4.921 -2.186 -5.1245 
-6.649 -4.4575 -7.1285 -6.831501 -5.2895 -4.7425 -6.4395 -7.208 -9.017 
-7.731501 -9.332001 -9.361501 -9.904001 -5.5445 -8.206 -8.236 -14.3422 
-12.7852 -11.7108 -12.5178 -9.968501 -9.331 -10.4855 -15.5426 
-15.164 -14.8671 -12.5823 -13.8982 -11.6833 -17.7921 
-3.995 -2.229 -4.7885 -4.1455 -4.921 -2.4945 -4.4715 -3.43 -2.925 -1.7565 -5.1245 0 
-5.324 -6.6485 -6.302001 -8.77 -6.6035 -5.7935 -7.157001 -5.0455 -4.898 -7.2215 -5.1245 
-8.214001 -8.331501 -11.8375 -10.064 -9.377001 -7.825001 -7.568501 -5.285 -10.0125 -7.2215 
-9.4975 -13.7478 -13.1315 -12.8375 -11.5741 -8.4505 -7.619 -10.7681 -10.0125 
-15.3526 -15.0418 -15.905 -15.0346 -12.1996 -8.499001 -13.1787 -10.7681 
