-4.759 
n/a 
n/a 
n/a 
n/a 
-4.759 
n/a 
n/a 
n/a 
n/a 
-4.759 
n/a 
n/a 
n/a 
n/a 
-4.759 
n/a 
n/a 
n/a 
n/a 
-1.4985 -4.8625 -3.0695 -3.511 -1.934 -1.4985 -4.01 -2.3335 -2.186 -4.77 -1.4985 -6.342 -2.186 -1.8085 -4.7595 -2.0935 -2.985 -4.1955 -3.9675 0 
-5.7415 -6.703 -5.514501 -4.582 -2.6125 -5.311501 -6.915 -3.7085 -6.2235 -5.983001 -7.365001 -8.981001 -3.164 -5.954 -6.8845 -4.3315 -6.2655 -6.7925 -3.9675 
-7.372 -8.238501 -5.868001 -5.3785 -5.913 -7.625 -7.991001 -7.555501 -7.2425 -10.7495 -9.774 -9.956501 -7.4735 -7.5075 -9.6855 -7.928 -8.064 -6.7925 
-9.203501 -8.582001 -6.4515 -8.046 -8.0305 -8.757501 -11.975 -8.4425 -12.3628 -13.1585 -10.6765 -14.266 -8.9595 -10.304 -13.282 -10.1425 -8.064 
-9.7725 -8.815001 -9.035001 -10.2805 -9.149 -12.8639 -12.862 -13.666 -14.7718 -14.061 -14.986 -15.752 -11.9396 -13.9005 -15.4965 -10.1425 
-1.4985 -3.931 -1.7565 -6.342 -1.7565 -1.4985 -4.432 -3.2015 -1.7565 -4.5155 -4.8625 -4.0865 -2.985 -3.3435 
-5.055 -4.616 -7.8995 -8.804001 -2.4195 -5.268001 -8.2605 -4.706 -6.454 -8.974001 -8.878 -6.7095 -5.5965 
-5.2355 -11.5894 -10.2085 -9.314001 -6.225501 -9.216001 -9.496 -9.455501 -10.6875 -13.2723 -11.798 -10.7025 
-12.3005 -13.8984 -10.7185 -13.2784 -10.4425 -9.5275 -14.9659 -14.2304 -14.9858 -16.1923 -15.791 
-14.6095 -14.4084 -14.6829 -17.4954 -11.277 -15.165 -19.7408 -18.5287 -17.9058 -20.1853 
-1.4985 -3.931 -1.7565 -1.4985 -6.342 -3.8755 -1.8085 -4.3685 -4.0045 -2.264 -1.4985 -3.3715 -4.8775 -1.756 -3.8245 -3.534 -1.7565 -1.4985 -4.8625 -2.264 -4.9625 
-5.055 -4.616 -2.4195 -7.365001 -11.1415 -5.0255 -5.298 -5.8715 -4.703001 -2.9195 -4.859 -6.5115 -5.757 -5.5 -7.889 -4.6265 -2.4195 -5.7415 -6.9635 -7.984501 
-5.2355 -5.907001 -8.4495 -12.4967 -12.2915 -8.3055 -6.271 -6.0865 -5.186 -6.574 -7.8125 -7.459001 -9.059 -9.9615 -8.721001 -5.5875 -6.651501 -7.6585 -13.4124 
-6.2465 -12.2784 -13.7912 -13.6467 -15.5715 -9.494 -6.347001 -6.5485 -8.862 -9.673 -8.637 -11.1566 -13.8607 -10.181 -9.828 -10.3777 -8.5635 -14.4952 
-12.6693 -17.6201 -14.9412 -16.9267 -16.76 -9.676001 -6.798501 -10.2645 -12.0684 -10.7009 -12.7344 -15.9583 -14.0802 -11.7318 -14.705 -12.2897 -15.6028 
-5.066 -4.8625 -4.443 -2.4265 -2.5045 -1.8085 -3.4155 -3.931 -2.5045 -2.925 -4.443 -2.4265 -2.186 -1.8085 -4.413 -1.7565 -2.985 -3.8245 0 -2.3615 -4.4465 -2.985 -4.5735 -3.9675 -4.83 0 
-10.304 -8.755501 -5.895 -4.6185 -3.3625 -4.0495 -6.6905 -6.2345 -4.3205 -5.915 -5.895 -3.292 -3.164 -5.9175 -4.9865 -3.9355 -6.332 -3.8245 -2.3615 -7.145 -6.8675 -6.9515 -7.1785 -8.949 -4.83 
-14.197 -10.219 -8.195001 -5.1695 -6.1 -6.9575 -8.599 -8.125501 -7.567501 -7.212501 -7.6815 -4.4005 -7.0365 -6.208 -6.994 -7.443 -6.332 -6.643 -7.145 -8.676001 -11.424 -8.5775 -12.6798 -8.949 
-15.6605 -12.4272 -8.8325 -7.478 -8.945001 -9 -10.223 -11.5763 -8.5185 -9.1225 -8.6945 -8.0955 -7.3825 -8.2845 -10.9517 -7.443 -9.0155 -11.8693 -8.676001 -13.2637 -13.05 -14.3622 -12.6798 
-17.8687 -13.0647 -10.5435 -10.142 -11.0689 -10.575 -13.7964 -12.5273 -10.5635 -10.4115 -12.5327 -8.3345 -9.309501 -12.3562 -10.9517 -10.45 -14.3358 -13.4003 -13.2637 -14.8897 -18.8347 -14.3622 
