-4.759 
n/a 
n/a 
n/a 
n/a 
-4.759 
n/a 
n/a 
n/a 
n/a 
-4.759 
n/a 
n/a 
n/a 
n/a 
-4.759 
n/a 
n/a 
n/a 
n/a 
-2.3615 -3.9285 -2.7415 -4.232 -3.034 -4.2815 -3.2615 -3.6115 -3.188 -3.8275 0 
-7.672501 -7.4045 -6.7655 -7.2995 -5.568 -8.123501 -7.0005 -5.7875 -4.801 -3.8275 
-9.814501 -11.7917 -8.842001 -9.059501 -10.1385 -12.0341 -8.7725 -5.8365 -4.801 
-14.3877 -13.8682 -10.495 -13.7072 -14.0491 -13.8061 -8.7795 -5.8365 
-16.4642 -15.5212 -15.1427 -17.6178 -15.8211 -13.8131 -8.7795 
-2.3615 -2.186 -4.1925 -4.58 -4.174 -3.2615 -3.6115 -3.188 -3.8275 
-3.5005 -6.559 -8.4525 -9.896501 -7.2685 -7.0005 -5.7875 -4.801 
-8.8855 -11.4304 -14.5468 -12.991 -10.513 -8.7725 -5.8365 
-13.7545 -17.5247 -17.6413 -16.2355 -12.6276 -8.7795 
-19.8488 -20.6192 -20.8858 -18.3501 -12.6346 
-3.2615 -3.6115 -3.188 -3.8275 -3.17 -1.7565 -3.277 -2.4945 -4.06 
-7.0005 -5.7875 -4.801 -7.2075 -4.179 -4.25 -5.237 -5.1305 
-8.7725 -5.8365 -8.467501 -7.746 -5.4445 -5.3725 -7.849 
-8.7795 -8.6645 -8.8385 -8.653501 -6.1755 -7.883 
-11.7127 -9.025001 -9.8675 -9.765 -8.4545 
-2.4265 -2.186 -1.8085 -3.6135 -4.174 -1.934 -3.6115 -3.188 -3.8275 0 
-3.292 -3.164 -4.4545 -8.4145 -6.14 -5.603 -5.7875 -4.801 -3.8275 
-4.4005 -5.4355 -9.538 -10.389 -9.943001 -8.39 -5.8365 -4.801 
-6.6215 -10.926 -11.7025 -14.192 -12.7672 -8.496 -5.8365 
-12.3554 -13.0905 -15.5055 -17.0162 -12.8732 -8.496 
