-4.759 
n/a 
n/a 
n/a 
n/a 
-4.759 
n/a 
n/a 
n/a 
n/a 
-4.759 
n/a 
n/a 
n/a 
n/a 
-4.759 
n/a 
n/a 
n/a 
n/a 
-3.16 -2.9775 -4.2815 -1.7695 -3.1015 -3.17 -3.264 -1.7565 -8.929001 
-4.6715 -8.2775 -4.4915 -5.731 -6.024 -7.033 -3.6125 -10.3545 
-9.457001 -8.453501 -7.9925 -8.3 -10.593 -7.0765 -13.0301 
-9.596001 -12.2345 -10.8319 -13.1026 -10.6365 -16.8079 
-13.511 -15.0739 -15.6345 -13.1461 -20.3679 
-1.934 -1.4985 -3.498 -1.7565 -4.1045 0 -1.4985 -3.5085 -3.264 -1.7565 -5.487 -2.186 -3.689 -3.1575 -1.4985 -3.8825 -3.264 0 -3.7925 -4.4695 -3.264 -1.7565 -5.487 -2.4945 -3.8825 -2.3335 -3.193 -3.074 0 
-2.6125 -4.0295 -4.005 -6.151 -4.1045 -1.4985 -4.4755 -4.98 -3.6125 -7.165 -7.531001 -4.993 -4.168 -4.1355 -4.569 -7.443501 -3.264 -3.7925 -8.151 -8.3395 -3.6125 -7.165 -7.298 -5.478001 -6.476 -5.214 -6.4925 -3.074 
-5.101 -4.188 -7.541501 -6.151 -5.643001 -4.4755 -5.271 -5.0055 -8.6845 -9.2705 -10.6215 -5.2735 -5.326 -6.955501 -7.659 -7.443501 -7.639501 -8.151 -12.4534 -9.5 -8.6845 -9.537001 -10.238 -7.835001 -8.290501 -7.973001 -6.4925 
-6.413 -7.555501 -7.541501 -7.324501 -8.386001 -5.271 -5.2885 -10.647 -11.2992 -12.534 -10.902 -6.0215 -8.285501 -9.691001 -7.659 -12.4088 -12.3328 -12.4534 -13.6139 -14.9968 -10.281 -12.6394 -12.5726 -10.304 -11.1357 -7.973001 
-9.654501 -7.555501 -8.406501 -9.848001 -9.1215 -5.2885 -11.0196 -13.2617 -14.5627 -12.8145 -11.65 -8.8525 -11.4536 -9.691001 -13.1089 -17.1021 -16.6352 -13.6139 -19.1107 -16.5933 -14.3088 -14.974 -15.0416 -13.1492 -11.1357 
-1.934 -4.1045 0 -3.0365 -2.4945 -3.098 -4.144 -4.0145 -1.7565 -4.2115 -2.4945 -3.8085 -4.0745 -1.7695 -3.1015 -1.8085 -3.4795 0 
-5.346 -4.1045 -3.0365 -3.688 -4.907001 -7.2185 -7.441 -5.004 -5.9335 -5.9955 -5.067 -9.383 -5.6095 -5.731 -5.0505 -6.392 -3.4795 
-5.346 -7.103001 -3.688 -5.665 -9.065001 -9.276 -8.0515 -8.8465 -7.7635 -9.136001 -12.1287 -11.353 -9.290001 -7.789001 -6.6635 -6.392 
-7.6445 -7.8455 -5.665 -10.264 -10.4115 -10.6885 -12.0676 -10.001 -11.1324 -16.0401 -14.0987 -15.0335 -11.4336 -9.036501 -6.6635 
-8.668 -9.958501 -10.264 -11.6105 -12.1994 -14.7046 -13.2221 -13.5655 -18.0365 -18.0101 -17.7792 -17.1771 -12.6811 -9.036501 
-2.5045 -1.4985 -3.498 -1.7565 -3.158 -4.1045 -3.5085 -3.4605 -4.816 -4.2815 -3.1015 -1.8085 -3.4795 -4.3485 -2.186 -6.516001 -3.17 -3.6975 -4.2115 -1.934 -3.5905 -2.95 
-3.1915 -4.0295 -4.005 -5.26 -6.283 -7.5775 -8.0135 -9.099001 -8.501 -8.9925 -5.0505 -6.392 -8.828 -6.253 -8.329 -8.858001 -4.1885 -6.8055 -6.0825 -5.709 -5.809 
-4.454 -4.188 -5.8405 -9.208 -9.529 -12.4009 -14.2848 -13.0138 -13.6466 -11.2245 -6.6635 -12.0163 -11.0699 -11.247 -9.987 -12.2735 -7.346001 -8.3645 -9.844501 -7.6815 
-4.526 -6.72 -9.7535 -12.5064 -14.451 -18.6722 -18.1996 -18.1594 -15.8786 -12.8375 -12.6148 -14.2582 -16.5947 -14.4948 -13.2956 -15.8796 -8.4715 -12.4505 -12.2306 
-7.156 -10.434 -13.1271 -17.4284 -20.7223 -22.587 -23.3452 -20.3914 -17.4916 -18.7888 -14.8567 -19.783 -19.3117 -17.7163 -16.7875 -17.0051 -12.6797 -14.8366 
