-4.759 
n/a 
n/a 
n/a 
n/a 
-4.759 
n/a 
n/a 
n/a 
n/a 
-4.759 
n/a 
n/a 
n/a 
n/a 
-4.759 
n/a 
n/a 
n/a 
n/a 
-2.925 -2.4945 -12.16972 0 -12.16972 
-3.7675 -16.09242 -12.16972 -12.16972 
-17.59082 -16.09242 -24.33944 
-17.59082 -28.26214 
-29.76054 
-2.3335 -2.186 -3.299 -9.335 -1.756 -10.7715 
-3.7085 -5.5155 -13.9836 -10.586 -13.5361 
-7.12 -16.4885 -15.2346 -22.3661 
-18.6026 -17.7395 -27.0147 
-19.8536 -29.5196 
-3.1495 -12.16972 0 -12.16972 
-16.61442 -12.16972 -12.16972 
-16.61442 -24.33944 
-28.78414 
n/a 
-2.3335 -12.16972 0 -12.16972 
-15.69402 -12.16972 -12.16972 
-15.69402 -24.33944 
-27.86374 
n/a 
