-4.759 
n/a 
n/a 
n/a 
n/a 
-4.759 
n/a 
n/a 
n/a 
n/a 
-4.759 
n/a 
n/a 
n/a 
n/a 
-4.759 
n/a 
n/a 
n/a 
n/a 
-2.925 -2.4945 -4.8115 0 -4.5555 0 -4.9715 -1.756 -5.8875 0 -4.2775 -5.1165 0 -4.02 -5.1165 0 -3.75 -4.088 0 -3.85 -3.188 0 -4.7015 -4.088 -1.756 -4.749 -4.088 0 
-3.7675 -8.343 -4.8115 -4.5555 -4.5555 -4.9715 -6.16 -6.817 -5.8875 -4.2775 -8.686501 -5.1165 -4.02 -9.086 -5.1165 -3.75 -6.076 -4.088 -3.85 -7.449 -3.188 -4.7015 -7.440001 -5.1965 -6.0335 -7.27 -4.088 
-10.061 -8.343 -6.7565 -4.5555 -8.7135 -6.16 -6.8925 -6.817 -9.271501 -8.686501 -8.686501 -8.498501 -9.086 -9.086 -6.639 -6.076 -6.076 -6.2555 -7.449 -7.449 -8.507 -7.440001 -8.829 -9.626 -7.4585 -7.27 
-10.061 -10.3165 -6.7565 -8.7135 -10.058 -6.8925 -6.8925 -10.513 -14.3931 -8.686501 -12.6821 -14.3487 -9.086 -10.9445 -8.472501 -6.076 -8.201 -10.041 -7.449 -13.4446 -11.8065 -8.829 -13.0845 -11.0774 -7.4585 
-12.0345 -10.3165 -9.316501 -10.058 -10.8349 -6.8925 -10.5325 -15.6346 -14.3931 -12.6821 -18.5323 -14.3487 -10.9445 -12.778 -8.472501 -8.201 -12.6229 -10.041 -13.4446 -16.7441 -13.1955 -13.0845 -14.5359 -11.0774 
-2.925 -2.4945 -4.8115 0 -4.5555 0 -13.5075 -1.756 -5.8875 0 -3.75 -5.1165 0 -3.641 -5.1165 0 -3.75 -4.088 0 -5.6815 -2.229 -4.559 0 -5.6815 -2.229 -3.85 0 -4.749 -4.088 -1.756 -4.7015 -4.088 0 
-3.7675 -8.343 -4.8115 -4.5555 -4.5555 -14.6321 -16.4791 -6.817 -5.8875 -3.75 -5.6645 -5.1165 -3.641 -5.5135 -5.1165 -3.75 -6.076 -4.088 -5.6815 -7.237501 -7.0165 -4.559 -5.6815 -7.237501 -6.2675 -3.85 -4.749 -7.27 -5.1965 -6.2 -7.440001 -4.088 
-10.061 -8.343 -6.7565 -4.5555 -20.8451 -16.4791 -21.5401 -6.817 -7.127501 -5.6645 -5.6645 -6.509501 -5.5135 -5.5135 -6.639 -6.076 -6.076 -9.892 -7.237501 -12.497 -7.0165 -10.335 -7.237501 -11.748 -6.2675 -8.531501 -7.27 -8.9655 -9.669001 -9.09 -7.440001 
-10.061 -10.3165 -6.7565 -20.8451 -22.6921 -21.5401 -21.5401 -8.034 -7.5735 -5.6645 -7.162001 -7.0425 -5.5135 -7.184 -8.472501 -6.076 -12.7402 -11.4732 -12.497 -12.497 -13.3841 -12.2066 -11.748 -11.748 -11.5202 -9.149 -8.9655 -13.6386 -12.7022 -9.09 
-12.0345 -10.3165 -24.6699 -22.6921 -27.7531 -21.5401 -22.7571 -8.058001 -7.5735 -7.162001 -7.187 -7.0425 -7.184 -9.128 -8.472501 -12.7402 -14.3214 -16.7327 -12.497 -18.8646 -15.2557 -16.7171 -11.748 -17.0007 -12.1377 -11.2233 -13.6386 -16.6718 -12.7022 
-2.925 -2.4945 0 -4.8115 0 -4.5555 0 -4.9715 -1.756 -5.938 0 -3.75 -12.16972 0 -3.641 -12.16972 0 -3.75 -4.088 0 -8.2185 -3.85 0 -4.749 -4.088 0 -4.7015 -4.088 0 
-3.7675 -2.4945 -4.8115 -4.8115 -4.5555 -4.5555 -4.9715 -6.16 -7.5735 -5.938 -3.75 -17.10712 -12.16972 -3.641 -16.99032 -12.16972 -3.75 -6.076 -4.088 -8.2185 -12.7683 -3.85 -4.749 -7.27 -4.088 -4.7015 -7.440001 -4.088 
-3.7675 -8.343 -4.8115 -6.7565 -4.5555 -8.7135 -6.16 -13.3673 -7.5735 -10.3165 -17.10712 -17.10712 -15.81072 -16.99032 -16.99032 -15.91972 -6.076 -6.076 -13.2405 -12.7683 -12.7683 -8.531501 -7.27 -7.27 -7.8585 -7.440001 -7.440001 
-10.061 -8.343 -6.7565 -6.7565 -8.7135 -10.058 -13.3673 -13.3673 -12.3508 -23.67362 -17.10712 -20.74812 -29.16004 -16.99032 -20.74032 -18.24572 -6.076 -16.0887 -17.7903 -12.7683 -17.4498 -9.149 -7.27 -9.0425 -7.9735 -7.440001 
-10.061 -10.3165 -6.7565 -9.316501 -10.058 -17.3097 -13.3673 -18.1446 -25.70792 -23.67362 -20.74812 -34.09744 -29.16004 -20.74032 -23.06632 -18.24572 -16.0887 -20.6385 -17.7903 -17.4498 -18.0673 -9.149 -9.0425 -9.1475 -7.9735 
-3.1495 -4.3895 0 -3.5455 -3.75 0 -3.5455 -3.641 0 -17.6285 0 -1.756 -5.8875 -3.75 -5.1165 0 -3.641 -5.1165 0 -3.75 -4.088 0 -8.2185 -3.85 0 -3.502 -3.75 -4.088 0 -3.502 -3.641 -4.088 0 
-8.3595 -4.3895 -3.5455 -5.228001 -3.75 -3.5455 -5.18 -3.641 -18.2509 -18.2509 -1.756 -6.817 -7.127501 -5.6645 -5.1165 -3.641 -5.5135 -5.1165 -3.75 -6.076 -4.088 -8.2185 -12.7683 -3.85 -3.502 -5.0795 -6.076 -4.088 -3.502 -5.219 -6.2015 -4.088 
-8.3595 -8.877501 -5.228001 -5.228001 -5.615 -5.18 -5.18 -23.0715 -18.2509 -20.0069 -6.817 -8.034 -7.5735 -5.6645 -6.509501 -5.5135 -5.5135 -6.639 -6.076 -6.076 -13.2405 -12.7683 -12.7683 -6.0425 -5.0795 -6.3495 -6.076 -6.417 -5.219 -6.492 -6.2015 
-12.8133 -10.7428 -5.228001 -6.295001 -6.327001 -5.18 -25.3817 -23.0715 -20.0069 -25.0679 -8.034 -8.058001 -7.5735 -7.162001 -7.0425 -5.5135 -7.184 -8.472501 -6.076 -16.0887 -17.7903 -12.7683 -14.9608 -6.4685 -6.3495 -6.3495 -6.900001 -6.81 -6.492 -6.492 
-14.6786 -10.7428 -6.295001 -6.351 -6.327001 -25.3817 -25.3817 -24.8275 -25.0679 -26.2849 -8.058001 -8.058001 -7.715 -7.187 -7.0425 -7.184 -9.128 -8.472501 -16.0887 -20.6385 -17.7903 -14.9608 -15.3868 -7.655 -6.3495 -6.9965 -7.034 -6.97 -6.492 
