-4.759 
n/a 
n/a 
n/a 
n/a 
-4.759 
n/a 
n/a 
n/a 
n/a 
-4.759 
n/a 
n/a 
n/a 
n/a 
-4.759 
n/a 
n/a 
n/a 
n/a 
-2.3615 -3.6825 -4.9335 -1.7695 -4.116 -2.3345 -5.3885 -12.16972 
-6.2875 -8.993 -7.129001 -5.044 -6.8295 -8.1 -18.52602 
-12.3468 -11.2669 -10.543 -8.263 -12.919 -21.92232 
-14.6207 -14.6809 -14.6198 -14.5245 -26.74132 
-18.0347 -18.7577 -20.8813 -28.34682 
-2.3615 -3.6825 -3.098 -2.674 -1.4985 -3.519 -4.732 -5.2725 -2.3345 -4.203 -1.934 -4.9335 0 
-6.2875 -7.0345 -5.2915 -3.998 -4.426001 -8.166 -10.316 -6.321 -5.841001 -5.738 -6.2435 -4.9335 
-9.272 -10.127 -6.521 -5.808 -9.777 -14.1764 -11.3645 -9.526 -6.637001 -8.555 -6.2435 
-12.5209 -11.3565 -8.379 -12.07 -16.0412 -15.2249 -14.5695 -10.3055 -9.5495 -8.555 
-13.7504 -13.2145 -15.0928 -18.3342 -17.0897 -18.4299 -15.349 -13.218 -9.5495 
-2.4265 -3.84 -5.3885 -3.1715 -2.264 -7.138 -3.7075 -4.732 -4.9335 -3.436 -2.925 -3.152 -5.2725 -2.3345 -4.1865 -3.4075 -6.343 
-7.1365 -10.6095 -8.3865 -5.864 -9.636001 -11.6081 -9.1745 -9.337501 -8.643001 -5.0005 -4.203 -6.7755 -6.321 -6.553 -6.714 -9.481501 
-14.3084 -13.6075 -12.0114 -13.9374 -14.3529 -17.0751 -13.9744 -13.2576 -10.7025 -6.2135 -7.556001 -7.3295 -10.176 -9.079 -13.8116 
-17.3064 -17.2324 -20.0848 -18.6543 -19.8199 -21.875 -17.8945 -15.3171 -11.9155 -9.323 -7.9915 -11.3839 -12.8522 -16.322 
-20.9313 -25.3058 -24.8017 -24.1213 -24.6198 -25.7951 -19.954 -16.5301 -15.025 -9.661 -12.0745 -14.0601 -20.0952 
-2.3615 -3.515 -3.074 -5.3885 -6.883 -3.766 -4.562 -2.7455 -4.3895 -1.934 -4.9335 -3.8735 -3.4075 -4.203 -4.353 -1.7695 -3.5725 -5.6055 0 
-5.596 -6.3275 -9.692 -13.2393 -11.6956 -9.646 -8.405001 -8.4205 -5.879 -6.2435 -9.3135 -6.8215 -6.197001 -7.6125 -4.7685 -6.053501 -9.271501 -5.6055 
-8.161 -13.6061 -17.6444 -18.0519 -17.5756 -13.6766 -14.4978 -10.6215 -9.441501 -10.3285 -12.5717 -9.1055 -10.7495 -7.691 -9.903501 -12.5851 -9.271501 
-15.5976 -21.5585 -22.457 -23.9319 -21.6062 -19.7694 -16.6988 -14.7008 -13.7563 -13.5867 -14.8557 -14.113 -10.828 -13.5458 -16.7443 -12.5851 
-23.55 -26.3711 -28.337 -27.9625 -27.699 -21.9704 -20.7781 -19.0156 -17.0145 -15.8707 -19.8632 -14.1915 -16.6828 -20.3866 -16.7443 
