-4.759 
n/a 
n/a 
n/a 
n/a 
-4.759 
n/a 
n/a 
n/a 
n/a 
-4.759 
n/a 
n/a 
n/a 
n/a 
-4.759 
n/a 
n/a 
n/a 
n/a 
-3.488 -5.487 -2.8645 -3.1125 -12.16972 -2.3335 -7.758501 -7.1625 0 -1.8085 -5.2555 -4.0455 -3.115 -4.565 -2.9705 -4.865 -2.5045 -4.021 -2.5045 -2.4265 -5.683 0 -2.186 -3.557 -3.9615 -3.5455 -4.933 0 
-8.836 -8.13 -3.5345 -16.87322 -14.50322 -10.8415 -9.4545 -7.1625 -1.8085 -6.922501 -7.370501 -6.8315 -7.66 -7.437 -8.1405 -6.842 -4.668 -4.6625 -4.228 -7.521501 -5.683 -2.186 -5.0815 -6.427 -6.3945 -9.021 -4.933 
-10.674 -8.5725 -17.67042 -19.20672 -23.01122 -12.5375 -9.4545 -9.3695 -6.922501 -7.948501 -10.1425 -11.7949 -9.56 -12.9866 -10.0545 -8.8765 -4.676 -5.780001 -9.098001 -7.521501 -8.0295 -5.0815 -7.9135 -9.241501 -12.5064 -9.021 
-10.9965 -22.73852 -20.00392 -27.71472 -24.70722 -12.5375 -11.8295 -14.5301 -7.948501 -11.0521 -15.4677 -13.6949 -15.3496 -14.9006 -12.2612 -8.896001 -5.787 -10.459 -9.098001 -10.2485 -10.4945 -7.9135 -11.12 -15.5454 -12.5064 
-25.83962 -25.45962 -28.51192 -29.41072 -24.70722 -14.9125 -16.9901 -15.5561 -11.0521 -16.3773 -17.3677 -19.4845 -17.2636 -17.1073 -12.2807 -9.526001 -10.459 -10.459 -11.873 -12.7135 -14.2271 -11.12 -17.4239 -15.5454 
-7.758501 -7.839 -4.055 -3.557 -1.934 -3.641 -7.0195 -2.5045 -3.488 -5.487 -4.834 -1.4985 -3.898 0 
-16.2737 -13.7312 -7.750501 -4.4175 -5.245 -11.8401 -9.679001 -5.961 -8.836 -11.6885 -5.57 -5.0465 -3.898 
-22.1659 -17.4267 -8.097501 -7.9085 -14.6479 -14.4996 -13.5041 -11.2195 -15.0673 -12.9783 -9.3925 -5.0465 
-25.8614 -17.7737 -11.9247 -17.5442 -17.3074 -18.3247 -20.4756 -18.9732 -15.7907 -16.932 -9.3925 
-26.2084 -21.6009 -21.5604 -20.2037 -21.1325 -25.2962 -26.5163 -19.5972 -19.7444 -16.932 
-1.934 -3.609 -3.0605 -2.4945 -4.209 -3.034 -3.1435 -4.2215 -2.186 -5.2555 -4.0455 -3.115 -6.42 -3.152 -3.557 -2.5045 -4.933 0 
-6.1475 -5.4445 -6.5675 -7.472001 -6.506001 -5.8415 -8.4425 -7.065001 -7.972501 -7.370501 -6.8315 -9.848501 -9.034 -5.1785 -4.962 -8.5965 -4.933 
-8.259501 -9.690001 -11.7714 -10.696 -9.207001 -9.381001 -10.4425 -13.1089 -10.7495 -10.1425 -13.9834 -12.5125 -11.1259 -6.922 -11.574 -8.5965 
-13.267 -15.1651 -14.9954 -13.397 -13.0037 -10.751 -16.4864 -15.8859 -13.5215 -17.6562 -16.6474 -14.6044 -12.8694 -13.59 -11.574 
-18.7421 -18.3891 -17.6964 -17.1937 -14.3737 -16.7949 -19.2634 -18.6579 -21.0352 -20.3202 -18.7393 -16.3479 -19.5374 -13.59 
-3.488 -3.0605 0 -2.4265 -2.7415 -4.3215 -2.3335 -1.8085 -4.055 0 -7.758501 -7.1625 0 -2.7415 -3.557 -2.9705 -4.865 -4.302 -3.819 -2.4265 -5.683 0 -2.9705 -2.186 -3.115 -1.8085 -5.2555 -4.0455 -2.7415 -3.557 -1.934 -3.5455 -7.509 
-5.4835 -3.0605 -2.4265 -3.681 -5.758 -5.1075 -4.155 -5.689 -4.055 -7.758501 -9.4545 -7.1625 -2.7415 -5.094501 -6.781 -8.1405 -8.4235 -7.2715 -5.5385 -7.521501 -5.683 -2.9705 -3.89 -4.989 -4.2095 -6.922501 -7.370501 -6.5505 -5.094501 -4.4175 -4.8495 -12.5391 
-5.4835 -6.413 -3.681 -6.287 -6.626 -6.7635 -7.486 -5.689 -12.8667 -9.4545 -9.4545 -9.814501 -5.094501 -7.917001 -12.3484 -12.1342 -10.76 -8.8465 -9.8675 -7.521501 -7.989 -3.89 -6.482 -5.5935 -8.408001 -7.948501 -9.7605 -8.715501 -5.837501 -7.233 -14.9413 
-9.126 -7.4715 -6.287 -6.6445 -8.0135 -10.647 -7.486 -15.1763 -14.5627 -9.4545 -12.2745 -12.1675 -7.917001 -13.6336 -16.3421 -14.4707 -12.335 -13.2673 -9.8675 -10.1385 -9.693 -6.482 -6.677001 -9.977501 -9.529 -10.442 -12.0239 -9.349501 -9.012001 -17.7468 
-9.8745 -9.519001 -6.6445 -8.0225 -11.981 -10.647 -17.5665 -16.8723 -14.5627 -12.2745 -14.6275 -14.99 -13.6336 -17.6273 -18.6786 -16.0457 -16.7558 -13.2673 -12.6029 -12.1015 -12.3036 -6.677001 -11.8164 -11.0985 -12.5493 -12.7054 -12.6579 -12.578 -19.5384 
