-4.759 
n/a 
n/a 
n/a 
n/a 
-4.759 
n/a 
n/a 
n/a 
n/a 
-4.759 
n/a 
n/a 
n/a 
n/a 
-4.759 
n/a 
n/a 
n/a 
n/a 
-4.176 -3.515 -3.689 0 -1.756 -5.886 -4.2765 -3.515 0 
-7.293 -8.0865 -3.689 -1.756 -7.182 -11.1893 -9.033001 -3.515 
-12.3279 -8.0865 -5.643 -7.182 -12.8579 -15.9458 -9.033001 
-12.3279 -10.3475 -12.0508 -12.8579 -17.6144 -15.9458 
-14.5889 -16.8689 -17.7267 -17.6144 -17.6144 
-2.4265 -3.669 -2.0935 -7.35 -3.689 -4.257 
-7.186501 -4.736 -9.448 -11.1415 -9.095 
-8.6575 -13.0499 -13.2565 -16.5475 
-17.2422 -16.8584 -18.6625 
-21.0507 -22.2644 
-3.882 -1.4985 -4.1635 -2.0935 -4.3805 -1.934 -4.257 -3.9665 -3.882 -7.968 -1.7565 -4.795 -3.152 -4.3215 0 
-5.3145 -5.344501 -4.943501 -6.6825 -5.021 -6.6075 -7.689 -8.015 -12.6872 -9.959001 -6.29 -6.4475 -6.2565 -4.3215 
-9.1435 -5.604 -9.097 -7.413001 -9.617001 -9.788501 -12.2803 -17.1274 -14.6782 -14.5497 -8.330501 -10.0815 -6.2565 
-9.3485 -9.918 -9.288 -12.1844 -12.9212 -14.5572 -21.3927 -19.1184 -19.2689 -16.5902 -12.1141 -10.0815 
-13.8307 -10.2475 -14.491 -15.4886 -17.6899 -23.6696 -23.3837 -23.7091 -21.3094 -20.3738 -12.1141 
-3.251 -5.2825 -3.982 -1.934 -4.617 -1.756 -4.893 -1.7565 -4.0415 -4.795 0 
-7.838 -9.874001 -5.9555 -5.764 -6.803 -6.4675 -5.765 -5.4955 -7.2935 -4.795 
-12.8857 -12.3483 -10.543 -7.918 -12.4135 -7.191 -8.745001 -8.476001 -7.2935 
-15.36 -16.9358 -12.697 -14.0827 -13.137 -10.2805 -10.041 -8.476001 
-19.9475 -19.0898 -18.8617 -14.8062 -16.2265 -11.7291 -10.041 
