-4.759 
n/a 
n/a 
n/a 
n/a 
-4.759 
n/a 
n/a 
n/a 
n/a 
-4.759 
n/a 
n/a 
n/a 
n/a 
-4.759 
n/a 
n/a 
n/a 
n/a 
-2.3345 -2.3615 -4.983 -2.7295 -3.8255 -5.782 -5.39 -1.756 -4.7935 0 -2.9385 0 
-4.499 -8.963 -7.626 -6.847 -10.4265 -11.0145 -6.3675 -6.102 -4.7935 -2.9385 -2.9385 
-11.6039 -11.927 -11.9945 -13.929 -15.9876 -11.992 -11.4187 -6.102 -5.538001 -2.9385 
-14.5679 -16.2955 -19.0765 -19.4901 -16.9651 -17.0432 -11.4187 -6.677 -5.538001 
-18.9364 -23.3775 -24.6376 -20.4676 -22.0163 -17.0432 -11.9937 -6.677 
-2.645 -3.2295 -2.3615 -4.983 -3.5185 -4.537 -3.9515 -3.115 -6.181 -4.237 0 -1.756 -2.4265 -4.174 -3.301 -3.9515 -3.115 -4.6205 -4.7935 -2.9385 0 -4.7935 -2.9385 0 
-6.2145 -5.5035 -8.963 -8.953001 -8.0885 -7.56 -6.764501 -8.995001 -6.959 -4.237 -1.756 -3.949 -5.370501 -6.9325 -7.252501 -6.764501 -9.168501 -9.6225 -5.538001 -2.9385 -4.7935 -5.538001 -2.9385 
-8.5725 -12.2912 -13.254 -13.6646 -11.4083 -10.143 -12.8729 -9.863501 -6.959 -5.4575 -3.949 -6.5315 -8.072001 -10.304 -9.885 -13.0464 -14.2097 -9.73 -5.538001 -6.839001 -5.538001 -5.538001 
-15.4906 -16.5822 -17.9656 -16.9844 -13.9913 -16.2514 -13.7414 -9.863501 -8.739 -7.847 -6.5315 -9.1195 -11.5329 -13.1059 -16.2297 -18.0876 -14.3172 -9.73 -6.9255 -7.5705 -5.538001 
-19.7816 -21.2938 -21.2854 -19.5674 -20.0997 -17.1199 -13.7414 -11.6435 -11.6059 -10.5789 -9.1195 -12.7284 -14.3348 -19.4506 -21.2709 -18.1951 -14.3172 -11.3129 -7.660501 -7.5705 
-3.1495 -4.983 -3.074 -6.5645 -2.0935 -4.7855 -1.7695 -3.0465 -4.7935 -2.9385 -1.756 -4.301 -2.5195 -4.05 -2.4945 -3.1435 -3.301 -3.89 
-7.6815 -7.944 -9.106 -7.671 -6.1925 -6.378 -3.683 -7.928501 -5.538001 -5.041 -5.6175 -7.0895 -6.74 -6.441 -6.248 -6.1445 -5.219 
-10.001 -14.305 -9.752501 -12.5078 -7.0595 -8.477 -8.326501 -8.184001 -6.705501 -10.0645 -8.401001 -10.204 -9.042 -10.199 -9.097 -9.1715 
-16.362 -14.9515 -14.6765 -13.3748 -9.0245 -13.3123 -8.582001 -9.712001 -12.7086 -12.848 -10.361 -12.7652 -13.0002 -13.048 -12.259 
-17.0085 -19.8755 -15.5435 -15.3398 -13.8868 -13.5678 -9.837501 -15.9195 -15.4921 -14.808 -13.1068 -16.7234 -15.8492 -16.21 
-1.934 -4.7855 0 -3.1495 -4.983 -4.0195 -4.869 -3.9515 -3.115 -4.237 -5.9795 -1.756 -3.301 -3.9075 -3.115 -4.2085 -1.7565 -4.7935 -2.9385 0 
-5.625 -4.7855 -3.1495 -7.6815 -8.327001 -7.062 -5.662001 -6.764501 -7.473001 -9.218 -7.399 -5.1165 -7.3625 -6.8485 -8.217501 -4.991 -5.818501 -5.538001 -2.9385 
-5.625 -7.389 -7.6815 -10.013 -11.7823 -7.586501 -8.919001 -9.755001 -12.7644 -10.661 -11.3301 -8.396501 -9.5295 -12.4312 -8.837001 -9.571001 -6.396501 -5.538001 
-7.723001 -12.3348 -10.013 -13.5531 -12.3068 -10.1855 -11.9359 -15.2488 -14.2074 -14.5921 -14.6101 -10.7495 -15.325 -13.0507 -13.8288 -9.979501 -6.396501 
-13.0122 -14.6663 -13.5531 -14.0776 -14.9058 -13.3874 -17.4297 -16.6918 -18.1385 -17.8721 -16.9631 -16.545 -15.9445 -18.0425 -14.2373 -9.979501 
