-4.759 
n/a 
n/a 
n/a 
n/a 
-4.759 
n/a 
n/a 
n/a 
n/a 
-4.759 
n/a 
n/a 
n/a 
n/a 
-4.759 
n/a 
n/a 
n/a 
n/a 
-1.934 -5.1845 -3.6885 -1.7695 -3.5185 -1.8085 -3.5855 -3.3875 -2.489 -4.4155 -7.2185 -12.16972 
-6.564 -7.323501 -5.663 -4.134 -4.072 -5.6905 -7.285 -3.7975 -6.606501 -12.8278 -19.95562 
-8.119 -9.609 -7.620501 -4.595 -8.011001 -9.212 -7.7505 -7.8795 -15.7504 -25.56492 
-10.5225 -11.6417 -8.14 -8.081 -12.2093 -9.6215 -12.1239 -17.1994 -28.48752 
-12.5552 -12.1612 -11.9768 -12.4925 -12.6188 -14.1419 -21.4438 -29.93652 
-5.1845 -4.2665 -3.9355 -2.186 -3.383 -3.699 -8.0835 -3.5855 -1.934 -5.1845 0 
-10.907 -8.232 -6.272 -4.438 -5.014 -11.1165 -12.1022 -5.265 -6.564 -5.1845 
-14.8725 -10.411 -8.479501 -5.451 -12.8961 -15.1352 -13.7817 -10.2435 -6.564 
-17.0515 -12.6185 -9.3015 -13.9857 -16.9148 -16.8147 -18.7602 -10.2435 
-19.259 -13.4405 -17.7642 -18.0044 -18.5943 -21.7932 -18.7602 
-1.7695 -3.5185 -3.5855 -1.934 -5.1845 -3.6885 -3.594 -8.360001 -2.186 -3.699 
-4.134 -8.0635 -5.265 -6.564 -7.323501 -7.280001 -10.598 -10.0285 -4.636 
-8.47 -10.6605 -10.2435 -8.119 -10.119 -14.9512 -12.2665 -12.7065 
-11.459 -15.639 -11.7985 -11.4757 -18.8264 -16.6197 -14.9445 
-16.4375 -17.194 -15.1552 -20.1831 -20.4949 -19.2977 
-3.5855 -4.3225 -1.934 -5.1845 -3.6885 -2.186 -3.699 0 
-7.1875 -6.7555 -6.564 -7.323501 -5.4995 -4.636 -3.699 
-9.903501 -11.9319 -8.119 -9.148001 -7.956 -4.636 
-15.1459 -13.4869 -10.4265 -11.8401 -7.956 
-16.7009 -15.7944 -13.1186 -11.8401 
