-4.759 
n/a 
n/a 
n/a 
n/a 
-4.759 
n/a 
n/a 
n/a 
n/a 
-4.759 
n/a 
n/a 
n/a 
n/a 
-4.759 
n/a 
n/a 
n/a 
n/a 
-2.3345 -7.4985 -7.0625 0 -7.3985 -2.229 -6.318501 -6.761 -5.709 -2.7415 -4.4945 -1.934 -2.3615 -3.193 -3.098 0 
-9.4975 -8.3585 -7.0625 -7.3985 -9.509001 -9.344501 -13.4585 -13.2626 -8.1195 -6.2565 -5.8805 -3.539 -5.0835 -6.353 -3.098 
-10.4917 -8.3585 -15.1054 -9.509001 -15.7802 -16.2657 -20.9019 -15.6731 -11.8715 -7.1525 -8.1155 -6.2505 -7.753 -6.353 
-10.4917 -16.7486 -17.2159 -15.7802 -23.9811 -23.3641 -23.3124 -19.4251 -12.7675 -9.620001 -11.1884 -10.3745 -7.753 
-18.8818 -18.8591 -23.4871 -23.9811 -30.6693 -25.7746 -27.0644 -20.3211 -15.235 -12.6781 -15.3124 -10.3745 
-2.5045 -3.543 -7.4985 -7.0625 -5.303 -7.3985 -2.8645 -4.2225 -3.091 -10.011 -5.709 -2.264 -2.3615 -3.193 -2.5045 -3.3235 0 
-5.323 -11.0145 -8.3585 -10.4345 -10.143 -10.2285 -5.6575 -6.128 -14.3878 -15.9352 -7.6585 -3.8255 -5.0835 -5.5725 -3.7105 -3.3235 
-13.0677 -11.8745 -12.0777 -15.7737 -12.973 -13.0215 -7.2505 -18.365 -20.312 -17.8847 -9.2925 -5.6965 -7.1675 -6.6945 -3.7105 
-13.9277 -15.5937 -17.4169 -18.6037 -15.766 -14.6145 -19.6193 -24.2892 -22.2615 -19.5187 -9.504001 -8.0775 -8.4385 -6.6945 
-17.6469 -20.9329 -20.2469 -21.3967 -17.359 -26.9833 -25.5435 -26.2387 -23.8955 -19.7302 -12.0338 -8.934 -8.4385 
-2.3345 -8.422 -7.9855 0 -7.3985 -2.229 -3.1255 -3.4795 -5.709 -3.498 -1.934 -2.3335 -3.193 
-11.0871 -9.874 -7.9855 -7.3985 -9.509001 -6.047 -5.745501 -8.1955 -10.1345 -5.52 -4.359 -5.214 
-12.5391 -9.874 -15.7846 -9.509001 -13.3522 -8.830501 -9.884501 -13.1742 -12.1565 -8.0895 -6.748001 
-12.5391 -17.9023 -17.8951 -13.3522 -16.1357 -13.1413 -15.1344 -15.1962 -14.726 -10.5745 
-20.5674 -20.0128 -21.7383 -16.1357 -20.4465 -18.3912 -17.1564 -17.7657 -17.211 
-1.934 -2.3335 -3.193 -2.5045 -3.543 -6.5825 -7.9855 -7.3985 -4.2225 -3.1255 -3.4795 -8.632 -8.3915 0 
-4.359 -5.214 -5.5725 -5.323 -11.4113 -9.9305 -15.7846 -12.184 -7.612 -5.745501 -13.1583 -17.4279 -8.3915 
-6.748001 -7.0755 -8.336 -13.4645 -14.7593 -17.79 -20.5701 -15.5735 -9.342001 -15.9233 -21.9542 -17.4279 
-8.518001 -9.8605 -16.6515 -16.8125 -22.6188 -22.5755 -23.9596 -17.3035 -20.2164 -24.7192 -21.9542 
-11.7078 -18.278 -19.9995 -24.672 -27.4043 -25.965 -25.6896 -28.1779 -29.0123 -24.7192 
