-4.759 
n/a 
n/a 
n/a 
n/a 
-4.759 
n/a 
n/a 
n/a 
n/a 
-4.759 
n/a 
n/a 
n/a 
n/a 
-4.759 
n/a 
n/a 
n/a 
n/a 
-3.5315 -3.0575 0 -6.6825 -6.322001 0 -5.1845 -8.779 0 -3.002 0 
-5.4975 -3.0575 -6.6825 -8.9975 -6.322001 -5.1845 -15.2579 -8.779 -3.002 -3.002 
-5.4975 -9.8365 -8.9975 -8.9975 -12.3909 -15.2579 -15.2579 -12.055 -3.002 
-13.2593 -12.2967 -8.9975 -15.268 -22.4643 -15.2579 -18.5339 -12.055 
-15.7195 -12.2967 -15.268 -25.3414 -22.4643 -18.5339 -18.5339 
-3.5315 -13.0905 -6.322001 0 -4.2135 -5.1845 -4.8775 0 -3.0015 0 
-16.0765 -20.0477 -6.322001 -4.2135 -9.5755 -9.0415 -4.8775 -3.0015 -3.0015 
-23.4705 -20.0477 -9.832001 -9.5755 -13.5331 -9.0415 -8.459 -3.0015 
-23.4705 -23.5577 -15.2494 -13.5331 -13.5331 -12.7228 -8.459 
-26.9805 -28.9751 -19.207 -13.5331 -17.2144 -12.7228 
-3.5315 -3.0575 -8.9755 -8.2355 -4.2135 -5.1845 -4.266 
-5.4975 -12.579 -17.599 -12.7242 -9.5755 -10.1305 
-16.0018 -21.2025 -22.0877 -18.0862 -14.6221 
-24.6253 -25.6912 -27.4497 -23.1328 
-29.114 -31.0532 -32.4963 
-3.5315 -9.740001 -6.998 0 -4.2135 -5.1845 -4.245 0 -3.0015 0 
-12.2765 -17.8305 -6.998 -4.2135 -9.5755 -7.991 -4.245 -3.0015 -3.0015 
-21.3985 -17.9757 -11.9343 -9.5755 -12.4826 -7.991 -7.7275 -3.0015 
-21.3985 -22.912 -17.2963 -12.4826 -12.4826 -10.66 -7.7275 
-26.3348 -28.274 -20.2034 -12.4826 -15.1516 -10.66 
