-4.759 
n/a 
n/a 
n/a 
n/a 
-4.759 
n/a 
n/a 
n/a 
n/a 
-4.759 
n/a 
n/a 
n/a 
n/a 
-4.759 
n/a 
n/a 
n/a 
n/a 
-5.0715 -4.3665 -1.756 -4.1495 -3.1435 -3.7285 -3.962 
-10.1155 -5.686 -5.818 -7.706501 -6.9595 -5.347 
-11.435 -9.570001 -9.413501 -11.9725 -9.4855 
-15.319 -13.4675 -13.8747 -14.4985 
-19.2165 -17.9287 -16.4007 
-4.3055 -4.3665 -1.756 -4.1495 -4.9045 -2.489 -6.12 0 
-9.737 -5.686 -5.818 -9.211 -6.3395 -6.862 -6.12 
-9.955501 -9.570001 -11.3267 -10.3825 -11.1957 -6.862 
-14.3059 -15.3807 -12.4982 -15.2387 -11.1957 
-20.1166 -16.5522 -17.3544 -15.2387 
-2.3615 -5.2915 -2.742 -2.489 -4.06 -3.0415 -2.3335 -1.4985 -4.3775 -1.756 -4.1495 -2.742 -2.6165 -2.489 -4.5845 -1.7695 -4.2725 0 
-7.2495 -7.7545 -3.301 -5.4475 -6.9475 -4.132 -3.3515 -5.5605 -6.039 -5.818 -6.935 -3.995 -3.82 -5.7965 -5.6845 -6.951001 -4.2725 
-9.0745 -8.111 -6.2105 -7.456 -7.394501 -4.91 -7.678 -7.391001 -11.1816 -8.619 -8.074 -4.35 -6.3675 -6.4 -9.935 -6.951001 
-9.577 -10.006 -8.921 -7.7415 -8.059501 -8.898001 -9.848001 -12.447 -13.9826 -10.0215 -8.922001 -6.703 -6.948 -11.2551 -9.935 
-11.536 -12.7245 -9.2725 -8.4005 -12.2821 -11.6428 -14.9882 -15.248 -15.3851 -10.6785 -10.543 -7.0455 -12.8539 -11.2551 
-2.3615 -4.8685 -5.0715 -4.3665 -1.756 -3.8385 -2.6165 -4.5845 -2.0935 -4.2725 0 
-7.599501 -11.2618 -10.1155 -5.686 -5.517 -6.9005 -5.9895 -6.639501 -6.817 -4.2725 
-14.3286 -16.3058 -11.435 -8.588501 -8.969 -9.7605 -7.748 -12.1006 -6.817 
-19.3726 -17.6253 -14.3375 -12.1517 -12.139 -11.7082 -13.7017 -12.1006 
-20.6921 -20.5278 -17.9007 -15.3217 -14.0867 -17.6619 -13.7017 
