-4.759 
n/a 
n/a 
n/a 
n/a 
-4.759 
n/a 
n/a 
n/a 
n/a 
-4.759 
n/a 
n/a 
n/a 
n/a 
-4.759 
n/a 
n/a 
n/a 
n/a 
-1.934 -3.9655 -3.852 -4.999 0 -8.437 0 0 
-5.6155 -6.291 -8.271 -4.999 -8.437 -8.437 0 
-8.197001 -10.9856 -8.271 -14.9072 -8.437 -8.437 
-12.9886 -10.9856 -19.0726 -14.9072 -8.437 
-12.9886 -21.7872 -19.0726 -14.9072 
-1.934 -3.9655 -3.852 -4.654 -4.2725 0 -3.3255 -4.243 0 
-5.6155 -6.291 -9.394501 -8.932501 -4.2725 -3.3255 -7.2495 -4.243 
-8.197001 -12.1091 -13.8454 -8.932501 -7.2845 -7.2495 -7.2495 
-14.1121 -16.56 -13.8454 -12.1413 -12.0429 -7.2495 
-18.563 -16.56 -17.0542 -16.8997 -12.0429 
-4.999 -1.934 -3.9655 0 -4.6215 -4.243 0 
-7.4325 -5.6155 -3.9655 -4.6215 -8.144 -4.243 
-10.2085 -5.6155 -8.9835 -8.144 -8.144 
-10.2085 -10.6215 -12.889 -8.144 
-15.8649 -14.527 -12.889 
-1.934 -3.9655 -3.5065 -2.186 -12.16972 0 
-5.6155 -7.9805 -5.196 -15.56612 -12.16972 
-9.752001 -9.3395 -19.03972 -15.56612 
-11.8444 -23.72202 -19.03972 
-26.22692 -23.72202 
