-4.759 
n/a 
n/a 
n/a 
n/a 
-4.759 
n/a 
n/a 
n/a 
n/a 
-4.759 
n/a 
n/a 
n/a 
n/a 
-4.759 
n/a 
n/a 
n/a 
n/a 
-5.0285 -5.3885 -4.098 -4.347 -5.032 -5.727 -4.4545 
-11.5428 -9.5425 -8.468 -7.823 -9.09 -9.2475 
-15.6968 -14.1017 -12.0948 -10.4725 -13.6845 
-20.256 -17.7285 -14.8843 -17.5426 
-23.8828 -20.518 -21.8144 
-1.934 -5.3885 -3.6055 -3.158 -5.943501 -5.032 -5.727 -4.4545 -6.1825 0 
-6.4035 -9.2965 -5.061 -8.9095 -10.533 -9.09 -9.2475 -8.067 -6.1825 
-9.935 -10.191 -10.019 -13.6644 -13.623 -13.6845 -14.5794 -8.067 
-10.7215 -15.149 -14.9553 -16.7544 -20.5531 -19.532 -14.5794 
-15.6795 -20.0853 -18.0453 -23.6845 -25.033 -19.532 
-8.553 -10.611 -4.4545 -2.742 -4.017 -1.934 -1.4985 -3.2875 0 
-19.492 -15.0925 -6.939 -5.845 -5.358 -2.6125 -4.127 -3.2875 
-24.2025 -18.4444 -8.090501 -6.877501 -6.174 -4.9865 -4.127 
-27.5544 -19.5959 -8.644501 -7.737 -9.015 -4.9865 
-28.7059 -20.1499 -8.746501 -10.9742 -9.015 
-1.934 -1.8085 -3.158 -5.032 -4.144 -4.4545 -4.359 -1.934 -5.3885 
-3.2685 -4.406 -8.216001 -7.9455 -8.1675 -7.08 -5.8145 -6.4035 
-5.7995 -10.2755 -11.4857 -12.21 -10.6215 -7.946001 -10.019 
-11.7816 -13.5452 -15.7502 -14.664 -11.4875 -12.5347 
-15.0513 -17.8097 -18.2042 -15.53 -16.0762 
