-4.759 
n/a 
n/a 
n/a 
n/a 
-4.759 
n/a 
n/a 
n/a 
n/a 
-4.759 
n/a 
n/a 
n/a 
n/a 
-4.759 
n/a 
n/a 
n/a 
n/a 
-3.6065 0 -4.841 -4.297 -2.4945 -3.7855 0 
-3.6065 -4.841 -9.1085 -6.078001 -5.125 -3.7855 
-8.629 -9.1085 -10.622 -8.4825 -5.125 
-13.2139 -10.622 -13.0265 -8.4825 
-14.7274 -13.0265 -13.0265 
-3.6065 0 -4.1545 -4.297 -2.4945 -3.7855 
-3.6065 -4.1545 -8.0315 -6.078001 -5.125 
-8 -8.0315 -9.757 -8.4825 
-12.0684 -9.757 -12.2285 
-13.7939 -12.2285 
-3.6845 -1.4985 -3.6065 0 -4.841 -3.794 
-4.8155 -4.8665 -3.6065 -4.841 -9.2995 
-8.5795 -4.8665 -8.629 -9.2995 
-8.5795 -10.1855 -13.4049 
-14.0237 -14.9614 
-3.794 -4.174 -2.5045 -3.6065 -1.756 -4.841 
-8.9715 -7.283501 -6.192 -5.6155 -6.0585 
-12.248 -11.4598 -7.9375 -8.9405 
-16.4243 -13.2053 -11.4133 
-18.1698 -16.6811 
