-4.759 
n/a 
n/a 
n/a 
n/a 
-4.759 
n/a 
n/a 
n/a 
n/a 
-4.759 
n/a 
n/a 
n/a 
n/a 
-4.759 
n/a 
n/a 
n/a 
n/a 
-1.4985 -4.7505 -2.3335 -4.9395 -1.7695 -4.2085 -3.5435 
-5.934 -6.6495 -6.2615 -5.127501 -6.1575 -6.275001 
-7.517 -8.776 -6.313 -9.8675 -8.3595 
-9.799001 -8.7845 -11.4118 -12.0695 
-9.815001 -14.2869 -13.6138 
-5.204 -1.7565 -3.691 -1.756 -2.985 -3.9655 -5.1525 
-6.245501 -4.930501 -5.176 -4.2025 -6.0915 -8.259001 
-7.428 -6.218501 -7.896 -7.1995 -11.0742 
-8.2965 -8.737 -11.0474 -12.4938 
-10.4585 -11.998 -16.3417 
-3.691 -3.1715 -3.84 -1.756 -4.5435 
-7.384501 -6.844501 -4.8045 -5.9255 
-12.0003 -7.5985 -10.543 
-12.7543 -13.7948 
-18.9506 
-3.691 -3.1715 -1.756 -3.683 -4.167 0 
-7.384501 -4.562 -5.0965 -9.6105 -4.167 
-9.296 -8.214001 -11.6916 -9.6105 
-13.5136 -15.4381 -11.6916 
-20.7377 -15.4381 
