-4.759 
n/a 
n/a 
n/a 
n/a 
-4.759 
n/a 
n/a 
n/a 
n/a 
-4.759 
n/a 
n/a 
n/a 
n/a 
-4.759 
n/a 
n/a 
n/a 
n/a 
-3.691 -2.186 -4.175 -1.7695 -2.674 -3.301 -4.53 -4.335 -7.239501 
-5.832 -5.6335 -5.779 -3.8225 -5.6235 -7.883 -7.3145 -12.5437 
-9.0935 -7.398001 -7.7335 -6.529 -9.231 -9.285501 -16 
-11.267 -9.172001 -10.199 -9.961 -10.9887 -18.2546 
-13.041 -11.7547 -13.9772 -11.7095 -19.9578 
-3.691 -5.2955 -1.8085 -4.0205 -4.936 -2.356 -3.502 -3.676 0 
-9.803 -7.0235 -4.688 -7.712 -6.177001 -6.273001 -4.945 -3.676 
-11.8474 -9.627001 -7.909 -8.4145 -9.927501 -8.014501 -4.945 
-14.4509 -12.8688 -8.5345 -12.298 -12.1172 -8.014501 
-17.6927 -13.4943 -12.4466 -14.4877 -12.1172 
-3.691 -3.502 -3.676 -4.1485 -4.668 -4.177 0 
-6.79 -4.945 -7.552 -10.1945 -10.186 -4.177 
-7.214001 -8.415501 -14.001 -15.7125 -10.186 
-11.8293 -15.4801 -19.519 -15.7125 
-18.8939 -20.9981 -19.519 
-3.691 -3.502 -3.676 -2.229 -3.465 -1.7695 -4.668 -4.177 0 
-6.79 -4.945 -4.593 -6.929 -3.665 -6.690001 -10.186 -4.177 
-7.214001 -7.045 -10.0815 -7.3125 -8.328501 -12.7082 -10.186 
-10.4588 -13.1671 -10.249 -12.288 -14.9279 -12.7082 
-16.5809 -13.3346 -15.7455 -18.8874 -14.9279 
