-4.759 
n/a 
n/a 
n/a 
n/a 
-4.759 
n/a 
n/a 
n/a 
n/a 
-4.759 
n/a 
n/a 
n/a 
n/a 
-4.759 
n/a 
n/a 
n/a 
n/a 
-7.1765 -6.222 -2.186 -1.4985 -3.6765 -3.0695 -5.3075 -4.278 -1.756 -4.157 -3.1435 -3.6045 -1.934 -2.3615 -4.3305 -1.756 -4.0215 -2.7765 -3.8115 -1.7695 -2.9645 -1.756 -3.5185 -3.1435 -3.5205 -3.6885 
-14.0771 -8.593 -3.339 -4.501 -4.7945 -6.263 -9.869501 -6.202001 -5.4425 -6.2505 -6.2975 -5.525 -3.539 -6.0055 -5.998 -5.3795 -5.683 -7.680501 -3.8325 -3.812 -4.5135 -5.1175 -6.86 -4.573 -6.3485 
-16.4481 -9.956 -6.3355 -5.3435 -8.0985 -10.4345 -11.7935 -11.0523 -7.49 -9.6705 -7.943 -7.2795 -7.887 -7.1625 -8.8605 -6.9005 -11.3984 -7.714001 -5.4545 -5.441 -7.3655 -8.263 -7.1005 -7.355 
-17.8111 -12.9525 -6.8495 -8.172501 -12.4832 -12.3585 -16.6438 -13.0998 -10.7175 -11.4032 -9.501 -11.9245 -9.1175 -9.8195 -10.6879 -12.9623 -11.4319 -9.718 -7.744 -8.215 -11.0682 -8.508 -9.293 
-20.8076 -13.4665 -9.743501 -12.593 -14.4072 -17.2088 -18.6913 -16.3273 -12.4502 -12.9612 -14.3028 -13.155 -11.8405 -11.7617 -16.7497 -12.9958 -13.4359 -11.9603 -9.9125 -12.2779 -11.3132 -10.8277 
-8.0585 -4.712 -3.5185 -1.4985 -4.571 -3.299 -3.6045 -1.7565 -4.2915 -3.737 0 
-13.1699 -8.1945 -4.9765 -6.1085 -8.7005 -4.5695 -4.455 -5.967 -7.957 -3.737 
-16.6524 -9.435 -9.894501 -11.4918 -9.842501 -6.272 -10.051 -9.612 -7.957 
-17.8929 -14.5852 -15.3036 -12.6338 -12.215 -12.038 -13.794 -9.612 
-23.0431 -19.9943 -16.4456 -15.0063 -17.981 -15.781 -13.794 
-3.6055 -4.8775 -2.7765 -6.085001 -2.9995 -4.0245 -5.0235 -1.934 -3.091 -3.5205 -8.410501 -9.875 
-8.16 -8.0015 -7.902 -7.371 -6.7535 -8.7335 -6.690001 -4.2105 -4.613 -12.1365 -20.4919 
-10.151 -13.2456 -9.655001 -12.0656 -12.3639 -10.3475 -9.185501 -5.6265 -11.8665 -21.8576 
-15.3951 -14.9986 -14.3776 -17.676 -13.9779 -12.9678 -10.533 -12.3878 -23.2189 
-17.1481 -19.7212 -19.988 -19.29 -16.5982 -14.3153 -17.4009 -23.619 
-5.806 -4.712 -3.0695 -3.961 -4.278 0 -2.4265 -2.742 -3.6845 -2.5685 -1.4985 -3.509 -1.7565 -3.7865 -1.756 -3.5855 -1.7695 -3.6055 -3.1385 -1.934 -1.4985 -3.995 -1.756 -2.4265 -2.7765 -2.489 -3.8755 -1.934 -3.5205 -3.6885 -1.756 -4.26 -3.9225 -3.277 -2.356 -3.046 -1.7565 -3.709 -1.756 -3.4155 -3.723 0 
-11.046 -8.0765 -6.603001 -10.2485 -4.278 -2.4265 -4.095 -4.8705 -6.2145 -3.7015 -4.917 -4.762 -5.1075 -4.7705 -5.1875 -5.916 -5.259501 -7.331 -4.522 -2.6125 -4.712 -5.3025 -3.949 -4.346 -3.495 -5.2845 -5.2035 -6.5405 -6.3485 -5.041 -5.7575 -6.481501 -5.4525 -4.9055 -5.162001 -4.927 -5.608 -5.214 -5.2205 -7.877 -3.723 
-14.4105 -11.8432 -13.1361 -10.2485 -7.223001 -4.095 -6.19 -7.3665 -6.9065 -5.8715 -5.3835 -9.334 -5.6315 -6.401 -7.155 -9.328501 -8.283501 -8.6215 -5.087501 -6.1055 -5.7925 -7.223 -5.779 -4.728 -5.922 -6.3615 -9.757 -8.866501 -7.181 -8.471001 -7.81 -8.5275 -7.81 -7.943501 -8.216001 -6.674 -6.653 -8.6695 -9.84 -7.877 
-18.1772 -18.3763 -13.1361 -13.5025 -9.035001 -6.19 -8.6125 -8.108 -8.283001 -6.7205 -10.3337 -9.9755 -6.791 -8.909 -10.388 -12.5825 -9.398001 -9.047 -8.9055 -7.198 -7.501501 -9.207001 -6.152 -7.764 -7.055 -11.5096 -12.7674 -9.928 -11.0388 -10.9977 -9.986 -10.98 -11.1012 -10.5975 -9.052501 -7.906001 -10.4513 -13.6854 -9.84 
-24.7103 -18.3763 -16.3901 -15.3145 -9.848001 -8.6125 -9.1435 -9.4235 -8.836 -11.9061 -10.9752 -11.4034 -9.2825 -12.1998 -13.642 -13.697 -10.214 -13.4418 -10.276 -8.8225 -9.751 -9.697001 -9.078 -8.613001 -12.3779 -14.52 -13.8289 -13.8928 -13.5655 -13.1737 -12.4385 -14.2712 -13.7552 -11.6524 -10.4595 -12.2181 -15.4672 -13.6854 
