-4.759 
n/a 
n/a 
n/a 
n/a 
-4.759 
n/a 
n/a 
n/a 
n/a 
-4.759 
n/a 
n/a 
n/a 
n/a 
-4.759 
n/a 
n/a 
n/a 
n/a 
-1.4985 -3.676 -3.757 -2.186 -8.630501 -7.6785 -1.934 -5.596 -3.321 -1.4985 -8.3815 -1.756 -3.5035 -2.7415 -3.8755 -1.934 -5.696 0 
-6.125 -7.16 -5.8005 -12.0269 -16.6544 -10.2435 -6.901 -9.243501 -4.481 -9.604 -9.998 -5.3985 -5.9375 -5.065001 -5.2035 -7.0905 -5.696 
-9.280001 -9.818501 -16.2492 -20.0508 -19.2194 -15.2105 -9.639501 -10.305 -12.8089 -11.2963 -13.7199 -8.5835 -8.175 -5.9185 -9.8715 -7.0905 
-12.5565 -20.6136 -24.2731 -22.6158 -24.1864 -17.949 -10.8616 -18.6329 -14.5012 -15.0182 -16.9049 -10.9394 -8.9635 -10.1945 -9.8715 
-23.3516 -28.6375 -26.8381 -27.5828 -26.9249 -19.1711 -19.1895 -20.3252 -18.2231 -18.2032 -19.2608 -11.7279 -13.3791 -10.1945 
-3.4985 -1.4985 -3.915 -5.8715 -3.757 -4.359 -2.264 -3.5315 -4.4485 0 -4.401 -4.033 -2.882 -4.636 -3.9345 -1.7695 -2.9705 -3.193 -1.7565 -1.4985 -3.515 -1.4985 -4.4485 -4.359 -2.264 -2.7835 -1.4985 -4.1095 -4.359 -1.934 -1.4985 -3.9785 -1.7565 -1.4985 -3.515 0 -3.135 -5.187 -4.5465 -1.756 -5.0305 -2.882 -3.429 -3.5015 -3.5455 -1.4985 -4.197 -2.0935 -4.802 0 -3.693 0 -5.0625 -2.3345 -3.892 0 
-4.398 -4.5295 -8.7965 -10.1765 -7.599 -5.912 -4.8735 -5.9125 -4.4485 -4.401 -7.2005 -6.4945 -5.1385 -6.18 -3.94 -4.56 -6.974 -4.5615 -2.4195 -4.376 -5.2215 -5.4305 -9.1625 -5.912 -5.612 -3.7575 -5.3735 -7.467501 -5.8145 -2.6125 -4.496 -4.924 -2.4195 -4.376 -3.515 -3.135 -7.658 -7.2815 -5.9885 -6.3675 -7.654 -5.153501 -4.918 -6.011 -3.91 -5.0975 -6.104 -5.884 -4.802 -3.693 -3.693 -5.0625 -7.517501 -5.3345 -3.892 
-7.69 -9.1925 -13.4795 -10.767 -8.240001 -8.6545 -7.007501 -5.9125 -9.8485 -7.2005 -9.714001 -8.040501 -6.8685 -6.183 -6.366 -8.7215 -7.831 -5.0995 -4.5305 -6.136 -9.133 -9.641001 -9.329 -9.852501 -6.6795 -7.955501 -8.099001 -9.132501 -6.456 -4.783 -4.959 -5.224 -4.5305 -4.376 -6.7885 -7.658 -10.3285 -8.373 -9.616501 -9.525001 -10.0345 -6.581 -6.5585 -6.2765 -6.690001 -6.989 -10.4345 -5.884 -8.9615 -3.693 -8.929501 -7.517501 -9.0775 -5.3345 
-12.5332 -14.1551 -14.07 -11.408 -10.3815 -9.967001 -7.007501 -10.6875 -12.6248 -9.714001 -10.5455 -9.8655 -6.87 -8.388 -9.782001 -9.6035 -7.871 -5.974 -6.28 -10.1425 -13.4849 -9.687501 -13.9323 -10.446 -10.7025 -8.430501 -9.786 -9.535501 -7.9665 -5.0745 -5.2625 -7.3195 -4.5305 -7.729 -11.6697 -10.3285 -11.42 -10.523 -12.8366 -12.1313 -10.2805 -8.070001 -6.8255 -8.695001 -8.642501 -10.733 -10.4345 -9.512001 -8.9615 -8.929501 -9.928 -9.0775 -9.0775 
-17.4958 -14.7456 -14.711 -13.5495 -11.694 -9.967001 -12.2539 -13.4638 -15.1383 -10.5455 -12.3705 -9.869 -9.535501 -10.213 -10.391 -9.658 -7.9685 -7.402 -10.2585 -14.4944 -13.5314 -14.337 -14.5258 -14.469 -11.1775 -10.5225 -10.2065 -9.915001 -8.102 -5.3995 -7.356 -7.3195 -7.889 -12.901 -14.3402 -11.42 -13.57 -13.7431 -15.4429 -12.3773 -11.7695 -8.377501 -9.073001 -10.494 -12.3895 -10.733 -14.0625 -9.512001 -14.4414 -9.928 -11.5846 -9.0775 
-3.4975 -3.9655 -3.5035 -2.7415 -4.629 -1.934 -5.696 0 -2.688 -10.437 -3.0835 -7.6045 -3.499 -1.756 -5.189 -9.3335 -2.9805 -4.648 -2.5045 -4.2245 
-6.154 -7.343 -5.9375 -6.033 -6.099 -7.0905 -5.696 -2.688 -14.1988 -13.6083 -11.8982 -11.1415 -4.9 -6.8675 -13.327 -10.8625 -7.014501 -5.8555 -6.544001 
-10.6795 -10.3885 -9.366501 -6.9875 -11.8635 -7.0905 -8.406 -14.1988 -17.3701 -22.423 -15.4352 -12.5425 -8.5205 -15.8133 -16.8564 -15.8637 -8.700001 -9.163501 
-13.725 -13.8175 -10.2045 -12.9054 -11.8635 -9.567501 -20.6036 -17.3701 -26.1848 -25.96 -16.8362 -16.163 -18.2593 -19.1591 -21.232 -17.5492 -12.0914 
-17.154 -14.6555 -16.198 -12.9054 -14.3405 -21.9723 -23.7749 -26.1848 -29.7218 -27.361 -20.4567 -25.9018 -21.2539 -23.5347 -22.9175 -20.9406 
-3.676 -2.229 -3.9655 -3.5035 -2.7415 -6.453 -2.5045 -1.4985 -3.158 -5.696 0 -2.688 -3.9675 -3.0835 -4.293 0 -4.3345 -4.0375 -1.756 -3.757 -4.042 -3.7375 -2.7415 -3.9595 -2.985 -3.275 -2.5045 -1.4985 -3.158 -5.596 0 
-4.593 -5.5855 -7.343 -5.9375 -8.7205 -9.2075 -3.1915 -4.178 -8.114 -5.696 -2.688 -6.193 -7.433001 -7.7335 -4.293 -4.3345 -7.678 -5.641001 -5.5175 -5.8015 -5.454 -6.552 -5.2105 -6.634 -6.522 -5.7995 -3.1915 -4.178 -7.4505 -5.596 
-7.383 -9.4505 -10.3885 -10.7025 -11.7288 -9.851501 -6.7915 -8.1715 -8.114 -8.406 -6.193 -9.525001 -10.2285 -7.7335 -7.933001 -7.678 -9.956 -9.573001 -7.583 -7.413 -7.378 -9.313001 -9.4725 -9.992001 -8.888 -6.6855 -6.7915 -8.2665 -7.4505 
-12.0106 -12.9984 -15.1535 -13.7108 -12.3728 -13.6645 -11.8542 -8.1715 -11.4302 -12.5978 -9.525001 -12.5161 -10.2285 -11.9883 -11.3723 -9.956 -14.0496 -11.7311 -9.208 -8.900001 -10.6215 -13.6746 -12.8305 -12.622 -9.290501 -10.757 -11.9492 -8.2665 
-15.5585 -17.7634 -18.1618 -14.3548 -16.1858 -18.7272 -11.8542 -11.7181 -15.622 -15.9298 -12.5161 -12.5161 -15.9937 -15.4276 -13.6503 -14.0496 -16.2077 -13.3561 -10.6605 -12.2047 -14.9831 -17.0326 -15.4605 -13.0245 -13.3634 -15.9147 -11.9492 
