-4.759 
n/a 
n/a 
n/a 
n/a 
-4.759 
n/a 
n/a 
n/a 
n/a 
-4.759 
n/a 
n/a 
n/a 
n/a 
-4.759 
n/a 
n/a 
n/a 
n/a 
0 -4.5255 0 -12.16972 0 -9.8175 
-4.5255 -4.5255 -12.16972 -12.16972 -9.8175 
-4.5255 -17.08302 -12.16972 -21.98722 
-17.08302 -17.08302 -21.98722 
-17.08302 -26.90052 
-4.5255 0 -12.16972 0 -5.7865 0 
-4.5255 -12.16972 -12.16972 -5.7865 -5.7865 
-17.08302 -12.16972 -17.95622 -5.7865 
-17.08302 -17.95622 -17.95622 
-22.86952 -17.95622 
-16.69522 0 -5.7865 0 
-17.08302 -5.7865 -5.7865 
-22.86952 -5.7865 
-22.86952 
n/a 
-6.859 -4.2085 0 -5.7865 0 
-12.1925 -4.2085 -5.7865 -5.7865 
-12.3305 -11.0145 -5.7865 
-19.5981 -11.0145 
-19.5981 
