-4.759 
n/a 
n/a 
n/a 
n/a 
-4.759 
n/a 
n/a 
n/a 
n/a 
-4.759 
n/a 
n/a 
n/a 
n/a 
-4.759 
n/a 
n/a 
n/a 
n/a 
-3.9785 -4.7045 -8.7095 
-5.6435 -14.654 
-16.2112 
n/a 
n/a 
-3.9785 -3.8405 -4.245 
-7.447001 -8.308001 
-12.0565 
n/a 
n/a 
-3.9785 -3.7515 -4.245 
-6.294 -8.1555 
-10.075 
n/a 
n/a 
-3.5455 -2.3615 -3.8405 0 -7.335001 0 -10.2885 0 -7.684 0 -1.4985 -4.065 -1.756 -1.4985 -3.9685 -3.074 -5.1605 -3.9035 -1.7565 -6.557 0 
-5.013 -5.371 -3.8405 -7.335001 -7.335001 -10.2885 -10.2885 -7.684 -7.684 -1.4985 -4.824 -5.851 -3.0405 -4.987 -6.9665 -7.156 -8.8065 -4.616 -7.653501 -6.557 
-5.726 -5.371 -10.9575 -7.335001 -18.2839 -10.2885 -18.0413 -7.684 -8.903001 -4.824 -6.4615 -7.197001 -6.4105 -8.134501 -12.0481 -11.4148 -8.822001 -9.4355 -7.653501 
-5.726 -12.6356 -10.9575 -18.2839 -18.2839 -18.0413 -18.0413 -8.903001 -10.048 -6.4615 -7.296 -8.021 -9.507501 -12.7265 -16.3069 -11.4303 -13.7461 -9.4355 
-13.0194 -12.6356 -21.9064 -18.2839 -26.0367 -18.0413 -19.2603 -10.048 -10.739 -7.296 -8.028001 -11.5112 -14.2243 -16.9853 -16.3224 -16.3544 -13.7461 
