-4.759 
n/a 
n/a 
n/a 
n/a 
-4.759 
n/a 
n/a 
n/a 
n/a 
-4.759 
n/a 
n/a 
n/a 
n/a 
-4.759 
n/a 
n/a 
n/a 
n/a 
-4.5255 0 -12.16972 -8.137501 0 -5.943501 0 
-4.5255 -12.16972 -20.30722 -8.137501 -5.943501 -5.943501 
-17.08302 -20.30722 -20.30722 -14.5142 -5.943501 
-25.22052 -20.30722 -26.68392 -14.5142 
-25.22052 -26.68392 -26.68392 
-4.5255 0 -12.16972 -8.137501 0 -5.943501 0 
-4.5255 -12.16972 -20.30722 -8.137501 -5.943501 -5.943501 
-17.08302 -20.30722 -20.30722 -14.5142 -5.943501 
-25.22052 -20.30722 -26.68392 -14.5142 
-25.22052 -26.68392 -26.68392 
-16.69522 -8.137501 0 -5.943501 0 
-25.22052 -8.137501 -5.943501 -5.943501 
-25.22052 -14.5142 -5.943501 
-31.59722 -14.5142 
-31.59722 
-7.869 -2.186 -4.3315 0 -5.943501 0 
-10.0545 -6.755501 -4.3315 -5.943501 -5.943501 
-14.108 -6.755501 -11.046 -5.943501 
-14.4074 -13.986 -11.046 
-21.7391 -13.986 
