-4.759 
n/a 
n/a 
n/a 
n/a 
-4.759 
n/a 
n/a 
n/a 
n/a 
-4.759 
n/a 
n/a 
n/a 
n/a 
-4.759 
n/a 
n/a 
n/a 
n/a 
-2.4265 -5.0075 -1.7695 -8.328501 -9.1925 
-6.053 -5.113 -9.989 -17.9008 
-6.3615 -13.7493 -19.7105 
-15.5792 -23.4708 
-25.3007 
-2.3615 -5.0075 -1.7695 -6.951 -2.229 -4.245 0 
-7.1575 -5.113 -9.0015 -9.248501 -5.976501 -4.245 
-7.509 -12.7618 -11.6986 -13.1004 -5.976501 
-15.6122 -15.4589 -15.5505 -13.1004 
-18.3093 -19.3108 -15.5505 
-3.45 -2.4945 -3.4635 -1.7695 -9.0235 -4.245 
-5.354 -5.5165 -4.2045 -10.862 -13.5339 
-8.641001 -5.7235 -13.611 -15.3724 
-8.781 -15.5066 -18.1214 
-18.6305 -20.017 
-2.925 -5.0075 -1.7695 -8.266001 -4.245 
-8.821501 -5.113 -10.5975 -12.9844 
-8.994 -14.3578 -15.3159 
-18.366 -19.0762 
-23.0844 
