-4.759 
n/a 
n/a 
n/a 
n/a 
-4.759 
n/a 
n/a 
n/a 
n/a 
-4.759 
n/a 
n/a 
n/a 
n/a 
-4.759 
n/a 
n/a 
n/a 
n/a 
-3.2615 -5.0515 -1.7565 -4.631 -4.86 -2.5195 -3.875 -1.934 -5.8 -1.756 -4.8095 -3.6385 -2.5195 -3.5455 0 -1.934 -5.634501 0 -4.065 -4.0555 -1.7695 -3.75 -3.892 -1.7565 -3.8655 -1.756 -5.409 -3.1435 -2.5045 -1.8085 -3.355 -1.7565 -3.4225 -4.0965 0 
-8.221001 -5.5125 -6.311501 -9.2565 -6.423 -5.8335 -5.726501 -7.6785 -8.009001 -6.746 -8.375501 -5.8315 -5.71 -3.5455 -1.934 -7.1905 -5.634501 -4.065 -8.163 -4.7475 -6.035 -6.331 -5.131001 -5.196 -5.2725 -6.4175 -8.1945 -6.804501 -3.3625 -4.6195 -3.725 -5.6355 -4.2 -4.0965 
-8.913501 -9.901001 -11.4476 -11.2305 -9.75 -7.4455 -10.5535 -8.721001 -13.3104 -10.304 -10.4855 -8.710501 -5.71 -6.2995 -7.1905 -7.1905 -9.024501 -8.163 -8.574 -8.554 -9.429 -7.765501 -8.018001 -6.4155 -10.523 -8.77 -12.2245 -8.306001 -5.6285 -4.725 -7.678 -7.05 -4.2 
-13.467 -15.1171 -13.4216 -14.5575 -11.8846 -12.6141 -11.974 -14.0958 -16.8684 -12.414 -13.3645 -8.710501 -8.833 -11.9884 -7.1905 -9.842001 -13.6197 -8.574 -12.6683 -12.1988 -10.9995 -10.025 -9.165501 -11.8262 -12.8755 -12.9506 -13.726 -10.2535 -5.6725 -8.764501 -8.829 -7.05 
-18.6831 -17.0911 -16.7486 -16.6921 -17.0532 -14.0346 -17.3488 -17.6538 -18.9784 -15.293 -13.3645 -11.9667 -14.7347 -11.9884 -9.842001 -14.7958 -14.0307 -12.6683 -16.3131 -13.7693 -13.259 -11.1725 -14.5786 -14.1787 -17.0561 -14.4521 -15.6735 -10.3435 -9.651 -10.243 -8.829 
-3.2615 -1.4985 -3.655 -1.7565 -4.8095 -3.711 -2.5195 -3.5455 0 -1.756 -3.321 0 -1.934 -5.8 0 -4.631 -6.752501 -2.5195 -3.875 0 -1.4985 -3.6085 -3.1385 0 -3.0695 -4.7445 -2.5045 -1.4985 -3.75 -3.355 -1.7565 -3.8655 -4.7205 -3.1435 -3.401 -2.0935 -3.4225 -4.0965 -1.934 -5.634501 0 
-4.032 -5.736501 -6.110001 -6.9125 -8.328501 -6.0535 -5.71 -3.5455 -1.756 -4.0055 -3.321 -1.934 -7.6785 -5.8 -4.631 -10.1945 -8.849001 -5.8335 -3.875 -1.4985 -5.023 -6.699 -3.1385 -3.0695 -6.505 -5.43 -3.1915 -4.8715 -7.194 -3.725 -5.196 -8.7355 -7.392 -6.206 -5.158 -5.9305 -4.2 -6.3255 -7.1905 -5.634501 
-7.257 -6.627001 -11.891 -9.792001 -10.3345 -8.884001 -5.71 -5.364501 -4.0055 -4.0055 -5.4075 -7.6785 -7.6785 -9.9835 -10.1945 -12.291 -12.3382 -5.8335 -5.516 -5.023 -7.278 -6.699 -4.286 -6.505 -7.350501 -5.8805 -6.528501 -7.7255 -7.3525 -7.348001 -9.753501 -11.7168 -9.543 -8.1645 -9.772 -7.007 -6.6215 -12.1704 -7.1905 
-8.182 -12.657 -14.7705 -11.8354 -13.165 -8.884001 -7.38 -7.6875 -4.0055 -6.081 -10.7175 -7.6785 -10.6335 -15.6338 -12.291 -15.7802 -12.3382 -7.263 -8.766001 -7.278 -7.278 -8.283501 -8.103001 -7.350501 -7.687 -9.1435 -9.329 -7.8385 -10.367 -12.5535 -12.7802 -13.8678 -11.9871 -12.7689 -10.5901 -9.1975 -12.8744 -12.1704 
-14.313 -15.5365 -16.8139 -14.6659 -13.165 -10.1855 -10.575 -7.6875 -6.081 -11.4302 -10.7175 -10.6335 -16.2838 -17.7303 -15.7802 -15.7802 -13.7677 -10.543 -11.0868 -7.278 -9.092001 -12.2489 -8.919001 -7.687 -11.2112 -11.9924 -9.3625 -10.9812 -15.5725 -15.5802 -14.9312 -16.3119 -16.5915 -13.587 -12.7806 -15.919 -12.8744 
-3.1015 -1.756 -3.277 -5.628 -2.5195 -1.4985 -3.5455 0 -2.5195 -5.8 -1.4985 -4.936 -1.7565 -1.4985 -4.631 -2.5195 -3.875 0 -2.5195 -5.793 -1.4985 -4.3105 -2.5195 -1.4985 -3.641 0 -3.264 -2.3335 -1.4985 -5.677 -1.7695 -3.277 
-4.727 -6.2835 -9.024 -7.4665 -3.1695 -4.554 -3.5455 -2.5195 -8.559501 -7.9805 -6.654 -7.345 -2.4195 -5.528 -7.613 -5.8335 -3.875 -2.5195 -8.548 -7.948501 -4.977 -8.253 -3.1695 -4.644 -3.641 -3.264 -4.533 -3.3515 -9.2775 -5.7705 -4.619 
-8.5605 -12.0053 -10.9323 -8.145 -5.8305 -4.554 -6.3585 -8.559501 -10.1725 -13.3194 -8.754001 -7.976001 -6.3385 -8.492001 -11.4474 -5.8335 -6.2815 -8.548 -9.9065 -11.6256 -9.0965 -8.9205 -5.9715 -4.644 -7.104501 -4.533 -5.32 -10.564 -9.552501 -7.701 
-14.5007 -13.9136 -11.6108 -9.698501 -5.8305 -7.3165 -12.7531 -10.1725 -15.5114 -15.4194 -9.187 -12.266 -9.562501 -12.5706 -11.4474 -8.055 -13.0162 -9.9065 -13.663 -15.7451 -9.785001 -11.8975 -5.9715 -8.206501 -8.3605 -5.32 -12.7545 -10.839 -11.5072 
-16.409 -14.5921 -13.1643 -9.698501 -7.8405 -13.9759 -14.3661 -15.5114 -17.6114 -15.8524 -13.4776 -15.49 -13.6367 -12.5706 -13.6689 -15.2959 -14.3747 -13.663 -17.7825 -16.4336 -12.8504 -11.8975 -9.3975 -9.7305 -9.1645 -12.7545 -13.0295 -12.7937 
-3.0365 -2.4945 -3.3715 -4.051 -4.9225 -2.4945 -5.3905 -1.7695 -3.8655 -1.934 -5.8 -1.7695 -5.634501 0 
-3.688 -4.846 -6.7335 -8.1775 -6.9525 -7.002 -6.104 -5.6875 -5.918 -7.6785 -8.3345 -8.1455 -5.634501 
-4.8765 -8.5625 -10.022 -9.913 -11.778 -7.669001 -9.7095 -6.984 -9.9305 -9.420501 -14.9727 -8.1455 
-8.585 -11.97 -11.8285 -14.8851 -12.445 -11.5977 -11.0498 -11.6215 -11.6725 -16.1505 -14.9727 
-12.0025 -13.7765 -16.8006 -15.5521 -16.3737 -12.938 -15.6873 -13.3635 -18.4025 -16.1505 
