-4.759 
n/a 
n/a 
n/a 
n/a 
-4.759 
n/a 
n/a 
n/a 
n/a 
-4.759 
n/a 
n/a 
n/a 
n/a 
-4.759 
n/a 
n/a 
n/a 
n/a 
-4.277 -3.441 -4.509 
-7.543001 -6.001 
-10.096 
n/a 
n/a 
-4.277 -2.186 -3.913 -3.7015 -3.5965 -4.9835 
-6.168 -7.2665 -5.531 -7.289001 -6.33 
-12.1977 -8.201 -8.451 -7.9795 
-13.1322 -11.3108 -8.659 
-16.242 -11.5188 
-4.277 0 -4.277 0 -1.756 -3.5965 -4.414 -3.913 0 
-4.277 -4.277 -4.277 -1.756 -5.135 -6.231501 -6.1075 -3.913 
-5.676001 -4.277 -5.7875 -5.135 -8.629001 -7.822001 -6.1075 
-5.676001 -5.7875 -8.568501 -8.629001 -9.822001 -7.822001 
-8.194 -8.568501 -9.906001 -9.822001 -9.822001 
-3.913 -3.7015 -4.277 0 -4.277 0 -1.756 -3.5965 -4.414 0 
-5.531 -6.9125 -4.277 -4.277 -4.277 -1.756 -5.135 -6.231501 -4.414 
-8.0315 -6.9125 -5.676001 -4.277 -5.7875 -5.135 -8.629001 -6.231501 
-8.0315 -9.251501 -5.676001 -5.7875 -8.568501 -8.629001 -8.629001 
-10.9731 -9.251501 -8.194 -8.568501 -9.906001 -8.629001 
