-4.759 
n/a 
n/a 
n/a 
n/a 
-4.759 
n/a 
n/a 
n/a 
n/a 
-4.759 
n/a 
n/a 
n/a 
n/a 
-4.759 
n/a 
n/a 
n/a 
n/a 
-3.486 -2.95 -8.616 -4.335 -4.0655 -1.7695 -2.9645 -3.8275 
-4.563 -12.4996 -13.2996 -8.067 -4.4155 -3.812 -8.1365 
-14.3334 -17.1832 -17.0316 -8.3905 -5.9215 -8.627 
-19.017 -20.9152 -17.3551 -9.969 -10.0155 
-22.749 -21.2387 -18.9336 -14.3 
-2.5045 -1.4985 -3.486 -2.95 0 -6.009 -3.251 -3.2955 -3.1435 -3.891 -4.4605 -2.5045 -4.6075 0 
-3.1915 -3.5655 -4.563 -2.95 -6.009 -9.045501 -6.03 -6.5395 -6.5915 -7.613 -6.9875 -6.818001 -4.6075 
-4.538 -4.577 -4.563 -9.649 -9.045501 -11.9101 -8.3095 -10.051 -10.442 -9.559 -10.115 -6.818001 
-4.615 -4.577 -11.4828 -12.6855 -11.9101 -14.1896 -11.9604 -13.9015 -12.388 -13.0789 -10.115 
-4.615 -11.5484 -14.5193 -15.5501 -14.1896 -17.8405 -15.8109 -15.8475 -15.9079 -13.0789 
-2.3335 -1.4985 -3.135 -2.95 -4.065 -3.4625 -3.147 -4.1975 -4.335 -2.5045 -1.8085 -4.6075 0 
-3.3515 -6.4025 -4.868 -7.56 -9.031 -6.8525 -7.856501 -7.894 -6.6865 -3.3625 -6.898001 -4.6075 
-7.9505 -8.425501 -9.708 -12.7182 -12.9018 -12.0076 -12.3582 -10.485 -7.6925 -8.079 -6.898001 
-10.1449 -13.1581 -14.8662 -16.589 -18.0569 -16.5093 -14.9492 -11.491 -12.6522 -8.079 
-14.8775 -18.3163 -18.737 -21.7441 -22.5586 -19.1003 -15.9552 -16.4507 -12.6522 
-2.5045 -1.4985 -3.486 -2.95 -4.065 -2.4945 -3.2955 -2.985 -4.335 -2.229 -1.7695 -3.8275 
-3.1915 -3.5655 -4.563 -7.56 -7.032001 -4.6305 -6.22 -6.987 -5.852 -4.907001 -5.686 
-4.538 -4.577 -8.771501 -10.7192 -9.836 -8.152 -10.513 -8.416 -9.429 -8.676001 
-4.615 -8.779 -12.1153 -13.5232 -14.0821 -12.7928 -11.942 -12.0916 -13.335 
-8.827001 -12.128 -14.9193 -17.7693 -18.7229 -14.2218 -15.6176 -15.9976 
