-4.759 
n/a 
n/a 
n/a 
n/a 
-4.759 
n/a 
n/a 
n/a 
n/a 
-4.759 
n/a 
n/a 
n/a 
n/a 
-4.759 
n/a 
n/a 
n/a 
n/a 
-1.4985 -2.871 -3.0695 -5.0075 -1.7695 -1.4985 -3.2795 -1.7565 -9.342501 0 
-4.316 -5.059 -7.027 -5.113 -2.7955 -4.423 -4.4575 -10.7665 -9.342501 
-5.4975 -8.469501 -7.127 -5.7335 -5.4925 -5.693 -14.0763 -10.7665 
-9.3505 -8.533501 -7.596001 -7.5185 -6.884501 -15.4828 -14.0763 
-9.535501 -9.0365 -9.1055 -7.683 -16.7281 -15.4828 
-9.342501 -6.8145 
-16.66 
n/a 
n/a 
n/a 
-9.342501 -7.8825 
-17.728 
n/a 
n/a 
n/a 
-9.342501 -6.799 
-10.007 
n/a 
n/a 
n/a 
