-4.759 
n/a 
n/a 
n/a 
n/a 
-4.759 
n/a 
n/a 
n/a 
n/a 
-4.759 
n/a 
n/a 
n/a 
n/a 
-4.759 
n/a 
n/a 
n/a 
n/a 
-5.1845 -3.9675 -1.756 -5.2145 
-8.286 -4.9775 -6.633 
-9.0775 -7.3575 
-10.6095 
n/a 
-6.4735 -9.028001 -1.756 -3.1435 -3.598 
-16.4699 -10.0255 -4.1365 -6.3745 
-17.4674 -12.406 -7.0995 
-19.8479 -15.369 
-22.8109 
-5.1845 -3.9675 -1.756 -2.985 -5.156 0 
-8.286 -4.9775 -4.2025 -7.4275 -5.156 
-9.0775 -7.439 -8.500501 -7.4275 
-11.748 -12.0774 -8.500501 
-16.3864 -12.0774 
-8.1485 -3.9675 -1.756 -2.4265 -2.229 -4.519 0 
-10.316 -4.9775 -3.949 -3.3415 -6.3355 -4.519 
-11.326 -7.449 -4.6695 -9.035501 -6.3355 
-13.7975 -8.0225 -10.575 -9.035501 
-14.371 -14.009 -10.575 
