-4.759 
n/a 
n/a 
n/a 
n/a 
-4.759 
n/a 
n/a 
n/a 
n/a 
-4.759 
n/a 
n/a 
n/a 
n/a 
-4.759 
n/a 
n/a 
n/a 
n/a 
-3.777 -2.186 -6.555 0 0 -3.6555 0 0 -5.226 0 0 -2.847 0 -1.756 -5.805 0 0 -2.847 -5.3845 0 
-5.1765 -8.5795 -5.907001 0 -3.6555 -3.6555 0 -4.6635 -4.6635 0 -2.847 -2.847 -1.756 -7.7985 -5.3 0 -2.847 -6.252 -5.3845 
-12.298 -9.175501 -5.907001 -3.6555 -3.6555 -3.6555 -4.6635 -4.6635 -4.6635 -2.847 -2.847 -5.8285 -7.687 -7.687 -5.3 -2.847 -6.252 -6.252 
-12.4708 -9.175501 -9.160501 -3.6555 -3.6555 -8.257501 -4.6635 -4.6635 -7.849501 -2.847 -5.8285 -10.0645 -7.687 -7.687 -8.646 -6.252 -6.252 
-12.4708 -12.6794 -9.160501 -3.6555 -8.257501 -8.257501 -4.6635 -7.849501 -7.849501 -5.8285 -10.0645 -10.0645 -7.687 -10.071 -12.835 -6.252 
-3.6555 -6.555 -3.543 -1.756 -5.226 -8.758 -2.847 
-9.618501 -9.084001 -7.231 -7.0585 -13.0305 -12.275 
-12.265 -12.7835 -12.038 -15.873 -17.1015 
-17.3105 -18.4119 -21.3534 -19.7844 
-22.2463 -27.7273 -24.8704 
-3.4515 -6.555 0 -3.6785 -1.756 -5.226 0 -3.6785 -2.847 -1.756 -5.805 0 -3.581 -5.651501 -3.6785 
-9.924001 -5.907001 -3.6785 -5.745 -7.0585 -4.6635 -3.6785 -5.471 -5.8285 -7.7985 -5.3 -3.581 -8.243 -7.3335 
-10.411 -10.9128 -5.745 -11.8995 -6.952 -9.758501 -5.471 -7.0525 -11.5335 -7.687 -10.041 -8.099 -11.8755 
-15.4168 -13.3528 -11.9841 -11.9841 -12.4414 -11.2945 -7.0525 -11.8477 -10.0645 -12.8484 -13.9597 -10.3965 
-17.8568 -19.6741 -11.9841 -17.4735 -13.9774 -13.119 -11.8477 -11.8477 -16.3933 -16.7671 -16.2572 
-1.4985 -3.777 -4.685 0 -6.555 0 -3.1385 -3.264 -3.6555 0 -1.756 0 -5.226 0 -1.7565 -3.1385 -3.264 -2.847 0 -1.756 0 -5.805 0 -1.7565 -3.1385 -3.264 -2.847 -3.2225 0 0 
-4.588 -8.526501 -4.685 -5.907001 -5.907001 -3.1385 -6.179 -5.9415 -3.6555 -1.756 -1.756 -4.6635 -4.6635 -1.7565 -4.388 -6.179 -5.647 -2.847 -1.756 -1.756 -5.3 -5.3 -1.7565 -4.388 -6.179 -5.647 -4.5565 -3.2225 0 
-8.852501 -8.526501 -11.469 -5.907001 -10.223 -6.179 -8.461 -5.9415 -5.5405 -1.756 -6.952 -4.6635 -7.319 -4.388 -7.239501 -8.119 -5.647 -5.8285 -1.756 -7.687 -5.3 -7.693 -4.388 -7.239501 -8.119 -8.004001 -4.5565 -3.2225 
-8.852501 -15.7577 -11.469 -10.223 -13.371 -8.461 -8.461 -6.9475 -5.5405 -6.952 -6.952 -7.319 -10.0505 -7.239501 -9.363001 -8.119 -7.158 -5.8285 -7.687 -7.687 -7.693 -10.4505 -7.239501 -9.363001 -9.6265 -8.004001 -4.5565 
-16.2945 -15.7577 -15.785 -13.371 -14.836 -8.461 -9.594501 -6.9475 -11.398 -6.952 -8.554501 -10.0505 -12.4456 -9.363001 -9.363001 -9.593 -7.158 -10.0645 -7.687 -8.7375 -10.4505 -12.4965 -9.363001 -11.0477 -9.6265 -8.004001 
