-4.759 
n/a 
n/a 
n/a 
n/a 
-4.759 
n/a 
n/a 
n/a 
n/a 
-4.759 
n/a 
n/a 
n/a 
n/a 
-4.759 
n/a 
n/a 
n/a 
n/a 
-2.3615 -3.452 -2.8645 -2.915 -2.7455 -3.729 -3.9195 0 -2.4265 -5.33 -3.6835 -3.764 -1.756 -4.85 -6.442 0 
-4.5465 -5.886 -6.195 -4.0865 -6.2045 -5.707 -3.9195 -2.4265 -6.9825 -9.314501 -6.422 -4.9475 -6.331 -10.7335 -6.442 
-6.3245 -8.8575 -6.8615 -7.620501 -8.904 -5.707 -6.623 -6.9825 -11.5856 -12.5324 -7.210001 -10.022 -12.3779 -10.7335 
-9.220501 -9.4965 -10.1465 -10.233 -8.904 -8.7065 -12.0124 -11.5856 -14.8035 -13.3204 -12.7335 -16.0689 -12.3779 
-9.976001 -12.8199 -12.759 -10.233 -10.674 -14.3241 -16.6155 -14.8035 -15.5915 -18.8439 -18.7804 -16.0689 
-1.4985 -4.4905 -1.7565 -1.4985 -8.253 -9.139001 -2.186 -1.7695 -5.448 -1.4985 -4.5735 0 -3.764 -1.756 -1.4985 -5.812 -1.7565 -1.4985 -3.1385 0 -1.756 -1.4985 -3.729 -4.834 -2.3345 -3.6385 -2.742 -2.489 -4.9355 -2.356 -1.4985 -3.9745 -2.5045 -3.3235 -2.5045 -1.4985 -5.408 0 
-5.2295 -5.283501 -2.4195 -9.8875 -10.368 -10.8215 -3.8745 -6.821001 -6.1875 -5.6505 -4.5735 -3.764 -4.9475 -3.0405 -6.715501 -6.636 -2.4195 -4.2575 -3.1385 -1.756 -3.0405 -4.763 -7.2165 -6.04 -6.2185 -6.1905 -3.301 -7.226501 -7.207 -3.1615 -4.7475 -6.166 -3.7105 -3.8485 -3.583 -6.39 -5.408 
-5.3985 -5.798501 -10.76 -12.0025 -12.0505 -12.51 -9.3695 -7.338 -11.1391 -5.6505 -7.6225 -4.9475 -6.35 -8.107 -6.920001 -7.390501 -5.013 -4.2575 -4.6325 -3.0405 -6.406 -8.326 -8.458 -8.974501 -8.8505 -6.9635 -8.5555 -9.046 -8.3595 -6.677 -8.282001 -7.2185 -3.8545 -4.654 -8.467501 -6.39 
-5.9285 -14.6858 -12.875 -13.685 -13.739 -18.005 -10.342 -12.44 -11.1391 -8.425001 -8.729501 -6.35 -10.3815 -8.224501 -7.591001 -9.052501 -5.013 -5.7255 -5.789001 -6.406 -9.88 -9.451501 -11.5823 -11.7171 -9.673 -12.6076 -10.3745 -9.745501 -12.1094 -9.799001 -8.821 -7.2895 -4.6565 -9.1785 -8.467501 
-14.8662 -16.8008 -14.5575 -15.3735 -19.234 -18.9775 -15.444 -12.44 -13.9136 -9.942501 -9.948501 -10.3815 -10.4225 -8.751 -9.313001 -9.052501 -6.3675 -6.463 -9.172501 -9.88 -10.721 -12.5204 -14.3249 -12.5396 -15.4143 -14.4266 -11.074 -13.5372 -15.2314 -10.6245 -8.868501 -8.091001 -9.178 -9.1785 
-1.4985 -4.0535 -1.7565 -9.713 -9.139001 -2.186 -1.4985 -5.771 -3.3435 -1.7565 -3.1385 -2.3345 -5.448 -1.4985 -3.764 -1.756 -4.678 0 -1.756 -3.074 -1.7695 -6.291 -1.4985 -3.729 -1.756 -1.4985 -5.3435 -2.5045 -1.7695 -1.4985 -4.8225 -1.7565 -1.4985 -4.3305 0 
-4.5605 -4.5115 -12.4187 -18.9042 -10.8215 -3.339 -7.128 -7.610001 -4.7005 -4.388 -5.644 -7.3435 -6.1875 -4.874001 -4.9475 -5.8595 -4.678 -1.756 -4.566 -5.1765 -6.578001 -7 -4.763 -5.07 -3.0405 -7.3885 -7.1735 -4.334 -2.7955 -6.1195 -5.8645 -2.4195 -5.05 -4.3305 
-4.6195 -16.1505 -21.6099 -20.5867 -11.9745 -9.302501 -9.359501 -9.4575 -7.1315 -7.048501 -9.899 -7.848001 -7.7005 -6.067 -6.6925 -5.8595 -5.698 -4.566 -5.8385 -9.598501 -7.1955 -10.1465 -5.9565 -6.335 -9.146501 -9.214001 -9.015 -5.035 -7.513 -6.3855 -6.2945 -5.962501 -5.05 
-16.3975 -25.3417 -23.2924 -21.7397 -17.938 -11.6058 -10.214 -11.9333 -9.5415 -11.6377 -10.638 -9.291 -9.074501 -7.305 -6.6925 -7.211501 -8.5585 -5.8385 -10.0675 -10.1445 -10.2325 -10.628 -6.918 -12.7886 -10.543 -11.3421 -9.6765 -9.028001 -7.711 -6.787001 -9.311501 -5.962501 
-25.5887 -27.0242 -24.4454 -27.7032 -20.2413 -12.4603 -12.768 -14.3433 -14.2781 -12.3767 -12.081 -10.523 -9.780001 -7.305 -8.073501 -9.7355 -9.529501 -10.0675 -10.6935 -13.1815 -10.6295 -12.9151 -13.5914 -14.1851 -12.9705 -12.0036 -13.7243 -9.1005 -8.0115 -9.942501 -9.311501 
-1.4985 -5.5855 -1.7565 -8.253 -7.259501 -2.4945 -1.4985 -4.5735 -1.7565 -3.1385 0 -1.4985 -4.029 -1.7695 -7.7625 -2.985 -3.764 -2.4285 -5.294 0 -1.934 -3.994 -1.7695 -2.4265 -1.4985 -3.545 -3.729 -3.585 0 -1.4985 -4.53 -1.7565 -3.6385 -2.356 -3.9745 0 -3.1425 -2.489 -4.1895 -2.0935 -3.277 -1.7695 -5.4345 -2.356 -3.9745 -1.756 -1.7695 -3.511 -2.356 -2.4265 0 
-6.43 -6.852 -9.663501 -9.3485 -9.981001 -3.9315 -5.6505 -5.7035 -4.388 -3.1385 -1.4985 -5.353001 -4.395 -8.024 -9.007501 -5.591001 -6.0655 -7.2955 -5.294 -1.934 -4.095 -4.3645 -4.524 -4.51 -4.401 -6.562 -6.462 -3.585 -1.4985 -5.6575 -6.0055 -5.035 -5.4685 -6.0065 -3.9745 -3.1425 -3.7875 -5.3985 -5.8355 -4.694 -4.261 -5.768 -5.7815 -6.0065 -5.1055 -3.963 -4.633 -5.258 -4.606501 -2.4265 
-7.242501 -15.2612 -10.6235 -12.2874 -11.418 -8.5205 -5.962 -7.694 -4.388 -4.564 -5.353001 -6.599501 -12.2183 -9.194 -10.329 -7.639 -10.19 -7.2955 -7.0855 -4.095 -4.418 -7.466 -5.968 -7.564 -7.765 -9.002501 -6.462 -5.022501 -5.6575 -6.335001 -8.415501 -7.3175 -8.834001 -6.0065 -7.085 -3.7875 -6.024 -6.4075 -7.796 -5.32 -7.851501 -6.105 -9.226501 -6.912 -7.269 -6.8365 -5.758 -6.4825 -4.606501 
-15.8737 -16.2212 -13.5624 -13.7244 -16.007 -9.642501 -8.034 -7.694 -6.467 -8.995001 -6.599501 -14.5218 -13.3883 -10.4265 -12.377 -11.9113 -10.19 -8.929001 -9.109501 -4.418 -7.59 -8.779 -9.022501 -11.302 -9.371 -9.002501 -7.822 -9.1225 -6.335001 -8.585501 -9.7755 -9.058001 -8.834001 -9.403 -7.7285 -6.024 -7.088 -8.396 -8.267501 -8.764001 -8.309 -9.547501 -10.108 -8.604501 -9.568501 -8.080501 -6.8785 -6.4825 
-16.8337 -19.1601 -14.9994 -18.3134 -17.129 -11.7919 -8.034 -9.5655 -10.434 -10.2285 -14.5218 -15.6918 -14.6208 -12.4745 -16.6493 -11.9113 -12.2215 -11.277 -9.5655 -7.59 -8.873 -11.8889 -12.8675 -12.908 -9.371 -10.2595 -12.0856 -9.8655 -8.585501 -10.0275 -10.6495 -9.058001 -12.4271 -9.999001 -10.135 -7.088 -8.8885 -8.6335 -12.0753 -9.125001 -12.0095 -10.444 -11.8005 -10.717 -10.719 -9.4875 -6.8785 
