-4.759 
n/a 
n/a 
n/a 
n/a 
-4.759 
n/a 
n/a 
n/a 
n/a 
-4.759 
n/a 
n/a 
n/a 
n/a 
-4.759 
n/a 
n/a 
n/a 
n/a 
-3.098 -2.7295 -4.4625 -3.929 -3.873 -4.7365 0 -3.676 -8.2945 0 -3.8005 -1.756 -3.2615 -4.0225 -3.691 -2.4945 -3.183 -3.2295 -2.4265 -2.4265 -2.186 -3.355 -1.7565 -1.4985 -4.98 -7.557 -3.787 0 -7.231 -4.0685 
-5.5325 -5.989 -8.3035 -8.498 -8.989 -4.7365 -3.676 -13.0175 -8.2945 -3.8005 -5.2495 -4.788 -6.504 -8.9615 -6.250501 -4.863501 -5.5365 -5.3715 -4.801 -3.292 -4.764 -3.725 -2.4195 -6.212501 -13.0926 -11.8048 -3.787 -7.231 -11.7847 
-9.615 -9.367001 -13.1405 -13.7766 -8.989 -9.41 -13.0175 -13.0175 -12.405 -5.2495 -8.6815 -8.1485 -12.7902 -12.0092 -8.935501 -7.532001 -8.568501 -7.0755 -5.6365 -6.089 -4.7845 -4.0515 -7.006001 -15.1197 -17.3404 -11.8048 -12.0642 -11.7847 
-12.8 -14.8806 -18.4191 -13.7766 -13.7785 -18.8637 -13.0175 -17.128 -13.854 -8.6815 -12.205 -14.5777 -15.8379 -14.6942 -11.8638 -10.0815 -9.981 -7.942501 -8.3745 -6.1115 -5.0715 -8.8815 -16.0526 -19.3675 -17.3404 -20.082 -16.6179 
-18.3136 -20.1592 -18.4191 -18.5661 -23.2322 -18.8637 -17.128 -18.577 -17.286 -12.205 -18.6342 -17.6254 -18.5229 -17.6225 -14.4133 -11.494 -11.2662 -10.5125 -8.3905 -6.4515 -9.5625 -18.1401 -20.3004 -19.3675 -25.6176 -24.6357 
-6.3375 -3.098 -4.5435 -3.222 -3.435 0 -3.676 0 -4.2815 0 -3.8005 -3.291 -1.7695 -3.691 -2.4265 -4.612 -1.934 -3.859 -3.5015 -9.207001 -3.787 0 -4.852 -7.607501 -3.787 
-9.897 -8.345 -7.593501 -4.8945 -3.435 -3.676 -3.676 -4.2815 -4.2815 -3.8005 -7.47 -4.6915 -5.5435 -6.4005 -5.8475 -5.952 -5.832 -5.776 -13.7035 -13.351 -3.787 -4.852 -9.508501 -9.649 
-15.629 -11.6668 -9.694 -4.8945 -8.281 -3.676 -7.0065 -4.2815 -6.686501 -7.47 -9.1215 -8.824501 -7.9065 -9.765501 -7.2685 -9.2355 -6.748001 -16.3112 -17.8475 -13.351 -8.460501 -9.508501 -11.7192 
-18.9508 -13.7673 -9.694 -9.6745 -8.281 -7.0065 -7.0065 -6.686501 -11.2724 -9.1215 -13.3365 -10.3615 -11.5699 -10.246 -10.8482 -9.3865 -17.7474 -20.4552 -17.8475 -18.0245 -13.9028 -11.7192 
-21.0513 -13.7673 -14.5984 -9.6745 -12.6685 -7.0065 -8.8395 -11.2724 -12.9239 -13.3365 -14.8735 -14.1979 -12.0504 -15.3047 -10.9992 -20.6519 -21.8914 -20.4552 -22.521 -23.4668 -16.1135 
-2.5045 -2.0935 -2.5045 -3.873 -3.4425 -4.5005 -6.325 -3.401 -8.76 -3.787 0 -8.4565 -4.0685 -3.4425 -2.186 -3.183 -3.7515 -3.859 -3.5015 -2.5045 -4.2815 -1.7695 -3.676 -4.2815 0 -1.756 -3.8005 
-4.778 -5.2565 -6.5755 -6.015 -8.4595 -11.9057 -9.543501 -13.2596 -12.8414 -3.787 -8.4565 -13.0416 -6.821 -5.194 -4.533 -6 -7.9595 -5.776 -5.7065 -5.3865 -4.4915 -5.5605 -7.0065 -4.2815 -1.756 -5.53 
-7.676001 -10.048 -9.135 -11.8022 -15.9137 -15.1242 -19.6127 -17.341 -12.8414 -13.2897 -13.0416 -15.7941 -8.698 -7.582 -7.4595 -10.19 -9.476001 -8.259501 -9.015 -5.506001 -8.1955 -9.6855 -7.0065 -5.558001 -5.53 
-12.2311 -12.7857 -15.0518 -19.2564 -19.1322 -25.1934 -23.6941 -17.341 -22.3441 -17.8748 -15.7941 -17.6711 -11.2356 -10.044 -11.7481 -11.7065 -12.1115 -11.7466 -9.1225 -9.738501 -12.8299 -9.6855 -8.055 -6.654 
-14.9688 -18.7025 -22.506 -22.4749 -29.2014 -29.2748 -23.6941 -26.8437 -26.9292 -20.6273 -17.6711 -20.2087 -13.6976 -14.482 -13.2646 -14.342 -15.5986 -11.8541 -13.3902 -14.4139 -12.8299 -10.2155 -8.993501 
-4.426 -1.7565 -1.4985 -3.0835 -4.7285 -4.1555 -3.147 0 
-5.47 -2.4195 -3.535 -6.042 -8.4455 -5.77 -3.147 
-5.9535 -4.6785 -6.335501 -9.523001 -9.541501 -5.77 
-8.021 -7.476501 -10.0095 -10.7035 -9.541501 
-9.983001 -11.3061 -11.3 -10.7035 
