-4.759 
n/a 
n/a 
n/a 
n/a 
-4.759 
n/a 
n/a 
n/a 
n/a 
-4.759 
n/a 
n/a 
n/a 
n/a 
-4.759 
n/a 
n/a 
n/a 
n/a 
-5.1845 -4.6695 -4.179 -4.226 -1.4985 -4.7155 -1.7565 -5.1645 0 -3.6085 -3.7805 -2.5195 -1.4985 -8.27 0 
-7.0515 -8.279501 -8.755001 -5.52 -6.2935 -6.7935 -6.994501 -5.1645 -3.6085 -7.304 -6.165 -3.1695 -9.271501 -8.27 
-11.7399 -12.8977 -9.502501 -10.634 -7.0345 -12.5045 -6.994501 -7.0415 -7.304 -10.051 -6.788 -11.1759 -9.271501 
-16.3581 -13.6452 -14.8507 -11.375 -12.9593 -12.5045 -9.262501 -9.3535 -10.051 -10.7728 -15.6838 -11.1759 
-17.1056 -18.9934 -15.5917 -17.2998 -12.9593 -14.7725 -11.7371 -10.7035 -10.7728 -19.6686 -15.6838 
-5.1845 -4.6695 -4.179 -3.43 -1.8085 -3.301 -3.8385 -3.9225 -1.4985 -5.1845 -4.2065 -2.9705 -4.111 -5.1645 0 -3.6085 -1.756 -2.8965 -3.6885 -3.7805 -1.7695 -4.0825 -3.539 0 
-7.0515 -8.279501 -7.568501 -4.6595 -4.019 -6.741 -7.488501 -4.463 -6.5205 -9.316 -6.969501 -5.2865 -10.985 -5.1645 -3.6085 -5.232 -3.751 -6.119 -7.861501 -5.99 -5.0155 -5.704 -3.539 
-11.7399 -11.7112 -8.781 -6.4745 -7.0895 -9.932501 -8.155001 -8.83 -9.673 -12.1634 -9.743501 -12.4241 -10.985 -7.0415 -5.232 -7.228001 -7.4045 -9.5165 -10.0035 -9.599001 -6.28 -5.704 
-15.1716 -12.9237 -10.7096 -9.7355 -10.2535 -10.365 -12.6306 -12.2433 -12.5204 -14.9374 -16.8721 -12.4241 -12.862 -8.440001 -7.228001 -8.629001 -10.757 -11.7279 -13.6125 -10.6755 -6.28 
-16.3841 -14.8523 -13.9706 -13.3215 -10.5945 -14.8406 -16.0439 -15.0907 -15.2944 -22.066 -16.8721 -14.3011 -14.2605 -9.573501 -8.629001 -12.2067 -12.9684 -15.3369 -14.689 -10.6755 
-5.1845 -4.3225 -2.4945 -3.383 -3.115 -4.0745 -3.1575 -5.1645 -1.756 -2.8965 -4.2915 -4.3225 0 
-7.6455 -6.175 -4.732 -6.819 -8.068001 -8.698 -8.730501 -7.008 -3.751 -5.294 -9.5015 -4.3225 
-9.48 -8.267501 -8.1285 -12.0906 -13.1793 -14.5752 -9.920501 -8.529 -6.527 -10.543 -9.5015 
-11.8333 -11.934 -13.5765 -17.2019 -19.0565 -15.7652 -11.4753 -9.269501 -12.622 -10.543 
-15.4998 -17.382 -18.6878 -23.0791 -20.2465 -17.32 -12.2158 -15.3627 -12.622 
-5.1845 -4.6695 -4.0135 -5.1645 0 -3.6085 -3.8195 -2.229 -4.4525 -2.5195 -5.1845 -3.1385 0 
-7.0515 -8.7535 -10.2335 -5.1645 -3.6085 -7.1305 -5.743 -6.485 -7.352 -7.594501 -7.4095 -3.1385 
-12.2139 -15.9959 -10.2335 -7.0415 -7.1305 -10.76 -9.375 -9.130501 -12.8928 -10.155 -7.4095 
-19.4563 -15.9959 -12.2681 -9.696 -10.76 -14.392 -12.1235 -14.9813 -15.4533 -10.155 
-19.4563 -18.0305 -14.9226 -14.2149 -14.392 -17.1405 -17.9743 -17.5418 -15.4533 
