-4.759 
n/a 
n/a 
n/a 
n/a 
-4.759 
n/a 
n/a 
n/a 
n/a 
-4.759 
n/a 
n/a 
n/a 
n/a 
-4.759 
n/a 
n/a 
n/a 
n/a 
-10.5885 -4.278 0 -4.0735 -12.16972 
-15.6625 -4.278 -4.0735 -17.11042 
-15.6625 -7.9925 -17.11042 
-19.6946 -21.52542 
-33.22752 
-1.934 -4.445 -4.7735 -4.302 0 -4.0735 -8.495501 0 
-5.803 -8.316 -9.077001 -4.302 -4.0735 -13.4362 -8.495501 
-9.585501 -13.7859 -9.077001 -9.4065 -13.4362 -13.4362 
-14.8564 -13.7859 -14.4843 -18.9104 -13.4362 
-14.8564 -19.1932 -23.9882 -18.9104 
-8.738501 0 -4.7735 -4.302 0 -4.0735 -12.16972 
-8.738501 -4.7735 -9.077001 -4.302 -4.0735 -17.11042 
-13.736 -9.077001 -9.077001 -9.4065 -17.11042 
-18.0395 -9.077001 -14.4843 -22.58462 
-18.0395 -14.4843 -27.66242 
-4.445 0 -4.7735 -6.982 0 -4.0735 -6.975 
-4.445 -4.7735 -8.3505 -6.982 -4.0735 -9.0725 
-8.316 -8.3505 -8.3505 -9.621 -9.0725 
-9.708 -8.3505 -9.633501 -15.8136 
-9.708 -9.633501 -16.0323 
