-4.759 
n/a 
n/a 
n/a 
n/a 
-4.759 
n/a 
n/a 
n/a 
n/a 
-4.759 
n/a 
n/a 
n/a 
n/a 
-4.759 
n/a 
n/a 
n/a 
n/a 
-3.664 -3.766 -2.915 -1.7565 -3.5965 -1.756 -4.677 -2.0935 -3.473 -1.7695 -3.935 -2.3335 -5.032 -3.074 0 
-7.732 -8.150001 -5.2705 -5.041 -5.0925 -6.455 -6.9285 -5.724501 -5.4725 -4.6555 -6.408 -7.394 -8.481501 -3.074 
-12.6354 -9.451 -6.8885 -6.438 -11.0637 -9.084001 -11.3315 -8.494501 -8.6355 -6.964 -11.7211 -11.6939 -8.481501 
-13.9364 -11.2296 -10.5035 -13.4966 -13.6927 -13.814 -14.1015 -12.1751 -11.2344 -12.4835 -16.021 -11.6939 
-15.715 -14.8446 -17.9681 -16.1256 -18.4227 -16.584 -17.7821 -14.774 -16.7539 -16.7834 -16.021 
-1.4985 -3.9115 -1.7565 -4.911 -1.4985 -3.881 -1.7565 -3.672 -2.915 -2.264 -3.5965 0 -1.756 -4.911 -1.4985 -4.677 -1.7565 -4.151 -4.103 -2.186 -3.672 -1.7695 -1.4985 -3.664 0 
-4.888 -5.341001 -6.1645 -5.8605 -5.357 -5.576 -5.323 -5.9905 -4.093 -5.5595 -3.5965 -1.756 -6.0905 -5.8605 -5.7585 -7.306 -6.522501 -8.6485 -6.2185 -4.538 -4.7445 -2.7955 -5.285501 -3.664 
-5.441 -8.9505 -7.006 -9.2795 -6.3545 -8.483001 -7.273 -7.836 -7.606 -5.5595 -5.0925 -6.0905 -7.056 -10.2865 -8.183001 -13.0778 -10.6735 -11.3856 -8.72 -5.1215 -5.543 -6.3565 -5.285501 
-8.977 -9.658501 -10.639 -9.356501 -9.1675 -9.445001 -8.801001 -10.159 -7.606 -6.9395 -9.384001 -7.056 -11.6898 -13.5302 -14.183 -17.2288 -13.4106 -13.8871 -10.468 -6.451 -8.201501 -6.3565 
-9.681001 -13.4763 -10.716 -12.5247 -10.486 -9.962501 -11.2528 -10.159 -9.093 -11.9104 -9.815001 -11.6898 -14.9335 -19.5302 -18.334 -19.9659 -15.9121 -15.6351 -11.7975 -8.694 -8.201501 
-5.3045 0 -2.7765 -4.224 -2.985 -3.509 -1.934 -4.161 -1.756 -4.241 -3.135 -3.777 -3.473 -1.934 -3.7375 -4.4005 
-5.3045 -2.7765 -6.193501 -7.1585 -6.724 -5.47 -6.348 -5.212 -5.463 -7.332 -7.173501 -6.141 -5.513 -6.299 -8.259001 
-7.366 -6.193501 -8.407001 -10.013 -8.123 -9.7305 -6.96 -9.1265 -8.664001 -11.8309 -10.2461 -8.364 -9.781 -11.5261 
-11.2854 -8.407001 -11.6821 -11.7188 -13.0089 -11.3899 -11.3389 -12.9291 -13.4091 -14.9035 -12.4691 -12.9878 -15.5333 
-13.4989 -11.6821 -13.3879 -16.6047 -14.6683 -15.7688 -15.1415 -17.6742 -16.4817 -17.1265 -17.0929 -18.7401 
-4.4005 -2.186 -3.074 -3.2955 -2.0935 -1.4985 -4.884 -2.0935 -1.4985 -3.0435 
-6.5845 -4.156 -5.43 -4.307 -2.9725 -6.472501 -6.462501 -2.9725 -4.4865 
-8.8695 -5.8835 -6.351501 -5.1685 -8.095 -7.8865 -7.363 -5.976 
-10.533 -6.6975 -7.2025 -10.286 -10.1 -8.4785 -10.36 
-11.9862 -7.519001 -12.3884 -12.291 -10.539 -11.6421 
