-4.759 
n/a 
n/a 
n/a 
n/a 
-4.759 
n/a 
n/a 
n/a 
n/a 
-4.759 
n/a 
n/a 
n/a 
n/a 
-4.759 
n/a 
n/a 
n/a 
n/a 
-1.8085 -3.6765 -1.934 -1.8085 -4.677 0 
-4.452 -5.201 -3.2685 -6.3175 -4.677 
-6.087 -6.403501 -7.507501 -6.3175 
-6.9345 -11.2013 -7.507501 
-11.9577 -11.2013 
-4.677 -1.7565 -3.8245 -1.7565 -3.5015 
-5.666 -5.058 -6.695 -4.97 
-8.904 -7.033 -10.5073 
-11.9202 -11.3761 
-16.2633 
-4.677 -3.3155 -4.221 -3.098 -2.871 -3.6765 
-7.3165 -7.802001 -7.2805 -4.554 -5.168 
-12.0574 -11.4703 -8.432501 -6.4555 
-15.7257 -12.6223 -10.5035 
-16.8777 -14.6933 
-9.463 -8.913 -12.16972 
-10.8215 -21.73152 
-23.64002 
n/a 
n/a 
