-4.759 
n/a 
n/a 
n/a 
n/a 
-4.759 
n/a 
n/a 
n/a 
n/a 
-4.759 
n/a 
n/a 
n/a 
n/a 
-4.759 
n/a 
n/a 
n/a 
n/a 
-3.3855 -4.371 -4.6835 -3.711 
-9.63 -10.66 -8.3675 
-15.991 -14.344 
-19.675 
n/a 
-3.3855 -8.995001 -4.4685 -3.3855 -4.745 
-14.3431 -13.6481 -6.0795 -5.819 
-18.9962 -15.2591 -8.254 
-20.6072 -17.4336 
-22.7817 
-3.3855 -3.115 -2.4265 -2.264 -2.3335 -4.238 -3.0465 -4.4785 0 
-6.775001 -4.63 -4.569 -4.6785 -6.648001 -7.4505 -5.5975 -4.4785 
-8.0625 -7.1825 -7.0045 -8.596001 -9.634501 -9.938001 -5.5975 
-10.316 -9.423 -11.2736 -11.7779 -12.1268 -9.938001 
-12.7875 -13.7989 -14.4555 -14.2702 -12.1268 
-3.3855 -3.423 -4.4785 -2.356 -4.5495 -2.871 0 
-5.302 -9.3985 -6.1785 -6.907001 -5.5545 -2.871 
-11.7665 -9.6525 -11.7429 -8.878 -5.5545 
-12.0205 -16.1721 -13.7139 -8.878 
-18.5401 -18.1431 -13.7139 
