-4.759 
n/a 
n/a 
n/a 
n/a 
-4.759 
n/a 
n/a 
n/a 
n/a 
-4.759 
n/a 
n/a 
n/a 
n/a 
-4.759 
n/a 
n/a 
n/a 
n/a 
-3.7855 0 -3.046 -4.571 
-3.7855 -3.046 -5.3015 
-6.890501 -5.3015 
-9.862201 
n/a 
-3.845 0 -3.046 -3.594 -3.768 
-3.845 -3.046 -6.688001 -5.2065 
-6.536 -6.688001 -8.784 
-11.3074 -8.784 
-13.4034 
-4.426 -1.7565 -1.4985 -3.6115 -4.7285 -4.1555 -3.147 0 
-5.47 -2.4195 -4.081 -6.5495 -8.4455 -5.77 -3.147 
-5.9535 -5.180501 -6.670501 -9.978001 -9.541501 -5.77 
-8.462501 -7.797 -10.054 -11.0524 -9.541501 
-10.2375 -11.2985 -11.1648 -11.0524 
-3.717 0 -3.046 -3.7865 -4.571 
-3.717 -3.046 -7.109 -7.718 
-6.579 -7.109 -12.1093 
-10.5535 -12.1093 
-15.5538 
