-4.759 
n/a 
n/a 
n/a 
n/a 
-4.759 
n/a 
n/a 
n/a 
n/a 
-4.759 
n/a 
n/a 
n/a 
n/a 
-4.759 
n/a 
n/a 
n/a 
n/a 
-12.16972 -9.4265 -12.16972 -12.16972 
-21.59622 -21.66582 -24.33944 
-33.83554 -33.83554 
-46.00526 
n/a 
-3.45 -2.9705 -3.4405 -2.6165 -4.0195 -5.915 -1.7695 -1.4985 -3.7435 
-5.748 -5.5315 -3.7415 -5.762 -9.351501 -7.930501 -2.7955 -4.5515 
-9.5865 -5.6585 -6.323 -11.6206 -11.6836 -9.103001 -5.940001 
-9.703501 -8.039001 -12.3108 -13.9527 -12.8561 -12.2753 
-12.3342 -14.2128 -14.6429 -15.1252 -16.0284 
-4.0215 -2.6165 -3.989 -2.0935 -3.554 
-7.437 -5.745501 -5.0175 -5.5975 
-10.718 -6.6625 -9.4785 
-11.635 -11.4043 
-16.3768 
-2.847 -8.34 -1.934 -3.7435 -2.5685 -3.0465 -3.7435 0 
-11.7938 -10.4675 -5.99 -6.7885 -5.961 -7.471 -3.7435 
-13.9213 -14.5235 -9.4855 -10.6128 -10.9497 -7.471 
-17.9773 -18.019 -13.4836 -15.6015 -10.9497 
-21.4728 -22.0171 -18.4723 -15.6015 
