-4.759 
n/a 
n/a 
n/a 
n/a 
-4.759 
n/a 
n/a 
n/a 
n/a 
-4.759 
n/a 
n/a 
n/a 
n/a 
-4.759 
n/a 
n/a 
n/a 
n/a 
-3.508 -2.341 -1.934 -1.8085 -4.889 -4.8115 -1.934 -1.8085 -4.297 -2.5045 -12.16972 -1.934 -10.437 -3.8145 -2.9965 -4.269 -3.152 -4.493 -1.756 -2.645 -3.1575 -3.304 -5.071 -5.39 
-5.413 -4.7825 -3.2685 -5.919001 -6.759501 -6.611 -3.2685 -5.6255 -6.675501 -15.36922 -14.10372 -13.3774 -14.3531 -6.775001 -7.1855 -6.461 -5.593 -5.8585 -3.898 -3.72 -5.193501 -9.095 -8.8455 
-8.231501 -6.276 -7.381001 -7.55 -7.510001 -7.961 -7.023 -7.741 -19.89502 -17.30322 -25.54712 -17.2935 -17.3136 -11.3376 -8.866 -7.504 -6.381001 -7.42 -5.4925 -5.369 -10.575 -13.1387 
-9.5455 -10.7457 -8.0705 -8.086 -8.819 -10.27 -9.330501 -21.17372 -21.82902 -28.74662 -29.46322 -20.254 -21.8762 -13.0181 -9.6285 -7.8435 -7.667 -7.4515 -7.0395 -10.8757 -14.6187 
-14.1986 -11.4352 -8.507 -9.112 -10.4945 -12.5775 -22.76982 -23.10772 -33.27242 -32.66272 -32.42372 -24.8166 -23.5567 -13.7806 -9.910501 -9.344001 -7.6905 -8.803 -12.7164 -14.9194 
-3.508 -2.341 0 -2.645 -3.1575 -2.9965 -3.1385 -3.152 -4.493 -1.756 -3.304 -4.874 -1.934 -1.8085 -4.377 -4.889 -4.9635 -3.9875 -1.8085 -4.297 -2.5045 -9.1075 -1.934 -4.628 -4.743 -2.229 -10.437 -3.8145 
-5.413 -2.341 -2.645 -3.72 -5.1975 -6.121 -5.219 -5.593 -5.8585 -5.554501 -7.812 -5.694 -3.2685 -5.0495 -8.05 -7.245001 -8.265 -5.392 -5.6255 -6.675501 -12.307 -11.08 -5.9605 -4.7515 -6.5015 -13.261 -14.3531 
-5.413 -5.383 -3.72 -5.3685 -7.065001 -7.754001 -6.315001 -6.381001 -8.2685 -8.529501 -8.231501 -6.6225 -6.923501 -8.267 -9.456 -9.717001 -8.997 -8.588 -7.741 -16.8328 -14.2795 -15.1065 -5.9845 -6.5135 -18.3759 -17.1771 
-8.427 -6.8765 -5.3685 -7.114 -8.686501 -8.2945 -6.867001 -8.5915 -8.591001 -8.6805 -8.719501 -9.3585 -9.504001 -9.540001 -12.1648 -10.226 -10.6885 -10.223 -18.1115 -18.8053 -18.306 -15.1305 -7.620501 -18.4243 -22.292 
-9.826 -8.7685 -7.114 -8.712501 -9.201501 -8.7725 -8.774501 -9.017501 -8.6955 -8.7545 -12.5269 -9.9235 -10.3425 -12.2244 -12.6738 -11.9175 -12.3235 -20.5935 -20.084 -22.8318 -18.33 -16.7665 -19.9431 -22.3404 
-3.508 -2.341 0 -2.9965 -3.1385 -3.152 -4.493 -1.756 -3.304 -3.7555 -4.308 -4.354 -1.934 -1.4985 -4.889 -4.8115 -4.0875 -3.9875 -1.4985 -4.297 -3.9615 -10.8075 0 -1.934 -10.437 -3.8145 -1.934 -4.628 -4.743 0 
-5.413 -2.341 -2.9965 -6.121 -5.219 -5.593 -5.8585 -5.554501 -7.805 -7.253 -6.091 -6.0095 -2.6125 -5.8525 -6.759501 -8.203 -8.835001 -4.653 -5.24 -7.888501 -15.5306 -10.8075 -1.934 -13.3774 -14.3531 -5.6785 -5.9605 -4.7515 -4.743 
-5.413 -4.9215 -6.121 -7.754001 -6.315001 -6.381001 -8.2685 -9.502001 -11.4335 -10.7495 -7.6295 -6.6835 -7.543 -7.963 -9.567 -13.8025 -9.305501 -7.6955 -8.728001 -19.7342 -15.5306 -13.0117 -13.3774 -17.2935 -16.2171 -9.1215 -5.9845 -4.7515 
-9.0065 -8.829 -7.754001 -8.2945 -6.867001 -8.5915 -13.2968 -13.2211 -14.93 -12.288 -8.363501 -12.2238 -8.785501 -10.099 -15.3243 -14.273 -12.4172 -11.4833 -20.8253 -19.7342 -17.7348 -24.4551 -17.2935 -19.1575 -19.6601 -9.126 -5.9845 
-13.1102 -10.7178 -8.2945 -8.7725 -8.774501 -13.6402 -17.0159 -16.7176 -16.4685 -13.022 -14.1392 -13.4663 -11.0953 -16.1527 -15.7948 -17.3847 -16.205 -23.5806 -20.8253 -21.9384 -29.1782 -28.3712 -19.1575 -22.6005 -19.6646 -9.126 
-3.508 -2.341 -6.6585 -2.229 -12.16972 -3.8145 -2.8645 -10.8075 -3.5015 -3.3155 -2.871 -1.7565 -1.4985 -4.297 -2.7415 -4.889 -5.764 -4.8635 -1.934 -2.9965 -3.1385 -4.493 0 -3.7515 -3.304 -3.1385 -3.3155 -4.874 0 
-5.413 -9.505001 -9.037001 -14.99372 -15.98422 -6.1185 -15.275 -14.5792 -5.1555 -5.7465 -3.5385 -2.4195 -5.24 -6.812 -8.3985 -8.762001 -11.5841 -4.9455 -5.5765 -6.121 -6.5305 -4.493 -3.7515 -6.4745 -6.2575 -6.4805 -8.318001 -4.874 
-13.7404 -12.2437 -22.04312 -18.80822 -18.28822 -18.9942 -19.0467 -16.2332 -7.3095 -6.592501 -3.7675 -6.3545 -7.1335 -12.8942 -12.4817 -14.8397 -11.6661 -8.197001 -8.2375 -8.853001 -6.5305 -9.106501 -6.4745 -9.9805 -9.419001 -10.051 -8.318001 
-16.4791 -25.24982 -25.85762 -21.11222 -31.16392 -22.7659 -20.7007 -18.3872 -8.453501 -6.811 -8.245001 -8.3815 -13.3345 -16.9774 -18.5594 -14.9217 -14.9176 -10.3815 -11.4691 -8.853001 -11.6972 -12.0557 -9.9805 -13.142 -13.0653 -10.051 
-29.48522 -29.06432 -28.16162 -33.98792 -34.93562 -24.4199 -22.8547 -19.5312 -8.660501 -11.2923 -10.7926 -14.7353 -17.4177 -23.0551 -18.6414 -18.1732 -17.1021 -13.8387 -11.4691 -14.1059 -14.6464 -15.5617 -13.142 -16.7883 -13.0653 
