-4.759 
n/a 
n/a 
n/a 
n/a 
-4.759 
n/a 
n/a 
n/a 
n/a 
-4.759 
n/a 
n/a 
n/a 
n/a 
-4.759 
n/a 
n/a 
n/a 
n/a 
-7.3635 -12.16972 -2.8645 -3.881 -1.4985 -3.3365 -4.3885 -3.8625 -1.756 -4.426 -2.356 -3.8235 -3.534 -2.7415 -4.0925 -1.934 -4.1045 0 
-20.08262 -15.03422 -5.4695 -6.022 -4.3335 -7.502 -7.2065 -5.304 -5.9935 -6.9545 -6.067 -6.096 -6.5565 -5.328 -5.2985 -5.346 -4.1045 
-22.94712 -17.63922 -6.922 -9.065001 -8.014 -10.8394 -8.4585 -9.245001 -8.504001 -9.504001 -8.786501 -8.493 -9.025001 -5.962 -7.4825 -5.346 
-25.55212 -19.09172 -10.176 -12.9489 -12.1902 -12.0914 -12.7465 -12.1647 -11.2895 -12.4469 -11.6929 -11.1333 -10.234 -7.951 -7.4825 
-27.00462 -22.34572 -14.0599 -17.1251 -13.4422 -16.3794 -15.6662 -14.9502 -14.2324 -15.3533 -14.3332 -12.3423 -12.223 -7.951 
-7.2505 -12.16972 -3.793 -1.4985 -3.716 -4.426 -1.7565 0 -6.6335 0 -2.356 -1.4985 -3.8235 -1.934 -1.4985 -3.158 -4.1045 0 
-20.05122 -15.96272 -5.771 -4.745 -7.554 -5.47 -1.7565 -6.6335 -6.6335 -2.356 -3.1615 -4.2775 -6.4345 -2.6125 -4.178 -6.283 -4.1045 
-23.84422 -17.94072 -8.5225 -8.6295 -8.0065 -5.47 -8.495501 -6.6335 -9.596001 -3.1615 -5.896501 -6.857 -7.17 -5.265 -7.5575 -6.283 
-25.82222 -20.69222 -12.5636 -9.054001 -8.0065 -12.7124 -8.495501 -9.596001 -10.4281 -5.896501 -8.5 -7.5655 -10.0815 -8.127501 -7.5575 
-28.57372 -24.73332 -12.9881 -9.054001 -15.6053 -12.7124 -10.6465 -10.4281 -13.1631 -8.5 -9.194501 -10.6465 -13.2304 -8.127501 
-8.012501 -5.0695 -2.9805 -4.894 -1.4985 -3.3365 -6.6335 -1.934 -4.1045 
-13.442 -7.859501 -7.400001 -6.6605 -4.3335 -10.5435 -8.982 -5.346 
-16.232 -12.4236 -8.058001 -9.388 -11.8049 -12.892 -12.6396 
-20.7961 -13.0816 -10.9977 -17.2348 -14.1534 -16.5496 
-21.4541 -16.0213 -18.8445 -19.5833 -17.811 
-1.8085 -3.6765 -4.281 -6.7175 -12.16972 -4.0925 -1.8085 -4.426 -2.356 -5.279 -1.934 -1.4985 -3.098 -1.7565 -3.716 -6.6335 -1.934 -4.1045 0 
-4.452 -6.6165 -10.985 -19.57342 -16.26222 -5.4985 -5.941 -6.9545 -7.651501 -6.75 -2.6125 -4.3095 -4.3615 -5.963 -10.329 -8.982 -5.346 -4.1045 
-7.353 -14.0971 -23.84092 -23.66592 -17.66822 -9.5175 -8.1645 -12.7028 -9.1385 -7.396 -5.285501 -4.5915 -9.533501 -12.8612 -12.6775 -12.6396 -5.346 
-14.625 -26.95302 -27.93342 -25.07192 -21.68722 -12.1228 -14.3538 -14.1898 -10.2705 -10.3215 -5.3625 -9.763 -16.5317 -15.2097 -16.3351 -12.6396 
-27.48092 -31.04552 -29.33942 -29.09092 -24.29252 -18.3121 -15.8408 -15.3218 -13.196 -10.7275 -9.9805 -16.7996 -18.8802 -18.8673 -16.3351 
