-4.759 
n/a 
n/a 
n/a 
n/a 
-4.759 
n/a 
n/a 
n/a 
n/a 
-4.759 
n/a 
n/a 
n/a 
n/a 
-4.759 
n/a 
n/a 
n/a 
n/a 
-2.1715 -3.748 -4.02 -4.994 -4.4685 -3.9815 -4.088 0 
-4.922501 -6.9875 -8.786 -10.281 -8.403 -9.1715 -4.088 
-7.896001 -12.1271 -14.7112 -14.4753 -14.5246 -9.1715 
-13.3372 -18.0523 -18.9055 -20.5969 -14.5246 
-19.2624 -22.2466 -25.0271 -20.5969 
-1.4985 -6.2775 -6.598001 -2.674 -4.02 -2.645 -3.1575 -2.1715 -5.8465 -2.186 -3.304 -6.2775 
-7.5345 -13.7933 -9.178 -8.0625 -7.057 -3.72 -4.896501 -7.3205 -7.977 -5.941 -8.698501 
-15.5923 -16.3733 -14.9437 -10.757 -7.5105 -5.190001 -9.550501 -9.422501 -12.0942 -11.9415 
-18.1723 -22.139 -17.6382 -11.2105 -8.898001 -9.658001 -11.6799 -13.5923 -18.0947 
-23.938 -24.8335 -18.0917 -12.598 -13.8748 -11.7954 -15.8497 -19.5928 
-3.0365 -2.4945 -4.994 -4.6915 -4.167 -2.9705 -2.674 -1.8085 -8.561501 -1.7565 -2.645 -3.1575 -2.1715 -3.748 0 
-3.688 -7.4525 -9.703501 -7.213 -6.877 -4.904 -3.63 -9.969501 -9.546 -4.8395 -3.72 -4.896501 -4.922501 -3.748 
-7.696001 -12.4526 -12.8016 -9.7685 -7.894001 -6.092 -12.7974 -10.2795 -12.6296 -5.076 -5.190001 -5.9475 -4.922501 
-12.8869 -15.5507 -15.3571 -10.5665 -9.1245 -15.7542 -13.1074 -13.3631 -12.8661 -6.259 -6.252 -5.9475 
-15.985 -18.1062 -16.1551 -11.797 -18.9287 -16.0642 -16.191 -13.5996 -14.0491 -7.331501 -6.252 
-3.0365 -2.4945 -3.304 -7.227 -2.356 -2.645 -3.1575 -1.8085 -3.748 -4.02 
-3.688 -6.384 -11.1415 -9.703501 -4.8075 -3.72 -4.4255 -5.1845 -6.9875 
-7.083001 -14.8481 -13.618 -12.2582 -5.207 -4.8385 -6.3525 -8.804501 
-15.7263 -17.3246 -16.1727 -12.6577 -6.453001 -6.384 -9.684 
-18.2028 -19.8793 -16.5722 -13.9037 -6.936501 -10.1505 
