-4.759 
n/a 
n/a 
n/a 
n/a 
-4.759 
n/a 
n/a 
n/a 
n/a 
-4.759 
n/a 
n/a 
n/a 
n/a 
-4.759 
n/a 
n/a 
n/a 
n/a 
-4.613 0 -12.16972 0 -5.943501 0 
-4.613 -12.16972 -12.16972 -5.943501 -5.943501 
-17.19452 -12.16972 -18.11322 -5.943501 
-17.19452 -18.11322 -18.11322 
-23.13802 -18.11322 
-4.613 -12.16972 0 -5.943501 0 
-17.19452 -12.16972 -5.943501 -5.943501 
-17.19452 -18.11322 -5.943501 
-23.13802 -18.11322 
-23.13802 
-4.613 -12.16972 0 -5.9045 0 
-17.19452 -12.16972 -5.9045 -5.9045 
-17.19452 -18.07422 -5.9045 
-23.09902 -18.07422 
-23.09902 
-4.613 0 -12.16972 0 
-4.613 -12.16972 -12.16972 
-17.19452 -12.16972 
-17.19452 
n/a 
