-4.759 
n/a 
n/a 
n/a 
n/a 
-4.759 
n/a 
n/a 
n/a 
n/a 
-4.759 
n/a 
n/a 
n/a 
n/a 
-4.759 
n/a 
n/a 
n/a 
n/a 
-3.0365 -2.4945 -5.7795 -4.9405 -1.934 -9.9495 
-3.688 -9.8015 -11.3106 -6.5405 -12.8899 
-9.998001 -15.514 -12.9106 -18 
-15.8615 -17.114 -24.3701 
-17.4615 -28.5735 
-9.753 -4.6805 -1.7565 -5.7795 -4.9405 
-14.5499 -4.722 -8.257501 -11.3106 
-14.5914 -11.874 -13.9264 
-21.7434 -17.5429 
-27.4123 
-12.16972 -2.8645 -4.9565 -12.16972 0 
-15.03422 -8.5655 -17.72722 -12.16972 
-20.73522 -22.13982 -17.72722 
-34.30954 -22.13982 
-34.30954 
-12.16972 -2.7415 -3.43 -2.925 -1.7565 -5.7795 -3.6185 
-14.91122 -4.913 -5.0455 -4.898 -8.257501 -8.612 
-17.08272 -6.5625 -5.285 -11.8242 -11.2278 
-18.73222 -6.7475 -12.5798 -14.7945 
-18.91722 -14.0811 -15.5501 
