-4.759 
n/a 
n/a 
n/a 
n/a 
-4.759 
n/a 
n/a 
n/a 
n/a 
-4.759 
n/a 
n/a 
n/a 
n/a 
-4.759 
n/a 
n/a 
n/a 
n/a 
-4.361 -3.826 -4.126 -2.95 -2.186 0 -2.543 -4.3365 
-10.2285 -6.2925 -7.278501 -4.817 -2.186 -2.543 -6.2635 
-13.086 -9.603001 -8.710501 -4.817 -5.592 -6.2635 
-16.3965 -11.5492 -8.710501 -7.1685 -8.3245 
-18.3427 -11.5492 -11.3868 -9.428 
-3.826 -3.8315 -4.126 -4.739 -2.186 -2.543 -4.3365 
-8.503 -8.3745 -8.682001 -6.188001 -5.592 -6.2635 
-13.6412 -13.3653 -10.048 -9.863501 -8.3245 
-18.632 -14.7313 -13.7187 -12.8702 
-19.998 -18.402 -16.7254 
-3.8665 -6.862 -4.739 -2.186 0 -2.543 -4.3365 
-9.913501 -11.117 -6.188001 -2.186 -2.543 -6.2635 
-14.2287 -12.566 -6.188001 -5.592 -6.2635 
-15.6777 -12.566 -9.863501 -8.3245 
-15.6777 -16.2415 -12.8702 
-4.0535 -2.95 -2.0935 -6.614501 0 -2.543 -4.3365 
-6.974 -4.4955 -9.632501 -6.614501 -2.543 -6.2635 
-8.159 -12.5259 -9.632501 -9.589001 -6.2635 
-16.4156 -12.5259 -12.607 -13.3397 
-16.4156 -15.5004 -16.3577 
