-4.759 
n/a 
n/a 
n/a 
n/a 
-4.759 
n/a 
n/a 
n/a 
n/a 
-4.759 
n/a 
n/a 
n/a 
n/a 
-4.759 
n/a 
n/a 
n/a 
n/a 
-2.871 -3.158 -3.882 0 -1.8085 -3.8195 -2.7415 -5.367 -3.3255 -1.8085 -5.1315 -2.0935 -1.4985 -3.0835 -2.95 -1.934 -2.688 -3.586 -3.2875 -1.934 -1.4985 -4.778 -2.3335 -4.3895 0 -3.676 -2.7415 -4.1605 -2.5045 -1.4985 -3.2825 -1.934 -1.4985 -3.3825 -1.7565 -4.3225 -2.356 -3.811 0 
-4.729 -5.688001 -3.882 -1.8085 -5.3355 -5.97 -7.0035 -7.828 -4.441 -6.579 -7.018001 -2.9725 -3.535 -4.3945 -4.54 -4.282 -3.615 -4.582 -5.248 -2.6125 -6.215 -6.832001 -5.9385 -4.3895 -3.676 -6.2495 -6.438 -6.108 -3.583 -3.712 -5.0275 -2.6125 -4.4135 -4.3095 -6.105 -6.009 -5.900001 -3.811 
-6.2755 -5.688001 -5.9865 -5.3355 -7.914001 -8.132 -9.124001 -8.521501 -8.519 -7.9655 -8.0415 -4.594501 -4.569 -5.361 -7.002 -4.681 -4.585 -6.414001 -5.8105 -6.851501 -7.6635 -7.812 -5.9385 -8.969501 -6.2495 -10.1425 -7.171 -7.184 -5.8065 -5.315 -5.7285 -5.2155 -4.563 -9.125501 -7.959001 -9.842001 -5.900001 
-6.2755 -7.510001 -9.027 -7.914001 -10.1765 -10.5403 -9.6245 -12.8413 -10.4675 -8.948 -9.558001 -4.791 -5.404 -7.909 -7.297 -5.224 -6.415501 -7.190001 -9.703 -7.9635 -7.896 -7.812 -9.59 -10.7335 -10.1425 -10.9865 -7.975 -7.8815 -7.147 -5.8675 -9.524501 -5.3605 -9.389001 -10.523 -12.0478 -9.842001 
-7.9985 -10.674 -10.329 -10.1765 -12.7152 -11.0408 -13.9665 -14.7898 -11.45 -10.4675 -9.670501 -5.4575 -8.095501 -8.1405 -7.848 -6.6815 -7.193 -10.503 -10.6365 -8.045001 -7.896 -11.5461 -11.3598 -14.6265 -10.9865 -11.7905 -8.751 -8.7915 -7.443501 -9.860001 -9.870001 -10.354 -10.6225 -14.6118 -12.0478 
-2.3345 -3.291 -3.158 0 -1.4985 -3.8195 -2.9705 -2.186 -4.987 -1.934 -2.688 -3.586 -2.4945 -3.6515 -1.7695 -3.6915 -1.934 -1.8085 -3.891 -3.3755 0 0 -2.5195 -1.4985 -4.3895 -3.277 -3.676 -4.4565 -1.934 -3.915 -3.9515 0 
-6.194 -4.883 -3.158 -1.4985 -4.771 -6.3255 -3.89 -5.969501 -6.654 -4.282 -3.615 -6.848001 -4.7215 -3.9135 -5.1405 -5.7075 -3.2685 -5.284 -7.512501 -3.3755 0 -2.5195 -3.1695 -7.741501 -8.226 -7.493501 -7.975 -6.2635 -6.1335 -5.72 -3.9515 
-6.8895 -4.883 -4.725 -4.771 -6.809 -7.0545 -7.5965 -7.826 -9.8065 -4.681 -6.8855 -9.067 -4.83 -6.935 -7.2055 -7.2 -6.449501 -8.5675 -7.512501 -3.3755 -2.5195 -3.1695 -9.623501 -11.3362 -13.6763 -12.7073 -8.891001 -10.9826 -8.1945 -5.72 
-6.8895 -6.154 -7.925 -6.809 -7.5215 -10.292 -9.355 -11.0691 -10.313 -7.335 -9.1145 -9.189501 -7.719501 -8.852 -8.651 -10.3815 -8.636001 -8.5675 -7.512501 -5.5865 -3.1695 -9.623501 -13.2506 -16.7865 -18.8901 -13.6233 -14.2051 -13.0436 -8.1945 
-7.936501 -9.127001 -9.573 -7.5215 -11.003 -12.0505 -12.7555 -11.5756 -12.967 -9.4635 -9.236501 -12.1674 -9.6365 -9.9715 -12.0685 -12.568 -8.636001 -8.5675 -10.248 -6.257501 -9.623501 -13.2506 -18.7009 -22.0003 -19.8061 -18.9374 -16.2661 -13.0436 
-3.0835 -3.891 -4.6695 -2.264 -5.1315 -4.5445 -2.5045 -2.688 -3.586 -1.934 -1.4985 -3.4635 -3.158 0 -5.197 -3.676 -2.7415 -4.0885 -4.6695 -2.356 -4.38 -3.433 -1.756 -3.915 
-6.359 -8.034 -7.166 -7.9895 -9.635 -7.113501 -5.448501 -3.615 -5.9245 -2.6125 -3.6265 -5.7285 -3.158 -5.197 -9.146 -6.2495 -6.606 -8.627501 -7.1035 -6.0165 -7.134501 -4.713 -5.414001 
-10.6875 -10.7175 -13.4191 -12.785 -12.3456 -9.641001 -5.9385 -5.9565 -6.6705 -4.773 -5.7395 -5.7285 -8.315001 -9.146 -12.0837 -9.852501 -12.0652 -11.6717 -11.153 -8.278001 -7.8925 -8.309501 
-13.371 -16.9706 -18.2146 -15.4956 -14.8731 -9.760501 -8.2995 -6.708 -9.311001 -6.6445 -5.7395 -11.1303 -12.6266 -12.0837 -15.6867 -15.5621 -15.1094 -15.7212 -13.4145 -8.881001 -11.751 
-19.6241 -21.7661 -20.9252 -18.0231 -14.9926 -13.0553 -9.107 -9.375 -10.0645 -6.6445 -11.1473 -15.4419 -15.5643 -15.6867 -21.3963 -18.6063 -19.1589 -17.9827 -14.0175 -12.9527 
-1.4985 -3.291 -3.158 0 -3.486 -2.688 -3.586 -4.24 -5.1315 -4.69 -3.891 -3.335 -1.7565 -4.1655 -3.9515 -1.934 -4.668 -4.778 0 -3.676 -2.7415 -1.4985 -4.86 -1.934 -1.4985 -3.3825 -1.7565 -6.5965 0 
-3.9665 -4.883 -3.158 -3.486 -7.1165 -3.615 -8.252001 -10.862 -10.115 -8.231501 -7.4995 -5.6425 -5.6785 -6.4015 -5.795 -5.9465 -7.7145 -4.778 -3.676 -6.2495 -4.063 -5.9835 -6.085 -2.6125 -4.4135 -4.3095 -8.4305 -6.5965 
-5.7045 -4.883 -7.304001 -7.1165 -8.017 -8.4305 -15.1026 -15.8455 -13.8015 -12.2476 -10.0995 -9.494 -7.529 -8.245001 -10.3675 -8.0755 -7.7145 -8.2925 -6.2495 -7.495 -7.6975 -7.2835 -6.5155 -5.2155 -4.563 -10.5035 -8.4305 
-5.7045 -8.352 -11.5507 -8.017 -13.1521 -15.4243 -20.0861 -19.532 -17.8176 -14.8476 -14.005 -11.5177 -9.003 -12.9815 -12.4965 -8.0755 -11.4212 -10.31 -7.495 -10.586 -8.356001 -7.935 -7.53 -5.3605 -10.5745 -10.5035 
-9.804001 -13.2109 -12.4512 -13.1521 -20.1459 -20.4078 -23.7726 -23.5481 -20.4176 -18.7531 -16.0287 -12.9917 -14.0233 -15.1105 -12.4965 -11.8494 -13.4387 -10.77 -10.586 -11.2445 -9.050501 -9.276501 -7.62 -11.5122 -10.5745 
