-4.759 
n/a 
n/a 
n/a 
n/a 
-4.759 
n/a 
n/a 
n/a 
n/a 
-4.759 
n/a 
n/a 
n/a 
n/a 
-4.759 
n/a 
n/a 
n/a 
n/a 
-8.842501 -1.756 -9.6955 -4.481 -2.7415 -5.964 -9.900001 
-9.967001 -12.4601 -14.3153 -6.1815 -9.098001 -16.4946 
-20.7681 -17.0799 -16.0158 -13.1696 -19.9078 
-25.3879 -18.7804 -23.0039 -23.9794 
-27.0884 -25.7685 -33.8137 
-8.696 -2.7415 -4.2215 -2.5045 -1.4985 -4.481 -1.7565 -8.842501 -1.756 -7.172 0 
-10.784 -4.7885 -6.628 -3.583 -5.679 -5.315001 -10.022 -9.967001 -8.844501 -7.172 
-12.831 -7.112 -7.725501 -7.283 -5.7965 -10.688 -10.3595 -17.1525 -8.844501 
-15.1545 -8.0755 -9.537001 -7.3545 -10.717 -10.757 -17.545 -17.1525 
-16.118 -9.748501 -9.545501 -12.5994 -10.7745 -17.9425 -17.545 
-8.978001 -2.186 -1.4985 -8.436001 -1.7565 -8.842501 -1.756 -7.172 
-11.4632 -3.339 -10.1425 -9.699001 -10.022 -9.967001 -8.844501 
-12.6162 -12.4984 -10.56 -18.0277 -10.3595 -17.1525 
-21.7756 -12.9159 -18.8887 -18.3652 -17.545 
-22.1931 -21.2446 -19.2262 -25.5507 
-1.4985 -4.481 0 -8.978001 -2.7415 -4.2215 -1.7695 -8.842501 -1.756 -7.172 
-5.679 -4.481 -8.978001 -12.0187 -4.7885 -5.594 -10.281 -9.967001 -8.844501 
-5.679 -14.4094 -12.0187 -14.0657 -6.463 -14.9545 -11.7531 -17.1525 
-16.625 -17.4501 -14.0657 -15.7402 -15.9183 -16.4266 -18.9386 
-19.6657 -19.4971 -15.7402 -25.1955 -17.3904 -23.6121 
