-4.759 
n/a 
n/a 
n/a 
n/a 
-4.759 
n/a 
n/a 
n/a 
n/a 
-4.759 
n/a 
n/a 
n/a 
n/a 
-4.759 
n/a 
n/a 
n/a 
n/a 
-3.6055 -3.1715 -4.445 0 -4.156 -4.1445 0 -2.186 -4.645 -4.0675 0 
-6.009501 -6.881001 -4.445 -4.156 -6.7185 -4.1445 -2.186 -6.196 -7.757501 -4.0675 
-9.3085 -6.881001 -8.1745 -6.7185 -6.7185 -6.0595 -6.196 -8.530001 -7.757501 
-9.3085 -9.0845 -11.35 -6.7185 -8.668 -8.594001 -8.530001 -8.530001 
-11.886 -12.7408 -11.35 -8.668 -11.4189 -11.2936 -8.530001 
-3.345 -3.1715 -4.445 0 -3.8385 0 -2.186 -3.074 -3.917 -4.0675 0 
-5.613501 -6.881001 -4.445 -3.8385 -3.8385 -2.186 -4.156 -6.844 -8.094 -4.0675 
-9.1315 -6.881001 -8.547501 -3.8385 -5.8535 -4.156 -7.9865 -10.674 -8.094 
-9.1315 -11.2125 -8.547501 -5.8535 -8.0415 -7.9865 -12.0785 -10.674 
-13.6878 -11.2125 -11.2713 -8.0415 -11.9062 -12.0785 -12.0785 
-3.6055 -7.195 -2.186 -4.0675 -4.645 0 
-10.7665 -9.1885 -5.7005 -7.036 -4.645 
-12.76 -12.7444 -8.212 -7.036 
-16.3159 -15.2559 -8.212 
-18.8274 -15.2559 
-3.345 -1.756 -3.6055 -3.468 -4.445 0 -4.156 -4.3345 0 -2.186 -4.645 -4.0675 0 
-5.2935 -5.005 -8.442 -7.9125 -4.445 -4.156 -7.116 -4.3345 -2.186 -6.196 -7.757501 -4.0675 
-5.4295 -9.932501 -13.1527 -7.9125 -8.1745 -7.116 -7.116 -6.3455 -6.196 -8.530001 -7.757501 
-10.564 -14.6824 -13.1527 -12.032 -11.7475 -7.116 -9.096001 -10.0855 -8.530001 -8.530001 
-15.3139 -14.6824 -17.2722 -15.605 -11.7475 -9.096001 -12.9826 -12.4927 -8.530001 
