-4.759 
n/a 
n/a 
n/a 
n/a 
-4.759 
n/a 
n/a 
n/a 
n/a 
-4.759 
n/a 
n/a 
n/a 
n/a 
-4.759 
n/a 
n/a 
n/a 
n/a 
-2.9805 -2.186 -1.4985 -4.235 -1.7565 -3.0835 -9.000501 -8.164001 
-4.1635 -3.339 -5.1495 -5.388 -5.237 -13.2942 -9.946001 
-5.312 -6.543 -5.680501 -9.3585 -16.0575 -14.2397 
-7.2535 -6.73 -9.814 -20.3328 -17.003 
-7.362501 -11.1969 -20.8535 -21.2783 
-2.9805 -2.186 -1.4985 -4.235 -1.7565 -8.826501 -6.864 -2.3085 
-4.1635 -3.339 -5.1495 -5.388 -10.111 -10.985 -8.632 
-5.312 -6.543 -5.680501 -14.5247 -12.2695 -12.753 
-7.2535 -6.73 -14.966 -16.6832 -14.0375 
-7.362501 -16.3489 -17.1245 -18.4512 
-3.1495 -3.6765 -3.0835 -8.826501 -8.164001 -4.235 0 
-8.278501 -6.875 -13.1202 -10.523 -12.9226 -4.235 
-11.8396 -17.6537 -14.8167 -15.2816 -12.9226 
-22.6183 -19.3502 -19.5753 -15.2816 
-24.3148 -24.1088 -19.5753 
-2.9805 -2.7415 -1.4985 -4.235 -1.7565 -8.826501 -8.164001 -3.0835 0 
-4.004 -4.063 -5.1495 -5.388 -10.111 -10.523 -11.7711 -3.0835 
-5.390501 -6.791 -5.680501 -14.5247 -11.8075 -14.1301 -11.7711 
-7.361501 -6.894001 -14.966 -16.2212 -15.4146 -14.1301 
-7.456 -16.4235 -16.6625 -19.8283 -15.4146 
