-4.759 
n/a 
n/a 
n/a 
n/a 
-4.759 
n/a 
n/a 
n/a 
n/a 
-4.759 
n/a 
n/a 
n/a 
n/a 
-4.759 
n/a 
n/a 
n/a 
n/a 
-3.0835 -3.473 0 -5.1845 -1.934 -7.95 
-6.9355 -3.473 -5.1845 -7.9875 -10.7335 
-6.9355 -8.821 -7.9875 -17.0872 
-13.0703 -12.1464 -17.0872 
-16.3957 -21.2461 
-3.0835 -3.522 0 -8.1485 -1.934 -6.1415 
-6.3975 -3.522 -8.1485 -10.019 -8.011001 
-6.3975 -12.4339 -10.019 -16.1168 
-16.0052 -14.3044 -16.1168 
-17.8757 -20.4022 
-3.0835 -4.867 0 -5.1845 -3.1385 -1.934 -5.298 
-7.389 -4.867 -5.1845 -7.4095 -4.522 -6.9815 
-7.389 -11.015 -7.4095 -8.46 -9.809 
-13.9686 -13.24 -8.46 -14.244 
-16.1936 -14.2905 -14.244 
-4.1035 -3.522 0 -9.9305 -1.934 -5.298 0 
-7.897 -3.522 -11.2249 -13.1559 -6.9815 -5.298 
-7.897 -15.4146 -13.1559 -18.748 -6.9815 
-20.3222 -17.3456 -18.748 -18.748 
-22.2532 -22.9377 -18.748 
