-4.759 
n/a 
n/a 
n/a 
n/a 
-4.759 
n/a 
n/a 
n/a 
n/a 
-4.759 
n/a 
n/a 
n/a 
n/a 
-4.759 
n/a 
n/a 
n/a 
n/a 
-3.717 -2.988 0 -14.393 0 -8.878 -1.934 -3.647 -4.2395 -3.2615 -2.3335 -3.717 -2.5235 -4.487 -3.53 0 
-6.506001 -2.988 -11.026 -11.026 -5.709001 -8.627001 -5.268 -7.52 -7.981 -5.0495 -6.7165 -4.31 -6.714001 -7.667 -3.53 
-6.506001 -8.408501 -8.269 -9.958501 -9.092501 -13.1455 -9.6 -11.9751 -9.712501 -8.835501 -8.299001 -8.662001 -8.137001 -7.667 
-11.407 -7.789001 -8.979 -13.3957 -13.4167 -17.7487 -14.0551 -13.7066 -13.7175 -9.6155 -12.7126 -9.517501 -8.137001 
-11.2555 -9.092501 -13.692 -18.0162 -17.7487 -22.2038 -15.7866 -17.7116 -14.4975 -14.2415 -13.5681 -9.517501 
-1.934 -3.647 -2.911 -3.974 -3.5045 -2.988 0 -11.38 0 -8.878 0 -3.321 -3.327 -6.581 
-5.268 -5.2475 -4.4735 -7.0725 -7.525001 -2.988 -9.440001 -9.440001 -5.709001 -5.709001 -3.321 -5.0155 -12.24 
-7.0275 -6.4415 -7.158 -12.3418 -7.525001 -9.497001 -7.623 -9.3125 -5.709001 -9.725 -5.0155 -14.3456 
-8.1245 -9.7788 -13.4751 -12.3418 -14.6715 -9.619 -8.949 -8.949 -9.725 -11.7719 -14.3456 
-12.0324 -16.0959 -13.4751 -19.4883 -14.6715 -11.0489 -8.9495 -14.3145 -11.7719 -21.3536 
-3.3165 -1.7695 -3.647 -2.911 -1.756 -3.5045 -2.988 0 -17.095 0 -8.878 -3.6845 -2.5235 -4.487 -4.0285 -1.756 -3.53 -1.756 -3.717 
-3.881 -5.3465 -5.2475 -5.0065 -5.085 -7.525001 -2.988 -15.561 -15.561 -5.709001 -10.3625 -5.153 -6.714001 -8.0825 -5.033 -4.8225 -5.378 -5.358 
-6.689 -7.31 -7.046 -7.500501 -9.212501 -7.525001 -11.825 -11.6855 -14.0455 -10.468 -12.634 -9.651 -8.443001 -8.5865 -5.1 -6.254 -7.751 
-8.5295 -7.95 -10.5745 -12.1378 -9.212501 -12.914 -10.1025 -10.1225 -15.9147 -12.634 -17.132 -11.8806 -8.783501 -8.652 -6.6405 -8.582001 
-9.313001 -12.6161 -15.2118 -12.1378 -15.3565 -13.1455 -10.2165 -16.2693 -18.4353 -17.132 -19.3616 -12.2211 -8.841001 -9.5205 -8.9615 
-2.988 0 -14.393 0 -8.878 -2.3345 -3.3425 -2.3615 -1.934 -3.647 -2.911 -2.7295 -2.7765 -3.581 -2.264 -4.487 -3.3255 -1.8085 -7.311501 0 
-2.988 -11.026 -11.026 -5.709001 -9.104001 -4.554 -4.77 -4.886 -5.268 -5.2475 -6.295501 -4.065 -5.837501 -5.328 -6.9875 -8.147 -4.441 -9.626 -7.311501 
-8.408501 -8.269 -9.958501 -9.391001 -12.131 -5.289 -7.381001 -8.255 -7.0275 -8.351 -7.733001 -8.0485 -6.8785 -10.1385 -10.238 -9.254 -13.1623 -9.626 
-7.789001 -8.979 -13.6942 -12.1088 -12.7428 -9.104 -10.523 -9.922501 -10.1675 -9.887 -12.3377 -9.01 -12.7398 -13.5822 -11.345 -18.6221 -13.1623 
-9.092501 -13.9905 -16.7083 -12.7428 -17.0066 -12.5098 -12.1905 -12.8781 -11.7035 -14.3887 -13.2992 -15.0965 -16.1835 -14.6892 -20.7131 -18.6221 
