-4.759 
n/a 
n/a 
n/a 
n/a 
-4.759 
n/a 
n/a 
n/a 
n/a 
-4.759 
n/a 
n/a 
n/a 
n/a 
-4.759 
n/a 
n/a 
n/a 
n/a 
-3.5385 -1.756 -3.5585 -4.319 -1.7695 -4.3845 -2.356 -3.595 
-4.657 -5.159 -7.857 -5.752 -4.8485 -5.5085 -4.882 
-7.419 -9.659 -8.6835 -9.08 -5.7935 -7.164 
-12.218 -10.5655 -12.7813 -10.7722 -7.3935 
-13.1245 -14.6633 -14.4735 -12.3722 
-3.5385 -1.756 -3.5585 -3.152 -4.4855 -1.7695 -3.9075 -2.356 -3.595 
-4.657 -5.159 -5.675 -7.5985 -7.137001 -4.7445 -5.3505 -4.882 
-7.419 -7.306 -10.3285 -9.438001 -10.502 -5.8915 -6.963 
-9.9835 -12.0843 -12.168 -13.0894 -11.649 -7.376 
-14.7618 -13.9238 -15.8194 -14.2364 -13.1335 
-3.5385 -1.756 -3.5585 -4.866 -2.356 -3.345 -2.8965 -1.7695 -4.3845 -2.356 -3.595 
-4.657 -5.159 -7.17 -5.517 -4.841001 -4.4605 -5.735 -4.8485 -5.5085 -4.882 
-7.419 -9.344001 -8.6735 -7.024 -5.2625 -6.001 -8.648001 -5.7935 -7.164 
-11.903 -10.9641 -9.7325 -7.0305 -6.657001 -8.946501 -10.3675 -7.3935 
-13.5231 -12.0231 -9.738001 -7.978 -10.155 -10.76 -11.9675 
-3.5385 -1.756 -3.5585 -5.7735 -3.465 -1.7695 -4.3845 -2.356 -3.595 
-4.657 -5.159 -8.392 -8.797001 -3.665 -4.8485 -5.5085 -4.882 
-7.419 -9.788 -11.4841 -8.897 -6.588 -5.7935 -7.164 
-12.347 -12.8801 -11.5841 -11.9718 -7.4955 -7.3935 
-15.4391 -12.9801 -14.6589 -12.8793 -9.0605 
