-4.759 
n/a 
n/a 
n/a 
n/a 
-4.759 
n/a 
n/a 
n/a 
n/a 
-4.759 
n/a 
n/a 
n/a 
n/a 
-4.759 
n/a 
n/a 
n/a 
n/a 
-9.584001 -7.2945 0 -7.3035 -7.726501 
-10.841 -7.2945 -7.3035 -9.844501 
-10.841 -9.128 -9.844501 
-12.6745 -11.94 
-15.4865 
-9.584001 0 -12.16972 0 -7.3035 -7.726501 
-9.584001 -12.16972 -12.16972 -7.3035 -9.844501 
-22.06992 -12.16972 -19.47322 -9.844501 
-22.06992 -19.47322 -22.01422 
-29.37342 -22.01422 
-9.584001 -10.678 0 -7.3035 -7.726501 
-20.5782 -10.678 -7.3035 -9.844501 
-20.5782 -17.9815 -9.844501 
-27.8817 -20.5225 
-30.4227 
-9.584001 -7.2945 0 -7.3035 -7.726501 
-10.841 -7.2945 -7.3035 -9.844501 
-10.841 -9.128 -9.844501 
-12.6745 -11.94 
-15.4865 
