-4.759 
n/a 
n/a 
n/a 
n/a 
-4.759 
n/a 
n/a 
n/a 
n/a 
-4.759 
n/a 
n/a 
n/a 
n/a 
-4.759 
n/a 
n/a 
n/a 
n/a 
-4.617 0 -10.4135 0 -5.7385 0 
-4.617 -10.4135 -10.4135 -5.7385 -5.7385 
-15.4247 -10.4135 -16.152 -5.7385 
-15.4247 -16.152 -16.152 
-21.1632 -16.152 
-4.617 0 -10.4135 0 -10.8905 0 
-4.617 -10.4135 -10.4135 -10.8905 -10.8905 
-15.4247 -10.4135 -21.304 -10.8905 
-15.4247 -21.304 -21.304 
-26.3152 -21.304 
-15.0305 0 0 
-15.4247 0 
-15.4247 
n/a 
n/a 
-4.617 -10.4135 0 -12.16972 0 
-15.4247 -10.4135 -12.16972 -12.16972 
-15.4247 -22.58322 -12.16972 
-27.59442 -22.58322 
-27.59442 
