-4.759 
n/a 
n/a 
n/a 
n/a 
-4.759 
n/a 
n/a 
n/a 
n/a 
-4.759 
n/a 
n/a 
n/a 
n/a 
-4.759 
n/a 
n/a 
n/a 
n/a 
-3.4765 -3.135 -3.8935 -4.7555 -3.098 -1.7695 -4.161 0 -4.079 -1.7695 -3.3715 -3.8035 0 
-5.966001 -6.063001 -9.2345 -7.805 -4.6695 -6.252501 -4.161 -4.079 -5.261 -5.0445 -6.0565 -3.8035 
-8.67 -11.9606 -12.7656 -10.298 -8.499001 -6.252501 -8.290001 -5.261 -7.766 -7.582 -6.0565 
-14.9104 -15.4917 -15.2586 -14.3757 -8.499001 -10.8593 -9.6105 -7.766 -10.6921 -7.582 
-18.4415 -17.9847 -19.3363 -14.3757 -13.9436 -12.1798 -12.5701 -10.6921 -10.6921 
-3.4765 -3.383 -4.079 -4.7555 -1.7695 -4.161 -1.756 -3.818 -4.1665 -3.4765 -2.7765 -4.416 -3.383 -8.657001 0 
-6.7635 -6.697001 -8.0035 -7.5465 -6.252501 -5.212 -5.408 -8.8715 -7.3835 -7.108001 -6.573501 -7.699501 -10.4945 -8.657001 
-10.172 -11.1511 -11.5477 -12.5433 -6.9725 -8.6675 -10.411 -12.2525 -11.638 -11.0504 -10.0345 -15.2466 -10.4945 
-14.6261 -14.6953 -16.5445 -13.2633 -10.7104 -14.9863 -13.792 -16.507 -15.5804 -14.5114 -17.8096 -15.2466 
-18.1703 -19.6921 -17.2645 -17.0012 -17.0292 -18.3673 -18.0465 -20.4494 -19.0414 -22.2865 -17.8096 
-2.872 0 -3.77 -4.889 -3.43 -2.3345 -3.5965 0 -3.321 -3.1495 -3.319 -1.7565 -4.8125 -4.889 -3.074 -3.8535 0 
-2.872 -3.77 -7.8885 -7.994 -4.5865 -6.165 -3.5965 -3.321 -6.3015 -6.5325 -4.165 -6.3285 -9.0085 -7.913501 -6.4835 -3.8535 
-6.757501 -7.8885 -11.5039 -8.56 -8.4065 -6.165 -6.365 -6.3015 -9.684 -6.6315 -8.3655 -10.3675 -12.045 -11.7744 -6.4835 
-11.4642 -11.5039 -12.0699 -12.6684 -8.4065 -8.452001 -9.633 -9.684 -9.757001 -11.3348 -12.7479 -13.404 -15.9059 -11.7744 
-15.0796 -12.0699 -16.1783 -12.6684 -10.9165 -12.7042 -13.1061 -9.757001 -14.5133 -15.7172 -15.7844 -17.2649 -15.9059 
-2.7295 -2.7765 -3.324 -1.8085 -3.5965 -1.7695 -4.6675 -4.2595 -3.681 -1.934 -1.8085 -3.77 -3.3755 0 -3.324 -3.098 -1.7695 -3.013 -1.4985 -3.77 -3.4985 0 
-4.065 -6.797 -5.5415 -4.795 -5.0345 -5.024 -7.602 -7.0845 -5.219 -3.2685 -6.588 -5.318501 -3.3755 -3.324 -6.656 -4.6695 -3.7215 -4.488 -5.473001 -7.97 -3.4985 
-8.0235 -7.9665 -7.758 -6.271 -8.151501 -7.9045 -10.9336 -8.332 -6.475 -7.716001 -7.498 -5.318501 -7.7025 -6.656 -8.0865 -7.370501 -5.038 -8.0235 -8.938001 -7.97 
-9.2685 -9.054001 -8.511001 -8.703501 -11.3432 -11.3567 -12.1811 -9.721001 -10.0885 -8.363001 -7.498 -10.259 -10.757 -8.0865 -10.7575 -8.2895 -8.565001 -10.2485 -8.938001 
-9.923 -9.319 -9.846001 -12.1092 -14.7954 -12.6042 -13.5701 -13.3577 -10.448 -8.363001 -12.6451 -13.3135 -12.1875 -10.7575 -11.6765 -12.0025 -10.673 -10.2485 
