-4.759 
n/a 
n/a 
n/a 
n/a 
-4.759 
n/a 
n/a 
n/a 
n/a 
-4.759 
n/a 
n/a 
n/a 
n/a 
-4.759 
n/a 
n/a 
n/a 
n/a 
-1.934 -5.4145 0 -4.2815 -2.229 -4.3185 -3.468 -5.33 -2.985 -3.873 -4.5205 0 
-6.5985 -5.4145 -4.2815 -5.5905 -6.8715 -8.982 -9.225 -7.804001 -6.0425 -6.238501 -4.5205 
-6.5985 -9.3585 -5.5905 -10.4035 -12.0844 -15.0722 -12.1542 -11.1681 -9.328 -6.238501 
-9.774 -10.8837 -10.4035 -15.984 -18.1746 -18.0014 -15.5183 -14.4536 -9.328 
-11.5336 -15.6967 -15.984 -22.0742 -21.1038 -21.3655 -18.8038 -14.4536 
-1.4985 -3.4225 -4.257 -1.7565 -4.29 -6.854 -5.857 -1.8085 -5.1055 -5.0595 -2.264 -1.4985 -13.4155 -1.934 -1.4985 -4.3685 -1.7565 -8.518001 -1.934 -5.4145 
-3.9655 -8.5065 -5.552 -5.8475 -8.970501 -10.7025 -7.5255 -6.231501 -10.2645 -7.099 -2.9195 -10.0165 -10.5665 -2.6125 -5.106 -5.0855 -8.904 -9.762001 -6.5985 
-9.1815 -9.193501 -9.3645 -10.082 -10.703 -10.727 -10.6735 -10.485 -10.656 -7.6545 -11.6095 -10.3275 -10.758 -6.0625 -5.569 -8.969501 -9.870001 -15.0673 
-9.7505 -10.689 -10.7035 -10.709 -10.7275 -10.7515 -10.6965 -10.6885 -10.7045 -12.028 -11.078 -10.46 -11.3645 -6.5045 -9.199 -9.895 -15.0975 
-10.691 -10.7275 -10.7285 -10.734 -10.7525 -10.7765 -10.7195 -10.7115 -10.7665 -10.5045 -10.6775 -10.6685 -10.4925 -9.7185 -9.959001 -15.1289 
-1.934 -5.4145 -4.2815 -4.3185 -4.2745 
-6.5985 -9.3585 -8.268001 -8.662001 
-9.774 -13.5612 -13.2547 
-14.2111 -18.5479 
-19.1978 
-1.934 -5.4145 -3.158 -4.2815 -1.756 -4.3185 -1.7695 -3.8735 -1.4985 -3.59 -4.7365 -3.873 -5.3745 -4.416 0 
-6.5985 -9.2875 -7.830001 -5.558001 -6.087 -6.585 -4.7425 -5.406 -4.268 -7.535 -8.2805 -10.5865 -10.3745 -4.416 
-11.0803 -14.3129 -9.185501 -8.6055 -7.794001 -9.7465 -5.7985 -9.3925 -9.006001 -11.7294 -15.975 -15.5865 -10.3745 
-16.1057 -15.6684 -12.3736 -10.411 -11.5513 -10.9379 -9.652 -14.3141 -13.295 -19.4239 -20.975 -15.5865 
-17.4612 -18.8565 -14.1791 -14.1683 -12.7427 -14.7914 -14.6874 -18.6031 -20.9895 -24.4239 -20.975 
