-4.759 
n/a 
n/a 
n/a 
n/a 
-4.759 
n/a 
n/a 
n/a 
n/a 
-4.759 
n/a 
n/a 
n/a 
n/a 
-4.759 
n/a 
n/a 
n/a 
n/a 
-3.5455 -4.9695 -2.3615 -3.5035 0 -4.649 -2.7415 -1.934 -4.698 
-8.495001 -7.134 -5.7945 -3.5035 -4.649 -7.1915 -4.5155 -5.902 
-11.3431 -11.2924 -5.7945 -8.448501 -7.1915 -8.827001 -8.781501 
-15.5015 -11.2924 -11.5051 -11.0926 -8.827001 -13.2688 
-15.5015 -17.003 -14.1492 -12.7281 -13.2688 
-1.4985 -3.2875 -4.706 -2.264 -1.4985 -4.7285 -5.936 -1.756 -2.186 -3.074 -2.264 -1.4985 -4.197 0 -2.9705 -5.093 -4.4915 -4.7705 -1.934 -4.767 -4.2485 0 
-4.127 -7.441501 -6.2345 -2.9195 -5.8505 -9.192 -6.953001 -3.986 -4.156 -5.174 -2.9195 -5.2175 -4.197 -2.9705 -6.354 -9.295 -8.077001 -5.441 -7.012 -7.424 -4.2485 
-7.6285 -8.267 -6.501 -7.293001 -9.4175 -10.0485 -8.674001 -5.87 -6.3985 -5.8365 -6.1495 -5.2175 -7.1375 -6.354 -10.2285 -10.7185 -8.410001 -8.9235 -9.278501 -7.424 
-8.444 -8.5205 -10.4855 -10.396 -10.072 -10.6405 -10.622 -7.9415 -6.6875 -9.168501 -6.1495 -7.7945 -10.586 -10.2285 -10.742 -10.744 -10.5135 -10.2385 -9.278501 
-8.670501 -12.8008 -10.59 -10.48 -10.6405 -10.761 -12.6935 -8.123 -10.051 -9.168501 -8.618501 -11.375 -14.4605 -10.742 -10.7685 -10.7855 -10.6635 -10.2385 
-3.034 -2.3615 -3.685 -2.7415 -4.0855 -1.934 -1.4985 -4.1865 -3.5435 -1.934 -1.4985 -4.698 0 -8.110001 -2.7415 -1.4985 -3.4185 -1.7565 -4.698 0 
-5.0455 -4.9725 -5.987 -6.1375 -5.732 -2.6125 -5.177 -6.517 -5.3395 -2.6125 -5.740001 -4.698 -8.110001 -9.8325 -4.063 -5.019 -4.2475 -5.5475 -4.698 
-8.1625 -7.2065 -8.795 -6.994 -6.186 -6.116 -6.6705 -8.1435 -6.039001 -6.765501 -5.740001 -14.0074 -9.8325 -10.7635 -7.9565 -6.382501 -6.2225 -5.5475 
-9.184 -10.0775 -9.6715 -7.612 -10.071 -8.592501 -8.219001 -8.988501 -9.3015 -6.765501 -15.6664 -15.7299 -10.7635 -14.657 -8.217501 -7.566 -6.2225 
-12.2542 -11.147 -10.183 -11.6376 -12.6963 -10.418 -9.073501 -12.3158 -9.3015 -16.8727 -17.3889 -16.6609 -14.657 -14.918 -8.888 -7.566 
-3.034 -2.3615 -3.5035 -2.7415 -9.215501 -1.934 -4.1865 -4.698 0 -8.110001 -2.7415 -1.8085 -3.4185 -1.7565 -4.698 -2.5045 -2.3335 -2.95 0 
-5.0455 -5.7945 -5.9375 -11.046 -10.523 -5.967 -7.3905 -4.698 -8.110001 -9.8325 -3.891 -4.1435 -4.2475 -5.5475 -7.087001 -4.744 -4.8245 -2.95 
-8.359 -7.285 -14.8106 -12.3535 -14.556 -8.9335 -7.3905 -14.0074 -9.8325 -10.6505 -5.699 -4.5105 -6.2225 -7.9345 -8.855 -5.158 -4.8245 
-8.85 -16.4791 -16.1181 -16.3865 -17.5225 -8.9335 -17.1099 -15.7299 -10.6505 -12.4585 -5.731 -6.9005 -8.673 -9.617001 -8.967501 -5.158 
-18.4045 -17.7866 -20.1511 -19.353 -17.5225 -18.7563 -18.8324 -16.5479 -12.4585 -12.4905 -7.690001 -9.047 -10.0925 -9.7705 -8.967501 
