-4.759 
n/a 
n/a 
n/a 
n/a 
-4.759 
n/a 
n/a 
n/a 
n/a 
-4.759 
n/a 
n/a 
n/a 
n/a 
-4.759 
n/a 
n/a 
n/a 
n/a 
-3.7515 -5.816 -3.152 -5.7485 -2.3615 -4.0395 0 
-9.752001 -8.094501 -8.837001 -8.144501 -5.5075 -4.0395 
-12.1209 -13.9949 -11.2562 -10.733 -5.5075 
-18.0213 -16.4141 -13.8447 -10.733 
-20.4405 -19.0026 -13.8447 
-1.4985 -3.7515 -3.264 -5.6415 -4.6525 -3.1435 -4.4525 
-4.4675 -6.8035 -9.684501 -9.5775 -7.384501 -6.2295 
-7.4495 -13.4356 -13.6593 -12.4481 -11.2971 
-14.3316 -17.4104 -16.5299 -16.3607 
-18.3064 -20.281 -20.4425 
-1.4985 -5.816 -3.7515 -5.5985 -2.3615 -4.1835 0 
-7.280001 -9.854501 -9.009001 -7.5205 -5.97 -4.1835 
-10.2085 -15.2342 -10.718 -9.948501 -5.97 
-15.7468 -16.9432 -13.146 -9.948501 
-17.4558 -19.3712 -13.146 
-3.7515 -3.264 -5.439 -3.644 -3.1495 -3.992 
-6.8035 -9.200001 -8.633 -6.589001 -8.309 
-12.9511 -12.6182 -12.1584 -12.0251 
-16.3693 -16.1436 -17.5945 
-19.8947 -21.5797 
