-4.759 
n/a 
n/a 
n/a 
n/a 
-4.759 
n/a 
n/a 
n/a 
n/a 
-4.759 
n/a 
n/a 
n/a 
n/a 
-4.759 
n/a 
n/a 
n/a 
n/a 
-1.934 -4.239 -3.2615 -6.146 -3.0365 -2.7415 -1.8085 -5.121 -3.898 -1.934 -4.1865 -4.042 
-5.464 -7.1485 -8.557 -8.797501 -4.2225 -3.891 -5.5375 -6.723001 -4.962501 -5.967 -6.824 
-7.3695 -12.82 -10.609 -9.908501 -4.725 -6.811 -7.795 -7.2625 -8.363001 -8.454 
-13.1918 -14.872 -11.72 -10.352 -7.559 -9.4835 -8.108001 -10.9986 -9.274501 
-15.2438 -15.983 -12.1635 -13.186 -9.677501 -9.811501 -11.8755 -11.9101 
-3.2615 -1.4985 -4.239 -4.6805 -3.8355 -3.2275 -2.7415 -4.662 0 -1.4985 -4.1865 -4.042 -3.9535 -1.7695 -4.4075 -4.5785 -3.898 0 
-4.032 -6.117001 -9.2325 -7.833 -5.958 -6.040501 -8.953 -4.662 -1.4985 -5.177 -6.824 -7.681001 -5.098001 -4.624 -7.4805 -5.9525 -3.898 
-7.7315 -11.8279 -12.7186 -8.713 -8.6665 -12.9226 -8.953 -6.385 -5.177 -7.1005 -10.1225 -8.005 -8.7325 -7.744 -8.4055 -5.9525 
-14.002 -15.314 -13.5986 -10.66 -15.6136 -12.9226 -9.711 -10.082 -7.1005 -10.315 -10.5583 -12.3767 -11.9213 -8.782001 -8.4055 
-17.4881 -16.194 -15.5456 -17.6071 -15.6136 -13.6806 -14.2086 -12.0055 -10.315 -10.7508 -14.93 -15.5655 -12.9593 -8.782001 
-3.2615 -1.4985 -4.1645 -1.7565 -5.7295 -1.934 -4.239 0 -4.1865 -4.042 -3.9535 -4.25 -4.8385 0 
-4.032 -4.9055 -4.6095 -7.586501 -7.042 -5.464 -4.239 -4.1865 -6.824 -7.681001 -7.223001 -6.4875 -4.8385 
-7.1355 -5.063 -11.2267 -9.006001 -11.119 -5.464 -8.566501 -6.824 -10.1225 -8.834001 -9.3065 -6.4875 
-7.226 -12.0318 -12.6462 -13.211 -11.119 -9.901501 -10.564 -10.1225 -11.3873 -11.8767 -9.3065 
-14.4162 -13.4513 -16.8512 -13.211 -15.5565 -11.899 -13.8625 -11.3873 -14.43 -11.8767 
-3.2615 -1.4985 -3.046 -3.8355 -1.934 -4.239 -4.1865 -4.042 -3.7905 -1.7695 -4.4035 -1.934 -3.6135 -4.2555 
-4.032 -4.5205 -5.4575 -5.0925 -5.464 -8.566501 -6.824 -8.113001 -6.848001 -4.8505 -5.6775 -5.716 -8.6485 
-7.4975 -6.7185 -7.1575 -9.318001 -9.901501 -10.564 -11.4274 -11.4439 -9.765 -6.0695 -9.458 -11.3904 
-9.4335 -8.926001 -12.108 -13.7415 -11.899 -15.1674 -14.7583 -14.3609 -11.2454 -10.009 -15.3252 
-11.8652 -14.1157 -16.5315 -15.739 -16.5024 -18.4983 -17.6753 -15.8413 -15.1849 -16.0298 
