-4.759 
n/a 
n/a 
n/a 
n/a 
-4.759 
n/a 
n/a 
n/a 
n/a 
-4.759 
n/a 
n/a 
n/a 
n/a 
-4.759 
n/a 
n/a 
n/a 
n/a 
-7.160501 -7.666 -8.792001 -4.331 -5.5305 -4.891 -2.0935 -1.4985 -4.834 -1.7565 -5.1845 -3.1385 
-15.5097 -16.9238 -9.072001 -10.4855 -11.6211 -7.511001 -2.9725 -7.33 -8.339001 -6.580501 -7.4095 
-24.7675 -17.2038 -15.5111 -16.5761 -14.2411 -8.3255 -9.093 -9.231501 -13.3838 -8.684001 
-25.0475 -23.6429 -21.6017 -19.1961 -15.0556 -14.7762 -11.1101 -14.4677 -15.4873 
-31.4866 -29.7335 -24.2217 -20.0106 -21.5063 -16.7933 -16.3463 -16.5712 
-7.160501 -4.803 -8.792001 -4.331 -5.5305 -4.891 -2.0935 -3.1385 -4.856 
-9.51 -9.284 -9.072001 -10.4855 -11.6211 -7.511001 -4.6835 -9.002501 
-10.3625 -9.419501 -15.5111 -16.5761 -14.2411 -10.7335 -11.6369 
-10.4015 -15.8938 -21.6017 -19.1961 -17.4636 -17.6869 
-16.8758 -21.9844 -24.2217 -22.4186 -24.417 
-5.1845 -4.9225 -2.4945 -4.424 -3.535 -4.031 -2.0935 -4.891 -3.985 -1.4985 -3.9725 -7.666 -8.792001 -4.331 0 
-9.13 -6.9525 -8.615 -8.99 -5.8145 -4.8935 -7.207 -9.314001 -5.375 -4.88 -12.5815 -16.9238 -9.072001 -4.331 
-10.5235 -10.485 -13.301 -11.5455 -6.2975 -10.8094 -12.2084 -11.0978 -7.9205 -14.2484 -21.8393 -17.2038 -9.072001 
-14.056 -15.171 -15.8565 -12.0285 -12.543 -15.8108 -13.9922 -13.6433 -17.6703 -23.5062 -22.1193 -17.2038 
-18.742 -17.7265 -16.3395 -18.274 -17.5444 -17.5946 -16.5377 -23.3931 -26.9281 -23.7862 -22.1193 
-6.7185 -4.331 -1.7565 -7.160501 -5.855 -4.891 -2.0935 -1.4985 -3.956 -1.7565 -5.1845 -3.1385 
-11.08 -6.820001 -7.8265 -13.6987 -10.071 -7.511001 -2.9725 -4.8985 -4.932 -6.580501 -7.4095 
-13.569 -10.451 -14.6639 -17.9147 -10.1205 -8.3255 -6.4325 -5.16 -9.758501 -8.684001 
-17.2 -17.2884 -18.8799 -17.9642 -11.5678 -12.1157 -6.6635 -10.0815 -12.295 
-24.0374 -21.5044 -18.9294 -19.4115 -15.358 -12.3467 -11.846 -12.7686 
