-4.759 
n/a 
n/a 
n/a 
n/a 
-4.759 
n/a 
n/a 
n/a 
n/a 
-4.759 
n/a 
n/a 
n/a 
n/a 
-4.759 
n/a 
n/a 
n/a 
n/a 
-2.3345 -4.1885 -1.4985 -4.397 -1.7565 -5.169 -2.0935 -4.0145 -1.756 -1.4985 -4.339 -1.7565 -12.16972 0 -4.5735 -3.8735 -4.839 -1.4985 -3.943 -2.0935 -3.739 -3.598 -4.481 0 
-5.4895 -5.351501 -5.344 -5.847 -6.374001 -6.8345 -6.739 -5.1755 -3.0405 -4.9215 -4.919 -14.87542 -12.16972 -4.5735 -7.0425 -8.972 -6.16 -4.967 -5.0625 -5.002 -7.089 -8.446 -4.481 
-6.837501 -9.783001 -6.59 -10.9571 -7.972501 -9.3715 -7.824 -6.518 -6.551 -5.0945 -18.51952 -14.87542 -16.74322 -7.0425 -12.6882 -9.6 -6.7695 -5.7095 -7.0105 -8.629001 -10.4425 -8.446 
-11.455 -11.1062 -11.9355 -12.5556 -10.5975 -10.6259 -8.9875 -9.518001 -6.6695 -18.73122 -18.51952 -19.44892 -19.21222 -12.6882 -13.3162 -9.757501 -6.987 -7.419 -10.151 -12.3157 -10.4425 
-12.7782 -16.4517 -13.534 -15.1806 -11.8519 -11.7894 -12.3763 -9.554001 -20.46242 -18.73122 -23.09302 -21.91792 -24.85792 -13.3162 -13.4737 -10.4995 -8.759001 -10.759 -13.9465 -12.3157 
-4.3475 -2.7415 -5.3075 -2.3345 -3.8735 -2.9705 -4.839 -1.4985 -3.943 -2.0935 -3.739 -5.022 -4.918 
-7.323501 -6.283 -6.2735 -6.6665 -6.7115 -7.373501 -6.16 -4.967 -5.0625 -5.002 -8.164001 -7.864 
-9.256001 -6.828 -10.061 -8.908001 -11.5617 -7.768501 -6.7695 -5.7095 -7.0105 -9.828501 -12.1696 
-9.5895 -10.2035 -12.6625 -13.7838 -11.9567 -8.205001 -6.987 -7.419 -12.3166 -13.9347 
-13.5886 -13.0612 -17.5383 -14.1788 -12.3932 -8.3275 -8.759001 -12.8007 -16.4228 
-3.3425 -1.4985 -5.1905 -3.2 -1.934 -3.951 -4.0145 -1.756 -1.4985 -4.339 -1.7565 -4.3475 -2.7415 -4.09 -1.934 -4.5735 -3.8735 -2.9705 -4.3025 -2.5045 -1.4985 -4.1175 -2.0935 -1.4985 -3.739 -4.481 -3.2 0 
-4.0125 -6.231 -7.123 -4.9415 -4.838 -7.735001 -5.1755 -3.0405 -4.9215 -4.919 -5.812 -7.323501 -5.289001 -5.2875 -5.86 -7.0425 -6.7115 -6.5055 -4.9215 -3.583 -4.6915 -4.9375 -2.9725 -4.208 -8.535501 -8.554501 -3.2 
-8.4835 -7.727 -8.644501 -8.693001 -9.3915 -9.0065 -6.518 -6.551 -5.0945 -8.013 -8.4245 -9.92 -6.215 -8.533501 -7.484 -9.373501 -10.298 -6.938 -5.764 -5.848001 -5.3545 -5.654 -5.1435 -9.3265 -13.028 -8.554501 
-9.220501 -8.962 -12.6832 -13.3941 -10.3295 -10.718 -9.518001 -6.6695 -8.104 -9.6155 -10.523 -10.6505 -9.3655 -9.525001 -9.988501 -12.9822 -10.7305 -7.6715 -6.811 -5.978 -5.9695 -7.981 -9.906 -13.9476 -13.028 
-10.6859 -13.2753 -17.3843 -14.3321 -12.041 -13.718 -9.554001 -9.2605 -9.689501 -10.5445 -11.2535 -13.801 -10.2655 -12.2325 -13.673 -13.4147 -11.464 -8.2985 -6.879 -6.711 -8.4285 -12.8987 -14.6767 -13.9476 
-4.0145 -3.4985 -2.7295 -3.8095 
-7.1515 -4.9515 -6.063 
-8.9045 -8.6485 
-12.6795 
n/a 
