-4.759 
n/a 
n/a 
n/a 
n/a 
-4.759 
n/a 
n/a 
n/a 
n/a 
-4.759 
n/a 
n/a 
n/a 
n/a 
-4.759 
n/a 
n/a 
n/a 
n/a 
-6.3355 -1.7565 -3.635 -2.7415 -4.9345 
-7.5905 -5.210001 -6.097 -6.129 
-10.4595 -7.8215 -8.353001 
-13.3996 -9.304501 
-14.8826 
-5.428 -1.7565 -4.045 -2.4945 -4.9345 0 
-6.962 -5.7955 -5.7435 -6.43 -4.9345 
-11.434 -7.705 -9.39 -6.43 
-13.3435 -11.5797 -9.39 
-17.2182 -11.5797 
-4.426 -1.7565 -1.4985 -3.0835 -4.7285 -4.1555 -3.147 0 
-5.47 -2.4195 -3.535 -6.042 -8.4455 -5.77 -3.147 
-5.9535 -4.6785 -6.335501 -9.523001 -9.541501 -5.77 
-8.021 -7.476501 -10.0095 -10.7035 -9.541501 
-9.983001 -11.3061 -11.3 -10.7035 
-3.635 -4.1955 -4.5445 -3.152 -5.568 0 
-7.0635 -7.0845 -7.534 -7.5035 -5.568 
-8.864 -9.9835 -12.2999 -7.5035 
-12.148 -14.833 -12.2999 
-16.9975 -14.833 
