-4.759 
n/a 
n/a 
n/a 
n/a 
-4.759 
n/a 
n/a 
n/a 
n/a 
-4.759 
n/a 
n/a 
n/a 
n/a 
-4.759 
n/a 
n/a 
n/a 
n/a 
-4.5965 0 -10.059 -9.323001 0 -5.7865 0 0 -2.0935 -4.936 0 
-4.5965 -10.059 -19.4724 -9.323001 -5.7865 -5.7865 0 -2.0935 -6.574501 -4.936 
-15.0457 -19.4724 -19.4724 -15.3541 -5.7865 -5.7865 -2.0935 -6.574501 -6.574501 
-24.4591 -19.4724 -25.5035 -15.3541 -5.7865 -8.643001 -6.574501 -6.574501 
-24.4591 -25.5035 -25.5035 -15.3541 -8.643001 -13.6192 -6.574501 
-4.5965 0 -10.613 -7.377 0 -5.7865 0 0 -12.16972 0 
-4.5965 -10.613 -10.647 -7.377 -5.7865 -5.7865 0 -12.16972 -12.16972 
-15.5997 -10.647 -10.647 -13.8447 -5.7865 -5.7865 -12.16972 -12.16972 
-15.6337 -10.647 -17.1147 -13.8447 -5.7865 -19.12782 -12.16972 
-15.6337 -17.1147 -17.1147 -13.8447 -19.12782 -19.12782 
-4.5965 0 -12.16972 -7.377 0 -5.7865 0 0 -10.6015 0 
-4.5965 -12.16972 -19.54672 -7.377 -5.7865 -5.7865 0 -10.6015 -10.6015 
-17.15642 -19.54672 -19.54672 -13.8447 -5.7865 -5.7865 -10.6015 -10.6015 
-24.53342 -19.54672 -26.01442 -13.8447 -5.7865 -17.5596 -10.6015 
-24.53342 -26.01442 -26.01442 -13.8447 -17.5596 -17.5596 
-4.5965 -6.1365 -10.201 0 -5.7865 0 0 -10.6015 0 
-10.209 -17.0489 -10.201 -5.7865 -5.7865 0 -10.6015 -10.6015 
-21.3612 -17.0489 -16.0403 -5.7865 -5.7865 -10.6015 -10.6015 
-21.3612 -22.8882 -16.0403 -5.7865 -17.5596 -10.6015 
-27.2005 -22.8882 -16.0403 -17.5596 -17.5596 
