-4.759 
n/a 
n/a 
n/a 
n/a 
-4.759 
n/a 
n/a 
n/a 
n/a 
-4.759 
n/a 
n/a 
n/a 
n/a 
-4.759 
n/a 
n/a 
n/a 
n/a 
-2.5045 -1.4985 -3.75 -3.8275 -5.372 -1.7565 -5.0615 -1.756 -2.5045 -3.0365 -3.152 -2.6165 -3.3715 -4.596 -4.103 0 -3.115 -1.4985 -3.641 -4.315 -2.4265 -3.5745 -2.6165 -4.7815 -4.02 -2.0935 -2.847 -2.871 0 
-3.583 -4.8715 -7.359 -8.8345 -5.429 -7.2665 -6.269 -4.4965 -5.2585 -4.453 -4.6295 -5.7475 -8.196 -7.443 -4.103 -3.115 -4.2305 -4.644 -7.022 -6.5315 -5.0785 -4.114 -6.9565 -9.297501 -5.8185 -5.239 -4.4675 -2.871 
-7.1565 -9.366 -12.8974 -8.967001 -11.3812 -8.085501 -9.1145 -7.176001 -6.556 -6.5565 -7.371 -10.76 -10.298 -7.443 -6.7275 -4.2305 -7.684501 -8.316501 -9.502001 -9.752001 -5.505 -7.775001 -11.6775 -10.734 -9.224501 -6.7145 -4.4675 
-11.9674 -15.2788 -13.0299 -14.9748 -12.2002 -11.0968 -11.8566 -8.218 -8.316 -7.429501 -12.4777 -12.862 -10.298 -10.5535 -7.779 -7.684501 -11.6306 -10.553 -12.6607 -10.1175 -9.2095 -12.5838 -13.114 -14.14 -10.622 -6.7145 
-17.8802 -15.4113 -19.0377 -15.7938 -15.2115 -13.8389 -12.8986 -9.953001 -9.088 -12.5446 -14.5797 -12.862 -13.6287 -11.605 -11.658 -11.6306 -13.8671 -13.7117 -13.0262 -13.9266 -14.2453 -14.0203 -16.52 -15.5375 -10.622 
-2.7835 -1.4985 -3.75 -3.8275 -3.602 -3.251 -4.0005 -3.4425 -3.0365 -2.186 -3.4945 -1.8085 -4.3395 -3.892 -3.473 -2.186 -3.299 0 -3.0365 -2.186 -2.847 -4.2985 -1.7565 -4.6335 -3.1575 -3.641 -3.7575 -3.4425 0 
-3.7575 -4.8715 -7.359 -8.5035 -7.047 -7.5065 -5.811 -6.1225 -3.66 -5.548 -4.5825 -5.6905 -7.265 -7.9135 -5.3215 -5.5155 -3.299 -3.0365 -3.66 -4.1045 -6.4195 -5.9425 -6.0645 -8.007 -7.564001 -5.455501 -7.582 -3.4425 
-8.276001 -9.366 -12.5664 -12.1385 -11.5469 -10.553 -9.209001 -6.6355 -8.190001 -6.2205 -8.853001 -8.0655 -11.6525 -9.439501 -8.7925 -5.5155 -6.868001 -3.66 -4.256001 -7.8605 -8.741501 -10.4675 -8.871 -12.7723 -9.510501 -8.6945 -7.582 
-12.9507 -14.9478 -16.2014 -16.6384 -14.5934 -13.951 -9.850501 -11.4345 -8.6555 -11.5536 -11.2926 -12.711 -13.1785 -13.0377 -8.7925 -7.8855 -7.389501 -4.256001 -7.890501 -9.913 -13.6071 -13.5716 -13.7331 -14.7188 -12.9661 -8.6945 
-18.5325 -18.5828 -20.7013 -19.6849 -17.9914 -14.5925 -14.5661 -11.9 -14.3208 -13.9932 -15.9381 -14.237 -16.7767 -13.0377 -11.4477 -8.252001 -8.142 -7.890501 -9.932001 -14.8384 -16.7112 -18.4337 -15.6796 -18.1744 -12.9661 
-1.934 -3.75 -2.925 -2.674 -3.8275 -4.348 -1.756 -4.3395 -3.3755 -4.1155 -2.925 -2.674 -3.641 -3.498 -2.0935 -2.847 -4.6335 -1.7695 -3.9555 
-5.3465 -7.094 -4.1785 -7.6675 -7.498 -5.634 -5.8905 -8.782501 -8.613501 -7.1175 -4.1785 -8.085 -5.4735 -5.785501 -5.239 -7.4515 -6.6685 -5.0965 
-9.9455 -8.203 -9.363501 -11.8014 -9.4245 -9.657001 -10.6875 -14.2727 -11.7849 -8.2555 -9.330501 -9.9835 -8.052501 -8.585001 -10.427 -9.0605 -9.9865 
-11.2149 -13.5296 -13.533 -13.7279 -13.6751 -14.606 -16.1777 -17.4441 -12.9229 -13.4911 -11.6042 -12.5625 -11.2556 -14.2888 -12.036 -12.8753 
-16.5415 -17.6991 -15.4595 -17.9785 -18.6241 -20.0962 -19.3491 -18.5821 -18.1585 -15.7648 -14.1832 -15.7656 -16.9594 -15.8978 -15.8508 
-3.641 -4.5165 -3.6885 -4.1455 -4.905 -4.427 -2.4945 -2.645 -3.0365 -2.186 -2.847 -3.973 -2.0935 -3.5155 
-9.717001 -8.9695 -6.895 -8.676001 -7.196 -6.159 -4.6775 -6.0515 -3.66 -4.1045 -6.564 -5.8295 -4.7255 
-14.29 -12.4582 -12.1443 -10.575 -9.009001 -8.3195 -8.790501 -6.673501 -4.256001 -8.375501 -8.227 -7.436501 
-17.7787 -17.7075 -14.0433 -12.388 -11.3043 -12.5177 -9.689001 -7.3465 -8.5345 -9.550501 -10.476 
-23.028 -19.6065 -15.8563 -14.6833 -15.5025 -13.4162 -10.301 -12.0264 -9.8885 -11.9241 
