-4.759 
n/a 
n/a 
n/a 
n/a 
-4.759 
n/a 
n/a 
n/a 
n/a 
-4.759 
n/a 
n/a 
n/a 
n/a 
-4.759 
n/a 
n/a 
n/a 
n/a 
-3.3855 -5.4415 -6.3215 -2.0935 -3.332 -4.522 
-8.474501 -10.932 -9.0035 -4.7045 -5.084001 
-14.5916 -13.614 -11.7285 -6.7615 
-17.2736 -16.339 -13.7855 
-19.9986 -18.396 
-3.3855 -2.7415 -4.8335 -2.264 -6.3215 -3.2875 -2.0935 -3.332 -4.522 
-4.412 -6.3855 -6.8815 -9.1855 -8.6905 -5.7435 -4.7045 -5.084001 
-10.4345 -8.033501 -14.2034 -11.7097 -11.4345 -8.4245 -6.7615 
-12.3151 -15.4678 -16.7276 -14.4537 -14.1155 -10.5775 
-19.7494 -17.992 -19.4716 -17.1347 -16.2685 
-3.3855 -5.4415 -1.4985 -3.2875 -6.3215 -2.0935 -1.4985 -5.087 -1.7565 -3.332 -4.522 0 
-8.474501 -7.1685 -4.127 -8.8205 -9.0035 -2.9725 -5.443501 -5.438 -4.4865 -5.084001 -4.522 
-9.321 -8.894501 -9.948 -11.8285 -9.89 -5.452 -5.451 -7.689001 -6.2635 -5.084001 
-11.228 -15.3537 -13.0482 -12.715 -12.3695 -5.4555 -7.693501 -9.208 -6.2635 
-17.6872 -18.4539 -13.9347 -15.1945 -12.373 -7.7005 -9.21 -9.208 
-3.3855 -2.7415 -4.8335 -1.7565 -6.3215 -3.2875 -2.0935 -3.091 -4.522 0 
-4.412 -6.3855 -8.3505 -7.9375 -8.6905 -5.7435 -4.5345 -7.6645 -4.522 
-10.4345 -9.424001 -14.7705 -9.606501 -11.4345 -8.049 -9.318001 -7.6645 
-13.7056 -15.8796 -16.4395 -12.3505 -13.74 -12.9719 -9.318001 
-20.1612 -17.5486 -19.1835 -14.656 -18.6629 -12.9719 
