-4.759 
n/a 
n/a 
n/a 
n/a 
-4.759 
n/a 
n/a 
n/a 
n/a 
-4.759 
n/a 
n/a 
n/a 
n/a 
-4.759 
n/a 
n/a 
n/a 
n/a 
-3.6835 -5.164 -1.756 -3.845 -1.7565 -3.3715 -3.8245 -5.164 -2.4945 -4.657 -1.756 -4.7815 -2.3615 -2.186 -3.098 -4.3305 -3.0695 -4.657 -3.8245 -5.164 
-5.399 -6.3 -6.399 -4.13 -4.845 -7.450001 -6.658 -6.416 -7.751 -6.045 -6.499 -6.8955 -3.5005 -4.5535 -7.5315 -7.186 -5.7825 -9.092501 -6.658 
-6.4905 -11.7314 -7.2605 -8.3325 -8.485001 -9.1105 -8.0625 -12.2055 -8.8435 -9.4875 -8.616 -8.054501 -5.5995 -10.298 -10.66 -10.4425 -11.3482 -12.0116 
-12.0851 -12.5929 -10.7025 -12.2343 -10.048 -10.348 -13.9492 -13.298 -12.4464 -11.8009 -9.721001 -10.4945 -12.0714 -13.4265 -13.9165 -16.1792 -14.2673 
-12.9466 -16.0349 -14.6043 -13.7973 -11.2855 -16.2347 -15.0417 -16.9009 -14.7598 -12.9059 -12.4276 -17.2994 -15.1999 -16.683 -19.6532 -19.0983 
-2.4265 -2.186 -1.4985 -3.098 -4.3305 -2.3335 -4.6275 -4.221 -4.7855 -1.756 -4.2225 0 
-3.292 -3.339 -4.123 -7.5315 -6.6445 -7.4375 -9.844501 -8.8625 -5.7805 -5.5795 -4.2225 
-4.5995 -4.9155 -7.652 -8.5495 -12.2657 -12.9493 -14.7696 -9.386001 -6.6865 -5.5795 
-5.991 -8.109501 -8.564 -14.5661 -17.7775 -17.8744 -15.2931 -9.4205 -6.6865 
-9.0345 -8.811001 -14.589 -20.0779 -22.7026 -18.3979 -15.3276 -9.4205 
-3.995 -2.186 -1.4985 -3.098 -3.5015 -1.934 -2.3615 -4.5285 -1.934 -2.9705 -3.0365 -2.4945 -3.3715 -4.335 -1.7565 -4.178 -4.221 
-5.7465 -3.339 -4.123 -5.9295 -4.704 -3.539 -6.7355 -6.355 -4.051 -5.543 -3.688 -4.846 -6.2215 -4.436 -5.6105 -8.0085 
-6.921 -4.9155 -5.966 -6.9335 -6.5205 -7.173 -8.491 -7.302 -6.049 -6.173501 -4.8765 -7.783501 -6.308001 -7.6465 -10.181 
-8.136001 -6.404 -6.9505 -8.8815 -8.866501 -9.036 -9.3365 -8.7635 -6.6965 -7.227001 -7.8235 -7.850501 -9.05 -12.8118 
-8.97 -7.3785 -8.8985 -11.4665 -10.9271 -10.085 -11.211 -9.06 -8.115001 -9.613001 -7.890501 -9.802501 -14.2575 
-3.995 -2.186 -1.4985 -3.098 -3.5015 -1.934 -4.5285 -3.3155 -4.335 -1.7565 -3.8245 -5.126 -1.756 -4.7855 -4.221 
-5.7465 -3.339 -4.123 -5.9295 -4.704 -6.908 -7.006001 -6.932 -4.436 -5.058 -6.665 -6.364501 -6.1455 -8.804001 
-6.921 -4.9155 -5.966 -6.9335 -9.637 -10.1425 -10.6095 -7.007 -8.64 -7.658 -7.5335 -9.1155 -10.4265 
-8.136001 -6.404 -6.9505 -12.4607 -12.9011 -13.746 -10.667 -11.5732 -9.8525 -8.5165 -10.621 -13.4807 
-8.97 -7.3785 -12.5109 -15.7248 -16.5046 -13.8035 -15.2332 -12.7857 -10.711 -11.6998 -14.9862 
