-4.759 
n/a 
n/a 
n/a 
n/a 
-4.759 
n/a 
n/a 
n/a 
n/a 
-4.759 
n/a 
n/a 
n/a 
n/a 
-4.759 
n/a 
n/a 
n/a 
n/a 
-1.7695 -4.3395 -3.6385 -4.361 -4.916 -1.7695 -3.429 -1.934 -3.6065 -3.4795 
-5.0755 -8.554001 -7.8145 -7.6365 -7.179 -4.032 -5.593 -4.9755 -6.7185 
-9.8085 -13.0308 -11.6598 -9.492001 -9.509001 -6.0575 -8.808001 -8.636001 
-14.6211 -16.8761 -13.5153 -11.8858 -11.6897 -9.321 -12.6041 
-18.4664 -18.7316 -15.9091 -14.0665 -14.9532 -13.2673 
-1.7695 -4.3395 -4.1455 -4.916 -5.0295 -3.6065 -3.991 -3.1125 -4.3895 -2.3345 -3.6065 -3.959 0 
-5.0755 -9.160001 -7.763 -9.3995 -9.654 -6.0785 -8.598001 -6.4605 -4.6785 -5.725 -5.801001 -3.959 
-9.7135 -12.8765 -10.019 -14.1182 -10.762 -11.2883 -10.3285 -7.04 -8.113 -7.9115 -5.801001 
-13.4426 -15.1325 -14.8647 -15.2262 -17.7014 -13.0188 -11.518 -10.3815 -9.915 -7.9115 
-15.6986 -19.9782 -15.9727 -22.1656 -19.4319 -14.2083 -14.8595 -12.1835 -9.915 
-1.8085 -3.6385 -5.0295 -2.186 -4.225 -3.4905 -2.186 -8.0375 -3.458 -3.4795 
-4.581 -7.561 -6.8165 -5.321 -6.665 -5.4155 -9.1245 -9.892501 -7.0365 
-9.052501 -10.2435 -10.4333 -8.97 -8.469501 -12.9316 -10.375 -13.471 
-11.9554 -13.8603 -14.0823 -11.1521 -16.3168 -14.1821 -13.9535 
-15.5722 -17.5093 -16.2644 -18.9994 -17.5673 -17.7606 
-6.041 -3.8015 -3.571 -3.3715 -3.959 -4.2815 -4.251 0 
-9.887501 -7.668 -7.466001 -5.699 -7.6325 -9.186501 -4.251 
-13.8818 -11.9548 -10.025 -9.7355 -12.5531 -9.186501 
-18.1686 -14.5138 -14.1283 -15.4383 -12.5531 
-20.7276 -18.6171 -19.8311 -15.4383 
