-4.759 
n/a 
n/a 
n/a 
n/a 
-4.759 
n/a 
n/a 
n/a 
n/a 
-4.759 
n/a 
n/a 
n/a 
n/a 
-4.759 
n/a 
n/a 
n/a 
n/a 
-4.566 0 -7.1695 -9.049001 0 -4.094 0 
-4.566 -7.1695 -10.0715 -9.049001 -4.094 -4.094 
-10.784 -10.0715 -10.0715 -13.4492 -4.094 
-13.686 -10.0715 -14.6145 -13.4492 
-13.686 -14.6145 -14.6145 
-4.566 0 -7.1695 -9.049001 0 -4.936 0 
-4.566 -7.1695 -10.0715 -9.049001 -4.936 -4.936 
-10.784 -10.0715 -10.0715 -14.2912 -4.936 
-13.686 -10.0715 -15.4565 -14.2912 
-13.686 -15.4565 -15.4565 
-4.566 0 -7.1695 -9.049001 0 -4.094 0 
-4.566 -7.1695 -10.0715 -9.049001 -4.094 -4.094 
-10.784 -10.0715 -10.0715 -13.4492 -4.094 
-13.686 -10.0715 -14.6145 -13.4492 
-13.686 -14.6145 -14.6145 
-4.566 -7.1695 -9.2395 0 -4.094 0 
-10.784 -16.9468 -9.2395 -4.094 -4.094 
-20.5613 -16.9468 -14.1673 -4.094 
-20.5613 -21.8746 -14.1673 
-25.4891 -21.8746 
