-4.759 
n/a 
n/a 
n/a 
n/a 
-4.759 
n/a 
n/a 
n/a 
n/a 
-4.759 
n/a 
n/a 
n/a 
n/a 
-4.759 
n/a 
n/a 
n/a 
n/a 
-3.9675 -1.7565 -6.6585 -4.6805 -3.948 -4.763 -1.7565 -3.9615 -4.4445 0 -4.606 -1.756 -4.3425 0 -5.3315 0 
-5.258 -8.343 -12.0976 -9.981001 -6.175 -5.1985 -5.3085 -7.2735 -4.4445 -4.606 -5.805 -5.856 -4.3425 -5.3315 -5.3315 
-12.6145 -14.0929 -17.3981 -12.208 -6.302 -8.790501 -8.6715 -7.2735 -9.762501 -5.805 -9.333501 -5.856 -9.9405 -5.3315 
-18.3644 -19.3934 -19.6251 -12.335 -10.4265 -12.9001 -8.6715 -13.0325 -10.313 -9.333501 -9.333501 -12.1316 -9.9405 
-23.6649 -21.6204 -19.7521 -16.4595 -14.5361 -12.9001 -14.4565 -13.583 -14.0411 -9.333501 -15.8071 -12.1316 
-1.4985 -3.9675 -1.7565 -6.6585 -4.0935 -3.6065 -4.458 0 -4.3165 0 -4.3425 -1.756 -4.033 0 
-5.356501 -5.258 -8.343 -11.5106 -7.4545 -6.741 -4.458 -4.3165 -4.3165 -4.3425 -5.6415 -6.1355 -4.033 
-5.832 -12.6145 -13.5059 -14.8716 -10.7595 -6.741 -9.4005 -4.3165 -9.0755 -5.6415 -9.776 -6.1355 
-13.4033 -17.7774 -16.8669 -18.1766 -10.7595 -12.1427 -9.4005 -9.0755 -10.032 -9.776 -9.776 
-18.5662 -21.1384 -20.1719 -18.1766 -16.1612 -12.1427 -14.3637 -10.032 -14.4301 -9.776 
-6.6585 -3.9675 -1.7565 0 -2.9905 -1.7565 -4.548 0 -4.3425 -2.186 -4.0725 -4.763 0 
-11.0145 -5.258 -1.7565 -2.9905 -3.6185 -7.471001 -4.548 -4.3425 -6.4125 -6.475 -8.781 -4.763 
-12.305 -5.258 -5.989501 -3.6185 -10.304 -7.471001 -10.3557 -6.4125 -11.2221 -10.7495 -8.781 
-12.305 -9.852 -6.189001 -10.304 -10.304 -13.7243 -12.4257 -11.2221 -15.4966 -10.7495 
-16.899 -10.1255 -13.7721 -10.304 -16.5573 -15.7943 -17.2353 -15.4966 -15.4966 
-4.628 -6.9645 -3.9675 -2.674 -3.3715 -4.6365 0 -8.205501 0 -2.3615 -2.674 -3.845 -1.7565 -4.763 
-7.012 -11.7126 -7.0455 -5.4105 -6.443 -4.6365 -8.205501 -8.205501 -2.3615 -6.129 -7.2815 -4.13 -6.619501 
-11.8177 -14.7906 -9.8485 -8.6395 -6.443 -13.8178 -8.205501 -10.9315 -6.129 -11.3461 -7.4975 -9.018001 
-14.8957 -17.5936 -13.1579 -8.6395 -16.5223 -13.8178 -10.9315 -14.699 -11.3461 -11.5621 -12.5597 
-17.6987 -20.903 -13.1579 -18.4312 -16.5223 -16.5438 -14.699 -19.9161 -11.5621 -16.6243 
