-4.759 
n/a 
n/a 
n/a 
n/a 
-4.759 
n/a 
n/a 
n/a 
n/a 
-4.759 
n/a 
n/a 
n/a 
n/a 
-4.759 
n/a 
n/a 
n/a 
n/a 
-4.891 -4.417 -1.4985 -6.4735 -1.7695 -5.54 -1.4985 -4.219 -1.756 -5.231 -2.5195 -4.498 
-10.335 -5.852 -7.190001 -8.0465 -6.4515 -6.722001 -5.129 -5.83 -6.73 -5.933001 -6.474 
-12.0114 -12.1213 -8.791 -10.163 -7.102 -8.4385 -6.4875 -10.31 -7.6165 -7.890501 
-18.2807 -13.7223 -10.9791 -10.282 -8.6625 -9.567 -11.2137 -11.1965 -9.7825 
-19.8817 -15.9104 -11.0981 -11.8425 -9.745001 -14.321 -12.1002 -13.3625 
-6.144 -4.417 -3.5455 -3.75 -5.1845 -3.1385 -1.7695 -5.54 -2.3615 -4.219 -2.925 -3.074 -4.676 -3.1385 -2.5195 -4.498 0 
-10.389 -9.122001 -5.228001 -9.328 -7.4095 -4.6115 -6.4515 -7.522 -5.9295 -6.931001 -4.9325 -7.406 -8.439501 -5.074 -6.474 -4.498 
-15.094 -10.554 -9.9665 -11.6674 -8.9575 -8.231001 -7.899 -9.810501 -8.1455 -8.759001 -9.485001 -10.4595 -9.794001 -7.884001 -6.474 
-16.526 -15.7573 -12.1299 -13.2154 -12.7848 -10.0885 -10.2275 -12.1253 -10.0675 -13.3785 -12.7361 -12.1568 -12.6526 -7.884001 
-21.7293 -17.9207 -13.6779 -17.0427 -14.6423 -12.417 -12.5423 -14.0473 -15.108 -16.6296 -14.4334 -15.0154 -12.6526 
-5.1845 -3.1385 -1.934 -1.4985 -3.5455 -3.75 -2.4945 -5.231 -2.5195 -4.498 -3.851 -1.7695 -1.4985 -4.1665 -1.7565 -4.5845 -1.7695 -5.54 -1.4985 -4.219 
-7.4095 -4.522 -2.6125 -4.554 -5.228001 -6.851501 -6.359 -5.933001 -6.474 -8.448501 -4.0015 -2.7955 -5.1785 -6.062 -6.3335 -7.007 -6.4515 -6.722001 -5.129 
-8.46 -5.087501 -5.298 -5.962 -8.083501 -10.8984 -6.436501 -7.890501 -8.807501 -8.4875 -4.5775 -6.553 -6.8805 -11.254 -9.032001 -12.2674 -7.102 -8.4385 
-9.014 -7.436501 -6.3795 -8.2005 -12.261 -10.9759 -8.703501 -9.7565 -8.811501 -9.254001 -9.028 -7.85 -12.3099 -13.9525 -14.305 -12.9179 -8.6625 
-9.5415 -8.285501 -8.4095 -12.402 -12.3385 -13.2429 -11.0789 -9.759001 -9.7405 -13.8325 -10.1855 -13.6152 -15.0084 -19.2255 -14.9555 -14.4784 
-4.891 -3.251 -3.985 -1.4985 -5.1845 -3.1385 -1.7695 -5.54 -4.492 -1.934 -1.4985 -4.142 -4.5655 0 
-7.578501 -6.112 -5.375 -6.5205 -7.4095 -4.6115 -6.4515 -8.889001 -5.474 -2.6125 -5.0295 -5.6765 -4.5655 
-10.6807 -7.006001 -9.709001 -7.6315 -8.9575 -8.231001 -9.196501 -9.5965 -7.1365 -5.665 -6.313 -5.6765 
-11.5747 -11.4762 -11.2034 -9.157001 -12.7848 -11.1774 -10.131 -12.1984 -10.151 -6.790501 -6.313 
-16.0449 -12.9706 -12.7289 -13.0435 -15.7312 -12.1119 -13.2263 -15.2129 -11.3973 -6.790501 
