-4.759 
n/a 
n/a 
n/a 
n/a 
-4.759 
n/a 
n/a 
n/a 
n/a 
-4.759 
n/a 
n/a 
n/a 
n/a 
-4.759 
n/a 
n/a 
n/a 
n/a 
-3.776 -1.7695 -4.739 -4.763 -1.7565 -4.1335 -1.7565 -3.995 -4.2485 -1.7695 -3.956 -1.7695 -3.818 0 -3.2615 -6.184 -3.6395 -3.135 -1.7565 -4.9595 -2.186 -4.268 -1.7695 -1.4985 -4.3845 -1.7565 -3.6615 -3.1495 -4.388 -1.7695 -1.4985 -3.644 -1.7565 -3.3585 -1.7695 -3.9655 -1.756 -7.795001 -1.7565 -4.2225 -3.074 0 
-5.283 -6.9715 -9.516001 -5.1985 -5.7415 -5.2435 -5.423 -8.0625 -6.2815 -4.6005 -4.324 -6.058001 -3.818 -3.2615 -10.4185 -10.9315 -7.208 -3.9195 -6.5635 -7.081501 -5.394 -6.9975 -2.7955 -4.936501 -4.873 -5.23 -6.803 -8.9635 -6.515 -2.7955 -4.9855 -6.118001 -5.718 -5.4655 -6.298501 -5.535 -9.1665 -10.451 -5.459 -7.1765 -3.074 
-10.204 -12.1671 -10.5055 -10.0055 -7.0265 -9.132501 -9.627 -10.022 -9.6315 -5.2735 -9.9505 -6.058001 -7.109 -10.4185 -15.166 -14.5 -8.007 -10.0095 -8.563001 -10.7705 -7.877 -7.935 -6.0625 -5.0275 -9.597 -8.6055 -13.134 -11.1617 -7.6045 -6.2 -7.6055 -9.925001 -7.8745 -9.910501 -7.936 -13.9155 -12.0317 -14.1535 -8.5235 -7.1765 
-15.3996 -13.1566 -15.3125 -11.2905 -11.3565 -14.2591 -11.6063 -13.372 -9.993501 -11.1988 -9.9505 -9.1435 -14.6908 -15.166 -18.7345 -15.299 -14.604 -12.009 -12.4054 -13.2535 -9.2755 -11.6178 -6.132 -10.2805 -13.3535 -15.0581 -15.3322 -12.2512 -11.4364 -8.764001 -11.5305 -12.0815 -12.6577 -12.4732 -16.4137 -16.7807 -15.7342 -17.218 -8.5235 
-16.3891 -17.9636 -16.5975 -15.6205 -16.4831 -16.2384 -14.9563 -13.734 -16.5356 -11.1988 -13.1506 -17.1567 -19.4383 -18.7345 -19.5335 -21.896 -16.6035 -15.8514 -14.8884 -14.652 -12.9787 -11.6873 -11.5202 -14.1182 -19.8061 -17.2563 -16.4217 -16.0831 -14.0004 -12.6498 -13.687 -16.8647 -15.2204 -20.9509 -19.2789 -20.4832 -18.7987 -17.218 
-1.4985 -3.6605 -4.7425 -2.186 -3.383 -4.6345 -2.0935 -3.6835 -3.4625 -2.4265 -4.6205 -3.383 -4.7905 -3.6505 -1.934 -2.8705 -3.995 -1.4985 -4.208 -5.0015 -2.742 -2.489 -5.6695 0 -1.934 -4.225 -3.793 -4.359 0 
-4.6365 -4.8735 -6.081 -4.438 -6.1445 -6.286 -5.189 -5.5035 -6.507 -5.822001 -7.842 -8.418 -8.7965 -5.299 -4.1055 -6.4335 -5.7605 -5.2705 -7.4275 -7.639 -3.301 -7.3765 -5.6695 -1.934 -6.6915 -7.961501 -9.193001 -4.359 
-6.350501 -6.152 -8.483001 -6.945001 -7.4745 -8.445001 -8.1975 -7.387001 -9.763 -8.758 -13.2894 -12.679 -10.8632 -7.3235 -8.185 -8.245501 -9.1265 -8.0225 -10.3345 -7.775 -8.419001 -7.3765 -7.1045 -6.6915 -10.702 -13.7895 -9.193001 
-8.279 -8.630501 -10.586 -8.0205 -9.8395 -10.6095 -9.822001 -10.503 -12.748 -14.3968 -17.5504 -14.7457 -12.8877 -12.0132 -9.9975 -11.7093 -12.2107 -10.749 -10.4705 -13.814 -8.419001 -8.398001 -12.6226 -10.702 -16.53 -13.7895 
-10.687 -10.6605 -11.6615 -10.2535 -12.0962 -12.234 -13.1576 -13.488 -18.3868 -18.6578 -19.6171 -16.7702 -17.5774 -13.8257 -13.5575 -14.7935 -14.9372 -10.885 -16.5095 -13.814 -9.658 -14.2389 -16.6331 -16.53 -16.53 
-3.4765 -2.7835 -4.494 -3.6605 -4.7425 -2.356 -3.371 -1.934 -3.6065 -4.644 0 -1.4985 -3.922 -1.934 -4.2485 -2.7765 -2.489 -1.8085 -4.031 -2.0935 -4.3805 -1.934 -4.975 -3.4425 0 -4.3855 -1.934 -4.1115 -3.518 -3.1495 -3.768 -2.489 -4.2895 -2.0935 -5.4175 -1.756 -5.7835 -3.0365 -3.768 -2.489 -4.1755 -1.934 -1.4985 -4.372 -2.4285 -4.661 -2.356 -2.9705 -2.925 -8.1355 -1.934 -4.5085 -3.8935 0 -3.994 -1.7565 -4.2785 -4.824 0 -4.3905 -3.9655 -4.418 0 -4.856 -1.7565 -3.8245 -5.126 0 -1.756 -3.922 -1.934 -4.05 -4.605 -3.787 -2.4945 -3.135 -1.7565 -3.1435 -3.9515 0 
-4.429 -8.726501 -9.306001 -4.8735 -7.2535 -6.3575 -5.0325 -4.9755 -6.686501 -4.644 -1.4985 -5.1995 -4.558 -6.183 -6.828501 -3.495 -3.799 -5.249001 -4.8935 -6.6825 -5.021 -6.6275 -8.120501 -3.4425 -4.3855 -5.280001 -6.27 -5.3935 -6.616 -6.5515 -4.333 -7.4455 -5.047 -7.592 -6.3715 -6.9195 -8.360001 -5.681 -4.333 -7.941501 -5.016 -2.6125 -5.2885 -6.4165 -6.649 -6.949 -5.069 -4.773 -9.9755 -9.1575 -6.036 -6.093 -3.8935 -3.994 -5.113 -4.801 -10.2045 -4.824 -4.3905 -8.254 -8.525001 -4.418 -4.856 -5.400001 -5.058 -6.665 -5.126 -1.756 -5.3165 -4.558 -6.462 -7.63 -8.207001 -6.5595 -4.575 -3.9195 -4.124 -6.0385 -3.9515 
-10.2805 -13.2827 -10.397 -7.3665 -10.7595 -7.395 -8.017 -7.676 -6.686501 -6.184 -5.1995 -5.415 -7.1455 -8.103001 -7.139 -4.987 -6.688 -6.021 -9.073 -7.413001 -9.104501 -9.3555 -8.120501 -8.842501 -5.280001 -7.266001 -7.008 -8.33 -9.608 -6.966001 -8.575 -7.967 -10.4265 -8.368 -9.029 -9.4165 -11.1659 -5.787 -9.542 -8.777 -5.537001 -6.4115 -7.35 -9.8585 -8.876 -7.616 -6.1685 -10.518 -9.661501 -11.8425 -7.134501 -6.093 -9.079 -5.113 -10.168 -11.2368 -10.2045 -9.581501 -8.254 -13.3669 -8.525001 -10.3068 -5.400001 -8.808001 -7.658 -6.665 -6.364501 -5.3165 -6.7485 -8.17 -8.536501 -11.991 -11.2157 -9.3 -5.097 -5.788001 -7.318 -6.0385 
-15.2269 -14.3737 -13.2788 -10.7595 -11.797 -10.3345 -10.45 -7.676 -8.175 -8.476501 -5.415 -7.965001 -9.0535 -8.801001 -8.958501 -8.2115 -7.186501 -10.3745 -9.5415 -11.6719 -12.7849 -9.3555 -13.8819 -9.711 -7.266001 -7.4455 -9.706001 -11.535 -10.2155 -10.134 -9.17 -13.4851 -11.2025 -11.2767 -11.6228 -12.3876 -11.2719 -9.9055 -10.069 -9.439501 -8.069501 -8.261001 -10.4505 -11.9773 -8.952001 -8.731501 -11.4475 -10.08 -13.1684 -13.2449 -7.134501 -11.9575 -9.3735 -10.168 -16.89 -11.2368 -14.962 -13.445 -13.3669 -13.3669 -15.2268 -10.8508 -8.808001 -10.1425 -7.658 -7.5335 -10.411 -6.7485 -10.1855 -10.6787 -13.9675 -14.9997 -13.9562 -9.597501 -7.893001 -8.43 -7.318 
-16.3179 -17.2555 -16.6718 -11.797 -14.7365 -12.7675 -10.45 -9.094501 -10.5787 -8.6045 -7.965001 -10.126 -9.7725 -10.354 -12.4014 -8.570001 -11.7646 -10.9828 -13.859 -15.3523 -12.7849 -15.6923 -14.7504 -12.0758 -7.4455 -10.0705 -12.9174 -12.1425 -13.3835 -10.7706 -14.7355 -14.2611 -14.1112 -13.8705 -14.5939 -12.4936 -15.3904 -10.247 -10.767 -11.997 -9.696501 -11.7475 -13.1319 -12.0533 -11.0813 -14.3775 -11.6019 -13.8267 -14.7342 -13.2449 -13.1264 -12.252 -14.3691 -16.89 -16.89 -15.9943 -18.8255 -18.5579 -13.3669 -20.0687 -15.7708 -14.2588 -10.1425 -10.1425 -8.5165 -12.1856 -11.843 -10.1855 -12.7988 -16.1097 -16.9762 -17.7402 -14.2537 -12.9941 -10.3885 -8.43 
-4.015 -4.126 -1.7695 -3.4625 -3.188 -4.0005 -4.113 -3.4625 -2.4265 -1.7695 -2.489 -4.05 -4.8125 
-7.376 -5.987 -4.3 -7.2375 -4.969501 -8.192 -4.488501 -5.4025 -4.11 -3.1405 -7.8855 -7.989 
-9.603001 -8.852501 -7.951001 -9.037001 -8.968 -8.716001 -6.869 -6.289 -5.19 -8.259501 -10.647 
-12.5141 -12.7391 -10.4505 -12.9789 -9.481501 -11.3913 -10.6465 -8.174001 -10.5425 -11.2946 
-16.4007 -15.2386 -14.3924 -13.4924 -12.1846 -15.1688 -12.5315 -13.8207 -13.5776 
