-4.759 
n/a 
n/a 
n/a 
n/a 
-4.759 
n/a 
n/a 
n/a 
n/a 
-4.759 
n/a 
n/a 
n/a 
n/a 
-4.759 
n/a 
n/a 
n/a 
n/a 
-4.304 -2.674 -1.7695 -3.213 -2.0935 -4.698 -2.5045 -3.3235 -2.5045 -5.831 -6.249 
-7.439501 -3.787 -4.1345 -4.5705 -6.916501 -6.7045 -3.7105 -3.8485 -8.568501 -6.4665 
-9.128501 -5.81 -5.4095 -9.684 -8.612 -7.7485 -3.8545 -10.688 -8.724501 
-11.3189 -7.085 -10.7754 -11.4247 -9.916 -7.8025 -10.688 -10.844 
-12.5939 -13.0637 -12.5161 -12.7287 -9.993501 -14.9812 -10.844 
-4.698 -1.934 -4.015 -5.831 -7.311501 -3.325 -1.4985 -3.4985 0 
-6.177001 -4.6075 -10.9575 -11.117 -11.6955 -3.898 -4.798 -3.4985 
-8.566501 -11.7392 -16.2435 -15.501 -12.2685 -5.8625 -4.798 
-15.877 -17.0252 -20.6275 -16.074 -14.233 -5.8625 
-21.163 -21.4092 -21.2005 -18.0385 -14.233 
-4.373 -2.186 -2.0935 -4.698 -4.1065 -2.4265 -3.4405 -4.6865 -1.7695 -5.831 -5.8395 
-6.352 -4.4495 -6.916501 -8.581501 -7.194 -4.5365 -10.0255 -6.2415 -7.9785 -10.1225 
-8.43 -8.687501 -10.468 -11.9956 -9.285501 -11.8901 -11.6895 -13.0611 -12.9538 
-13.1372 -13.1424 -13.8821 -14.0871 -17.0407 -13.5541 -18.5091 -18.0364 
-17.5921 -16.5565 -15.9736 -21.8423 -18.7047 -20.3737 -23.4844 
-4.373 -2.186 -2.0935 -4.698 -4.1065 -2.4265 -3.4405 -4.6865 -1.7695 -5.831 -5.8395 
-6.352 -4.4495 -6.916501 -8.581501 -7.194 -4.5365 -10.0255 -6.2415 -7.9785 -10.1225 
-8.43 -8.687501 -10.468 -11.9956 -9.285501 -11.8901 -11.6895 -13.0611 -12.9538 
-13.1372 -13.1424 -13.8821 -14.0871 -17.0407 -13.5541 -18.5091 -18.0364 
-17.5921 -16.5565 -15.9736 -21.8423 -18.7047 -20.3737 -23.4844 
