-4.759 
n/a 
n/a 
n/a 
n/a 
-4.759 
n/a 
n/a 
n/a 
n/a 
-4.759 
n/a 
n/a 
n/a 
n/a 
-4.759 
n/a 
n/a 
n/a 
n/a 
-3.893 0 -3.4155 -4.357 -5.6045 0 -4.024 -5.0395 -3.991 
-3.893 -3.4155 -7.4525 -9.003 -5.6045 -4.024 -9.0755 -9.248001 
-5.477 -7.4525 -10.223 -9.003 -10.1035 -9.0755 -13.405 
-10.7495 -10.223 -10.223 -14.011 -15.155 -13.405 
-13.52 -10.223 -15.8784 -19.0625 -19.4845 
-3.0465 -1.4985 -3.893 -3.4155 -2.5195 -5.6045 -1.756 -3.563 -2.5195 -5.0395 
-4.046 -5.59 -5.477 -5.650001 -7.7165 -6.735001 -5.2 -6.8645 -7.454 
-6.6475 -7.3625 -8.5185 -8.7875 -9.1235 -9.880501 -7.842 -10.228 
-9.896 -11.146 -12.1184 -9.781 -12.7686 -12.8299 -12.1841 
-13.9673 -14.7459 -13.1119 -14.0235 -15.718 -17.172 
-3.563 -3.4155 
-5.4665 
n/a 
n/a 
n/a 
-5.6045 -3.7075 -3.893 -3.8255 -5.0395 -3.7075 -4.5125 
-8.8535 -8.8345 -8.49 -9.205001 -8.812 -8.762501 
-14.5761 -13.9975 -14.1945 -13.3445 -14.1944 
-19.7391 -19.702 -18.334 -18.7269 
-25.4436 -23.8415 -23.7164 
