-4.759 
n/a 
n/a 
n/a 
n/a 
-4.759 
n/a 
n/a 
n/a 
n/a 
-4.759 
n/a 
n/a 
n/a 
n/a 
-4.759 
n/a 
n/a 
n/a 
n/a 
-2.0935 -1.4985 -4.6705 -4.959 -5.123 -2.186 -1.4985 -4.031 
-2.9725 -5.9595 -9.240001 -10.054 -7.014 -3.339 -4.771 
-7.4715 -10.107 -15.1628 -12.033 -9.1415 -5.8475 
-11.8094 -16.5036 -17.1418 -14.1605 -11.7158 
-18.206 -18.4826 -19.2693 -16.7348 
-5.908 0 -1.4985 -4.3805 -1.7565 -5.508 -3.9545 -1.934 -1.4985 -4.6985 -2.186 -1.4985 -4.031 -1.7565 -4.7075 -1.7565 -4.959 -3.9545 0 
-5.0695 -1.4985 -5.495 -5.226501 -6.389501 -6.703001 -5.882 -2.6125 -5.1995 -6.187 -3.339 -4.771 -5.571 -7.197501 -5.854001 -5.9675 -6.6845 -3.9545 
-6.321 -5.495 -5.8385 -8.5865 -7.439001 -8.250501 -6.3695 -5.99 -6.395 -7.7245 -5.8475 -6.571 -10.0315 -7.9715 -9.765001 -7.5695 -6.6845 
-10.0185 -5.8385 -9.142501 -10.111 -8.670501 -8.698001 -7.9805 -7.4085 -8.0775 -9.658 -7.6755 -10.3955 -10.4905 -12.0561 -11.4176 -7.5695 
-10.754 -9.142501 -10.6885 -11.4967 -9.022 -9.674001 -9.120501 -8.692 -10.45 -11.6018 -11.7134 -10.9097 -14.5751 -13.7087 -11.4176 
-2.0935 -2.3335 0 -8.713 -1.7565 -8.608001 -1.934 -4.142 -1.7565 -1.4985 -5.631 -2.3615 -3.098 -1.4985 -3.892 -2.0935 -5.082 
-4.488501 -2.3335 -8.713 -10.9315 -10.259 -11.0746 -6.663 -4.797 -2.4195 -6.848001 -8.0705 -5.7725 -4.514 -4.68 -5.971 -6.935 
-4.488501 -12.2373 -10.9315 -19.434 -12.7256 -15.8036 -7.3155 -5.014 -7.649001 -9.5 -11.8481 -7.7635 -8.160501 -6.609 -10.749 
-14.9423 -14.4558 -19.434 -21.9006 -17.4546 -16.4561 -8.264501 -11.2369 -9.989 -13.2832 -13.8391 -11.5504 -10.6095 -11.7456 
-17.1608 -22.9583 -21.9006 -26.6296 -18.1071 -17.4051 -14.7596 -13.5769 -13.7722 -15.2742 -17.626 -13.9994 -15.7461 
-4.064 -1.7565 -2.3335 0 -1.4985 -4.856 -1.7565 -5.508 -2.264 -1.4985 -4.7885 -3.7345 -1.7565 -4.238 -2.186 -1.4985 -4.031 -2.0935 -3.931 -1.7565 -4.959 
-4.3045 -4.314 -2.3335 -1.4985 -5.6305 -5.400001 -6.389501 -7.821501 -2.9195 -5.282001 -5.866 -5.555 -5.7635 -6.250501 -3.339 -4.771 -4.8935 -5.78 -4.616 -5.9675 
-6.9475 -4.314 -3.3515 -5.6305 -5.727 -8.7775 -8.314501 -8.4805 -6.3535 -7.474 -8.493 -10.476 -8.091001 -7.4645 -5.8475 -5.3855 -8.352 -6.0295 -8.650001 
-6.9475 -6.3585 -7.386 -5.727 -9.261001 -11.0311 -9.169001 -12.4525 -9.2235 -8.976001 -13.6772 -12.8035 -9.41 -10.2925 -6.593 -9.2095 -8.5605 -10.7495 
-8.5775 -10.5425 -7.5015 -9.261001 -11.5584 -11.8856 -13.306 -15.3225 -10.75 -14.3356 -16.0047 -14.1225 -12.3234 -11.038 -10.434 -9.368501 -13.5607 
