-4.759 
n/a 
n/a 
n/a 
n/a 
-4.759 
n/a 
n/a 
n/a 
n/a 
-4.759 
n/a 
n/a 
n/a 
n/a 
-4.759 
n/a 
n/a 
n/a 
n/a 
-12.576 0 -2.7415 -1.4985 -6.528 -1.7565 -8.5445 -12.502 -4.657 -1.934 -5.4505 -4.7475 -4.489 -3.9955 -10.8685 -1.934 -5.42 
-10.8415 -2.7415 -4.063 -7.535001 -7.684501 -9.776001 -22.3317 -16.9304 -5.156 -8.547001 -9.956001 -9.9925 -8.4505 -16.3566 -12.8025 -6.649 
-13.8005 -4.063 -10.523 -7.9835 -16.1934 -23.8278 -25.8347 -17.4294 -12.421 -13.1461 -15.386 -13.954 -20.9258 -18.2906 -17.5175 
-15.122 -10.523 -10.9715 -16.6202 -30.2452 -27.3308 -26.3337 -24.6944 -17.0201 -18.5761 -19.3475 -26.4293 -22.8598 -23.0056 
-21.582 -10.9715 -19.6082 -30.672 -33.7482 -27.8298 -33.5987 -29.2935 -22.4501 -22.5376 -31.8228 -28.3633 -27.5748 
-9.110001 0 -3.436 -2.3335 -3.9725 -5.7225 -5.9085 -1.4985 -3.5015 -1.4985 -3.5015 -3.3155 -5.333 -3.1385 -4.657 -2.186 -5.8285 -2.3345 -15.76 -1.934 -5.42 0 
-6.757 -3.436 -5.4805 -6.652 -9.9565 -10.7335 -6.644 -4.737 -4.9995 -4.737 -5.1555 -8.758 -7.701 -6.756001 -7.637 -7.5035 -6.6595 -18.4251 -18.2705 -6.649 -5.42 
-9.582001 -5.4805 -9.255501 -13.0862 -15.1201 -11.469 -9.668 -6.547501 -7.6635 -5.664001 -10.4505 -11.589 -11.6303 -9.8715 -13.2119 -7.7195 -23.3811 -20.9356 -20.7575 -6.649 
-11.8154 -9.255501 -15.8377 -18.2498 -15.8556 -14.493 -11.6057 -8.646 -8.225 -11.2686 -13.2815 -15.5183 -14.7458 -15.502 -13.4279 -24.6761 -25.8916 -23.4226 -20.7575 
-15.5904 -15.8377 -21.0013 -18.9853 -18.8796 -16.4307 -13.7042 -9.8415 -14.4374 -14.0996 -17.2108 -18.6338 -20.3763 -15.718 -30.3845 -27.1866 -28.3786 -23.4226 
-9.110001 0 -12.16972 -4.657 -1.756 -2.925 -4.9385 -1.934 -5.42 
-6.757 -12.16972 -16.82672 -6.045 -4.2585 -7.1705 -5.9335 -6.649 
-20.35112 -16.82672 -18.21472 -8.318501 -8.5765 -8.870501 -11.1733 
-25.00812 -18.21472 -20.48822 -12.7187 -10.5437 -14.1849 
-26.39612 -20.48822 -24.88842 -14.6859 -15.8581 
-1.934 -5.42 0 -9.110001 -4.9385 -17.02372 0 -2.9705 -2.7415 -3.819 -1.4985 -5.565 -1.7565 -5.7225 -4.1 -1.756 -3.074 -3.3155 -7.2145 -4.657 -1.934 -3.6885 -4.0145 
-6.649 -5.42 -6.757 -11.8945 -24.72102 -18.84152 -2.9705 -4.512 -5.5775 -4.844 -6.228001 -6.6825 -7.214001 -7.529 -5.774 -4.566 -6.455501 -10.254 -10.7175 -5.156 -5.257 -5.6105 
-6.649 -10.272 -12.1717 -32.30182 -24.72102 -21.81202 -4.512 -7.014501 -6.561501 -9.779001 -7.364 -13.0112 -8.218 -8.649501 -8.1425 -7.4705 -13.6786 -13.757 -11.2165 -8.4215 -6.456 
-11.1035 -15.6867 -32.30182 -32.30182 -27.69152 -23.35352 -7.014501 -7.812 -10.4185 -10.0535 -13.4849 -14.0152 -9.376501 -11.206 -11.4102 -14.757 -17.1816 -14.256 -14.482 -9.857 
-16.5182 -35.81682 -32.30182 -35.27232 -29.23302 -25.85602 -7.812 -11.8124 -10.7305 -16.3196 -14.4889 -15.1737 -11.9586 -14.4737 -18.6967 -18.26 -17.6806 -17.5215 -15.9175 
