-4.759 
n/a 
n/a 
n/a 
n/a 
-4.759 
n/a 
n/a 
n/a 
n/a 
-4.759 
n/a 
n/a 
n/a 
n/a 
-4.759 
n/a 
n/a 
n/a 
n/a 
-2.3615 -3.9675 -4.6805 -5.0155 -1.756 -3.9615 -4.4445 -1.7565 -4.246 -3.115 -3.3195 0 -4.1465 -1.756 -4.245 
-6.633 -8.3625 -11.8658 -6.423 -5.614 -7.2735 -4.5845 -5.6155 -6.609 -6.352 -3.3195 -4.1465 -5.6545 -5.618 
-9.948 -15.5516 -13.2733 -9.6115 -9.203501 -7.3675 -9.954 -7.915 -10.0885 -6.352 -5.874001 -5.6545 -8.5575 
-17.1117 -16.9591 -16.4618 -13.4036 -9.2995 -12.925 -12.2717 -11.5435 -10.0885 -8.693501 -6.9045 -8.5575 
-18.5192 -20.1476 -20.2539 -13.4996 -14.8908 -15.2427 -15.9002 -11.5435 -12.77 -9.024 -9.047501 
-2.3615 -3.9675 -4.6805 -1.7565 -3.948 -4.8965 -3.3195 0 -4.245 -1.756 -5.4085 -1.756 -2.8965 -4.6945 0 
-6.633 -8.3625 -4.722 -5.05 -9.110001 -8.0935 -3.3195 -4.245 -5.425 -6.6325 -6.488 -3.751 -6.0295 -4.6945 
-9.948 -8.416 -7.42 -10.316 -12.5372 -8.0935 -6.736 -5.425 -11.3711 -7.9245 -7.963 -6.659 -6.0295 
-10.005 -11.2332 -12.8902 -13.7432 -12.5372 -11.8834 -7.574 -11.3711 -12.6631 -9.630501 -11.5092 -6.659 
-13.1644 -16.7034 -16.3174 -13.7432 -16.3271 -12.7214 -14.0963 -12.6631 -14.3691 -13.3207 -11.5092 
-2.3615 -3.9675 -2.186 -3.299 -3.998 0 -1.756 -4.0725 -3.4865 -3.3195 0 -1.756 -4.1465 -4.245 0 
-6.633 -5.881001 -5.5155 -8.6385 -3.998 -1.756 -5.518 -9.059 -6.982 -3.3195 -1.756 -5.5085 -7.706 -4.245 
-7.787 -9.294001 -11.1434 -8.6385 -5.648 -5.518 -10.586 -12.7013 -6.982 -4.768 -5.5085 -9.375501 -7.706 
-11.3004 -15.1157 -11.1434 -9.439501 -10.647 -10.586 -14.2283 -12.7013 -7.9985 -6.2435 -9.375501 -9.375501 
-17.1221 -15.1157 -11.9444 -14.5655 -15.715 -14.2283 -14.2283 -13.7178 -9.800501 -9.5725 -9.375501 
-2.3615 -3.9675 -3.9285 -2.186 -3.299 0 -3.3235 -3.3785 -4.0115 0 -3.3715 -4.6365 -3.3195 0 -4.1465 0 -4.245 
-6.633 -8.432501 -6.214 -5.5155 -3.299 -3.3235 -6.351501 -7.210501 -4.0115 -3.3715 -6.443 -8.2305 -3.3195 -4.1465 -4.1465 -4.245 
-10.204 -9.668 -9.7535 -5.5155 -7.647501 -6.351501 -10.7495 -7.210501 -8.140501 -6.443 -10.553 -8.2305 -5.874001 -4.1465 -7.706 
-11.4395 -13.6759 -9.7535 -9.302 -10.8501 -10.7495 -10.7495 -12.3099 -10.6875 -10.553 -10.553 -9.790501 -5.874001 -7.706 
-15.4474 -13.6759 -13.8162 -12.5654 -15.2481 -10.7495 -15.8489 -14.8569 -14.7975 -10.553 -12.113 -9.790501 -8.577001 
