-4.759 
n/a 
n/a 
n/a 
n/a 
-4.759 
n/a 
n/a 
n/a 
n/a 
-4.759 
n/a 
n/a 
n/a 
n/a 
-4.759 
n/a 
n/a 
n/a 
n/a 
-5.473 -3.4625 -4.0195 -1.4985 -4.4385 -1.7565 -1.4985 -3.995 -4.624 
-6.14 -7.8345 -5.159 -5.331 -5.339001 -2.4195 -4.712 -7.6225 
-10.1945 -9.1405 -9.0725 -5.516 -5.7165 -5.2205 -8.682001 
-11.7937 -13.0826 -9.3055 -5.9005 -7.665 -9.17 
-15.7358 -13.3156 -9.5775 -7.8985 -11.9615 
-3.741 -3.6615 -2.4945 -3.4625 -3.2295 -1.4985 -4.5905 -4.0395 -3.074 -4.624 
-6.99 -5.3425 -7.035 -5.891 -3.844 -5.0525 -9.676001 -7.0645 -8.112 
-8.741501 -9.646001 -9.816 -6.6675 -6.4905 -10.223 -12.777 -12.5861 
-13.2994 -12.7704 -10.4295 -10.1542 -12.0514 -13.324 -18.2986 
-16.4238 -13.3839 -14.632 -15.7151 -15.1524 -18.8456 
-4.152 -4.763 -3.571 -4.4385 -3.2345 -5.045 -1.4985 -4.624 
-7.041 -8.568 -7.785 -7.7925 -8.8255 -6.222 -5.9525 
-11.5164 -12.9746 -11.4166 -13.8011 -10.76 -11.25 
-15.923 -16.6062 -17.4252 -15.7356 -15.788 
-19.5546 -22.6148 -19.3597 -20.7636 
-3.741 -3.6615 -4.0195 -4.823 -3.6615 0 -4.624 
-6.99 -7.619 -9.795501 -10.115 -3.6615 -4.624 
-10.071 -13.6214 -15.3295 -10.115 -8.713 
-16.0734 -19.1554 -15.3295 -15.1665 
-21.6074 -19.1554 -20.381 
