-4.759 
n/a 
n/a 
n/a 
n/a 
-4.759 
n/a 
n/a 
n/a 
n/a 
-4.759 
n/a 
n/a 
n/a 
n/a 
-4.759 
n/a 
n/a 
n/a 
n/a 
-1.934 -5.046 -4.2815 -2.871 -1.7565 -1.4985 -4.8765 -3.959 -1.934 -4.2815 -3.685 -2.5045 -1.8085 -4.6825 -3.6705 -2.3335 -2.186 -3.7015 -1.7695 -4.866 -1.4985 -9.110001 -3.1385 0 
-6.3405 -8.495 -7.632501 -3.5385 -2.4195 -6.495501 -8.4665 -5.2625 -5.399 -9.376 -5.0275 -3.3625 -7.7795 -7.923 -5.122 -3.7085 -5.937 -7.22 -6.125501 -6.6255 -9.814 -10.4665 -3.1385 
-9.261001 -12.0808 -8.068001 -3.7675 -7.597001 -10.5251 -9.5905 -8.747001 -10.451 -10.271 -5.5675 -9.717001 -11.4372 -9.8205 -6.7625 -7.2565 -9.164001 -11.849 -8.034 -14.4753 -12.968 -10.7025 
-12.9572 -12.5163 -8.207001 -9.539001 -11.8506 -11.6491 -13.412 -14.0838 -11.346 -10.76 -12.4614 -13.6265 -13.3347 -11.6208 -10.4505 -10.5855 -13.8968 -13.7575 -16.0684 -18.7088 -13.256 
-13.3927 -12.6553 -14.2235 -13.876 -12.9746 -15.4706 -18.7488 -14.9788 -11.835 -17.6539 -16.3709 -15.524 -15.135 -15.3088 -13.7795 -15.3183 -15.8053 -21.7919 -20.3019 -18.7088 
-3.959 -1.7565 -4.2815 -5.046 -3.158 -3.5725 -3.158 -2.871 -3.9725 -3.4765 -12.16972 -4.809 0 
-5.473 -5.607 -8.2145 -9.0555 -7.033501 -8.8725 -5.3025 -6.4505 -7.6815 -16.93762 -16.97872 -4.809 
-8.8595 -9.4385 -12.5994 -13.2114 -12.5557 -11.4354 -10.586 -10.4265 -21.51202 -21.74662 -16.97872 
-13.108 -13.9508 -16.7553 -18.7336 -15.1186 -16.7189 -14.562 -24.25702 -26.32102 -21.74662 
-17.6203 -18.1067 -22.2775 -21.2965 -20.4021 -20.6949 -28.39252 -29.06602 -26.32102 
-4.2815 -2.7415 -1.8085 -3.6135 -4.0965 -1.934 -1.4985 -5.0265 -4.348 -5.7865 -1.4985 -3.158 -5.046 -2.872 -2.4265 -4.896 -6.79 -9.110001 -2.229 -5.3055 -1.7565 -3.1385 0 
-6.744 -3.891 -4.4545 -9.185 -6.3255 -2.6125 -6.196 -6.706 -10.375 -7.099 -4.178 -7.7545 -7.9685 -4.062 -7.799001 -13.1434 -13.2825 -8.818001 -7.6425 -5.8765 -4.388 -3.1385 
-7.998001 -5.835 -9.605 -11.5734 -6.999001 -7.3325 -7.2215 -13.187 -11.6875 -9.003 -8.332001 -10.3545 -9.13 -9.567501 -15.7072 -19.6359 -15.151 -12.7005 -7.840001 -9.2135 -4.388 
-10.0575 -11.2905 -12.0602 -12.2469 -12.26 -9.0865 -13.8707 -14.4995 -13.5915 -13.4338 -10.4425 -11.516 -14.8829 -17.6847 -22.1997 -21.5044 -19.402 -13.074 -10.7495 -9.2135 
-15.513 -13.7457 -12.7337 -17.5079 -14.014 -15.7765 -15.1832 -16.4035 -18.0223 -15.5443 -11.604 -17.2689 -23.0001 -24.1772 -24.0682 -25.7554 -19.5995 -15.9835 -10.7495 
-1.934 -5.046 -4.2815 -2.7415 -1.4985 -3.4155 -4.0965 -1.7565 -3.0695 -2.7415 -1.4985 -2.871 -1.7565 -1.4985 -3.59 -1.7565 -8.1035 -3.074 -2.4265 -2.7415 -4.896 -1.4985 -4.9225 -1.7565 -6.0165 -2.229 -3.0695 -4.465 -2.3345 -1.4985 -9.110001 0 
-6.3405 -8.495 -6.744 -4.063 -4.4155 -7.85 -5.308001 -5.4455 -4.6395 -4.063 -4.316 -3.5385 -2.4195 -4.268 -5.228 -9.751 -9.4205 -5.653 -3.681 -6.74 -6.111501 -6.040501 -6.042 -7.105501 -9.2165 -5.3295 -7.2405 -5.2135 -3.233 -9.814 -6.757 
-9.261001 -9.4975 -7.947001 -6.8325 -8.2725 -8.334001 -10.6875 -7.186 -5.8275 -5.9205 -6.0265 -3.7675 -5.009 -5.877 -14.5892 -11.685 -11.8955 -6.902 -7.9775 -8.973001 -11.2973 -6.489501 -12.7204 -10.9937 -12.5222 -10.27 -10.335 -5.7335 -10.6295 -9.0225 
-9.9755 -10.751 -10.2695 -10.485 -8.473001 -14.0105 -12.428 -8.3935 -7.8885 -7.753 -6.275001 -6.2585 -6.7615 -15.4146 -16.2647 -14.246 -13.299 -11.4513 -10.269 -14.1756 -11.7463 -13.4137 -16.6086 -14.2994 -17.4627 -13.3039 -10.855 -13.6126 -10.7743 
-11.283 -13.0735 -13.922 -10.6855 -14.2017 -15.751 -13.6355 -10.6465 -9.820001 -7.925 -9.106501 -9.655001 -16.6533 -17.0901 -18.8257 -15.5575 -17.9553 -13.7428 -15.4716 -14.6246 -18.6705 -17.3019 -19.9143 -19.2399 -20.4966 -13.8239 -18.7341 -13.6126 
