-4.759 
n/a 
n/a 
n/a 
n/a 
-4.759 
n/a 
n/a 
n/a 
n/a 
-4.759 
n/a 
n/a 
n/a 
n/a 
-4.759 
n/a 
n/a 
n/a 
n/a 
-3.135 -3.5215 -4.243 -3.7765 -1.7695 -4.0395 -1.4985 -4.1145 -4.3875 -1.934 -3.737 -1.7565 -7.1005 0 
-6.2085 -7.9865 -7.9825 -6.2685 -5.327 -6.023 -5.3525 -8.925 -6.454 -5.191 -5.3145 -9.478001 -7.1005 
-11.2099 -12.4138 -10.9817 -10.8224 -7.063 -9.927501 -9.8985 -11.3171 -10.142 -7.9185 -13.7864 -9.478001 
-15.6372 -15.413 -15.5356 -12.5584 -11.1849 -14.7225 -12.4142 -15.0051 -13.3531 -16.423 -13.7864 
-18.6364 -19.9669 -17.2716 -16.6803 -15.9799 -17.2382 -16.1022 -18.2162 -21.8576 -16.423 
-2.0935 -3.937 -3.7765 -1.934 -4.1145 -2.674 -1.7695 -3.581 -1.934 -2.5045 0 -4.1145 -4.3875 0 -2.872 -3.2615 -3.937 -3.135 -3.7765 -2.4265 -4.098 -4.403 -4.2735 -3.3255 -3.1065 0 
-5.5045 -8.464001 -5.749001 -6.6335 -7.907001 -3.787 -4.968 -3.7885 -5.037 -2.5045 -4.1145 -8.925 -4.3875 -2.872 -5.3645 -6.203 -5.815001 -7.717 -6.1165 -5.228 -7.412 -8.683001 -6.8515 -6.3715 -3.1065 
-10.5307 -10.0345 -8.875501 -10.543 -9.6505 -6.4375 -5.129 -6.3305 -5.037 -7.450001 -8.925 -8.925 -7.292001 -5.3645 -7.7285 -7.117001 -10.375 -10.1815 -9.370501 -8.304501 -12.252 -11.7156 -9.745501 -6.3715 
-12.1012 -13.7384 -13.9796 -10.767 -12.602 -6.5145 -7.146501 -6.3305 -10.757 -13.0585 -8.925 -12.1551 -10.281 -7.7285 -8.433001 -12.2306 -13.1579 -14.0935 -12.9944 -13.5923 -15.2846 -14.6096 -9.745501 
-15.8051 -18.8425 -14.2036 -14.6725 -12.679 -8.436501 -7.146501 -13.2139 -16.3655 -13.0585 -12.1551 -15.1441 -12.645 -8.433001 -13.8104 -15.0135 -17.0699 -17.7174 -18.2822 -16.6249 -18.1786 -14.6096 
-1.934 -4.2125 0 -1.7695 -3.013 -2.664 -4.3655 -4.5095 0 -2.4265 -2.186 -3.757 -3.8 -1.7695 -4.6925 -1.934 -2.0935 -1.4985 -4.3845 -1.7565 -13.1205 -3.17 -1.7565 -1.4985 -4.354 -3.64 -2.8645 -3.1125 -4.354 -1.756 -4.302 -4.403 -3.1065 
-7.067 -4.2125 -1.7695 -3.7215 -5.738 -5.571 -8.154 -4.5095 -2.4265 -3.292 -4.779 -6.0625 -4.188 -6.711 -5.7745 -4.89 -2.9725 -4.936501 -4.873 -16.286 -15.9593 -4.179 -2.4195 -6.5755 -7.987 -7.0245 -3.5345 -5.804 -6.0865 -5.7395 -7.9445 -7.667001 
-7.067 -6.339 -3.7215 -6.126 -8.168501 -9.599001 -8.154 -6.5395 -3.292 -5.692 -6.905001 -6.9445 -9.616001 -8.341001 -8.048 -5.881001 -5.947001 -5.0275 -20.0343 -18.665 -16.4668 -4.497 -7.678501 -9.516001 -12.0085 -7.5065 -5.8595 -7.663001 -10.5975 -9.365001 -9.22 
-9.0935 -8.410501 -6.126 -8.5725 -12.5569 -9.599001 -10.816 -6.9075 -5.692 -8.998501 -8.258 -13.3365 -11.7074 -10.2135 -8.234 -9.701 -6.06 -20.3194 -22.4133 -19.1725 -16.7343 -10.2085 -10.5035 -13.6743 -12.4905 -10.7175 -8.0125 -12.5514 -14.223 -10.8093 
-11.304 -11.0394 -8.5725 -13.1417 -12.5569 -12.5404 -11.184 -10.3475 -8.998501 -9.672001 -14.8418 -15.4279 -13.5799 -10.5421 -12.996 -9.790001 -21.5449 -22.6984 -22.9208 -19.44 -22.5598 -13.0335 -14.6618 -14.1563 -15.7015 -12.8705 -13.1219 -16.1769 -15.6673 
-1.8085 -6.4445 -2.186 -1.8085 -3.5015 -2.0935 -1.8085 -3.2795 -1.7565 -4.4965 -1.7695 -4.9105 -3.213 -2.264 -1.8085 -3.776 -3.7695 -1.4985 -3.7535 -3.64 -4.4905 -1.7695 -1.8085 -3.4105 -2.4945 -3.908 -3.2955 -1.7695 -4.9105 -3.6615 -2.3335 -3.429 -3.5015 -3.936 -3.602 0 
-8.203 -8.656501 -3.164 -4.642 -4.7905 -3.385 -4.5305 -4.4575 -6.587 -6.5645 -5.5935 -7.5235 -4.6045 -3.5925 -4.59 -6.503 -5.7685 -4.9135 -7.2015 -7.9725 -4.895 -3.41 -4.884501 -5.9625 -4.928 -5.5225 -3.9425 -5.5935 -7.9525 -5.446 -5.676001 -4.918 -6.734 -8.363 -3.602 
-9.5835 -9.4855 -5.684 -5.241 -6.0875 -5.701 -4.854 -7.936501 -8.365001 -9.666 -8.063001 -8.6555 -5.7165 -5.918 -6.6735 -8.1035 -8.781 -8.308001 -9.783001 -8.494 -5.8595 -6.410501 -7.563001 -8.827 -6.0875 -6.179 -7.51 -8.728001 -9.661 -7.4875 -6.352 -7.606501 -10.085 -8.363 
-9.769 -10.091 -6.194 -7.245501 -8.432 -6.4255 -8.2045 -9.469001 -10.0855 -12.4069 -8.914001 -9.9895 -7.901 -7.133 -8.2075 -9.986001 -10.089 -9.869 -9.7895 -9.5485 -8.682001 -8.610001 -9.380501 -9.946 -6.807 -9.6195 -9.9665 -9.969501 -10.0985 -7.5465 -8.5725 -10.092 -10.085 
-10.097 -10.1005 -8.194501 -9.375001 -8.785501 -9.774001 -9.688001 -10.0855 -14.4696 -13.2579 -10.1765 -12.174 -9.363501 -8.6415 -9.9975 -10.1005 -10.1025 -9.8745 -9.9595 -9.9575 -10.0505 -10.0635 -10.086 -10.059 -9.9055 -10.098 -10.1 -10.1005 -10.1045 -9.8175 -10.0955 -10.092 
