-4.759 
n/a 
n/a 
n/a 
n/a 
-4.759 
n/a 
n/a 
n/a 
n/a 
-4.759 
n/a 
n/a 
n/a 
n/a 
-4.759 
n/a 
n/a 
n/a 
n/a 
-3.432 -4.565 -2.3615 -2.186 -5.148 -4.126 -3.432 -3.8235 
-8.344501 -7.538 -3.5005 -7.2475 -10.4945 -8.855 -8.155001 
-11.4973 -8.243 -8.734 -12.775 -15.2235 -13.829 
-12.2023 -13.6139 -14.7707 -17.504 -20.1975 
-17.5732 -19.6506 -19.4997 -22.478 
-3.432 -4.565 0 -3.432 -3.213 -4.129 -2.356 -4.739 -1.7565 -3.737 -3.7865 -3.8235 0 
-8.344501 -4.565 -3.432 -6.553 -7.3195 -5.2005 -7.204 -5.4635 -5.1295 -8.102 -7.860001 -3.8235 
-8.344501 -8.4855 -6.553 -10.8445 -8.158501 -10.4089 -8.2955 -9.140501 -9.7705 -12.8471 -7.860001 
-10.7025 -11.9299 -10.8445 -11.6835 -13.5857 -11.5004 -12.0501 -13.9697 -14.4768 -12.8471 
-14.1469 -16.2214 -11.6835 -17.1107 -14.6772 -15.255 -16.8793 -18.676 -14.4768 
-4.9715 -5.0925 -3.8755 -1.934 -1.4985 -2.95 -1.7565 -4.193 -1.7565 -3.7205 
-10.017 -8.7775 -5.2035 -2.6125 -3.9285 -4.3785 -6.3085 -4.7225 -6.06 
-14.2945 -10.5645 -5.851 -5.674 -4.676 -8.426001 -7.5405 -9.943001 
-16.3569 -11.212 -8.684 -6.1895 -8.779501 -8.926001 -12.8892 
-17.0044 -14.045 -8.904501 -10.7796 -9.430501 -14.5097 
-6.67 -4.9255 -3.8235 -1.934 -1.4985 -4.193 -1.7565 -4.7145 
-13.206 -9.459001 -5.598001 -2.6125 -4.594501 -4.7225 -6.281001 
-18.7071 -11.3667 -6.1375 -5.558001 -4.7895 -9.715 
-20.6148 -11.9062 -8.5845 -6.0865 -9.810501 
-21.1543 -14.3532 -9.512501 -11.3391 
