-4.759 
n/a 
n/a 
n/a 
n/a 
-4.759 
n/a 
n/a 
n/a 
n/a 
-4.759 
n/a 
n/a 
n/a 
n/a 
-4.759 
n/a 
n/a 
n/a 
n/a 
-4.5185 -4.1155 -4.142 -4.567 -1.934 -1.4985 -4.1225 -3.355 
-7.933001 -7.536 -8.731501 -6.313001 -2.6125 -4.965 -6.331501 
-11.7295 -12.6435 -10.7103 -6.957001 -5.6495 -6.4065 
-16.837 -14.6223 -11.3543 -9.248501 -6.674 
-18.8158 -15.2663 -13.6458 -10.5435 
-1.4985 -4.652 -3.502 -4.567 -2.5045 -4.5185 -4.227 
-5.639501 -8.652 -6.8315 -6.58 -6.939 -7.786 
-9.522 -12.2695 -8.567 -10.749 -9.366501 
-13.3483 -14.005 -13.2924 -13.1765 
-15.0838 -18.7304 -15.7199 
-3.502 -4.567 -4.142 -2.186 -4.5185 -4.227 
-6.8315 -7.585501 -6.1185 -7.104501 -7.786 
-10.4776 -8.997001 -9.631001 -9.280001 
-11.8891 -12.5631 -12.2239 
-15.4552 -15.156 
-3.502 -3.7575 -7.9865 -1.7565 -4.5185 -4.227 
-5.712 -12.7864 -9.2685 -6.559501 -7.786 
-15.4267 -14.0684 -14.3937 -8.884501 
-16.7087 -19.1936 -16.7187 
-21.8339 -21.5186 
