-4.759 
n/a 
n/a 
n/a 
n/a 
-4.759 
n/a 
n/a 
n/a 
n/a 
-4.759 
n/a 
n/a 
n/a 
n/a 
-4.759 
n/a 
n/a 
n/a 
n/a 
-4.913 -1.7695 -6.4185 -3.4795 0 -3.5965 -3.9035 -1.756 -4.7055 -1.7695 -3.013 -4.452 -2.7415 -4.796 -4.09 -8.3895 0 
-6.391 -8.6315 -6.943 -3.4795 -3.5965 -6.1625 -5.1585 -6.3805 -5.5665 -3.7215 -7.2515 -7.3135 -6.0655 -7.456 -14.268 -9.634001 
-14.048 -9.496501 -6.943 -6.1895 -6.1625 -6.880001 -10.8742 -7.134501 -7.3495 -7.495501 -10.8204 -10.586 -8.572001 -15.2698 -11.259 
-14.913 -9.496501 -10.66 -11.0569 -6.880001 -13.7631 -11.6282 -8.8645 -11.4187 -11.6018 -14.0929 -13.0925 -15.8716 -14.3108 
-14.913 -13.3191 -15.5274 -11.7744 -13.7631 -14.5171 -13.3582 -13.1263 -15.525 -14.8743 -16.5994 -20.3921 -15.8716 
-3.8825 -4.161 -2.186 -3.299 -3.976 -1.934 -2.915 -4.042 -1.756 -1.934 -3.881 -4.0415 0 -3.1575 -1.4985 -3.5905 -4.161 0 
-8.6485 -6.5135 -5.5155 -4.767 -6.01 -5.4615 -5.6405 -5.2755 -4.0205 -5.9275 -6.062 -4.0415 -3.1575 -4.1355 -4.435 -6.918 -4.161 
-10.2535 -9.693001 -7.707001 -7.478001 -9.601501 -7.38 -6.795 -7.879001 -7.841001 -8.217 -6.062 -7.0135 -4.1355 -6.4595 -8.325001 -6.918 
-13.8984 -12.0963 -9.998001 -11.4245 -10.225 -8.2305 -9.4545 -10.2865 -9.992001 -8.217 -9.863001 -8.469501 -6.4595 -10.647 -8.325001 
-16.3017 -14.3873 -13.9445 -12.048 -11.3061 -10.172 -11.8626 -12.6911 -9.992001 -12.2474 -11.319 -10.451 -10.647 -10.647 
-1.934 -3.333 -1.7695 -3.2345 -1.4985 -3.6005 -3.777 -1.934 -1.4985 -3.127 -3.135 -4.8695 -2.915 -1.7695 -2.489 -3.7855 -1.7695 -1.4985 -3.2 -2.3335 -3.2645 -2.489 -1.934 -1.4985 -3.519 -1.7565 -3.598 -5.036 -2.228 -1.756 -2.1715 0 
-3.9835 -4.022 -3.713 -4.328 -4.9615 -7.752 -4.5805 -2.6125 -4.269 -6.8155 -8.028501 -7.395 -4.548 -3.1405 -4.789001 -4.793 -2.7955 -4.259 -4.957 -4.997 -3.7195 -4.348 -2.6125 -4.4155 -4.4175 -5.209 -8.23 -6.459 -4.89 -4.749 -2.1715 
-4.0425 -5.5905 -4.717 -7.085001 -7.891 -9.2445 -5.495 -5.548 -7.862 -12.0652 -10.6714 -8.603001 -5.77 -5.6465 -5.3715 -5.356501 -5.609 -6.179501 -7.0365 -5.3065 -5.5955 -4.967 -4.8345 -4.839 -7.522501 -10.509 -11.189 -8.849501 -6.1155 -4.749 
-5.5995 -6.3195 -7.323 -10.7035 -9.43 -9.981501 -8.5865 -8.8655 -13.2729 -14.7081 -11.8794 -9.1045 -7.630001 -6.2075 -5.9095 -8.402 -7.41 -7.139501 -7.1005 -7.002501 -6.1465 -6.2475 -4.9455 -7.9325 -12.9005 -12.6646 -13.4416 -10.3115 -6.1155 
-6.325 -9.142 -11.0423 -12.2425 -10.093 -13.073 -12.2416 -14.35 -15.9158 -15.9161 -12.3809 -9.3505 -7.942 -6.6385 -9.1355 -10.13 -9.7915 -7.147 -9.665501 -7.548 -7.482 -6.3225 -7.9605 -13.6189 -15.3321 -14.8436 -14.1391 -9.346001 
-3.0835 -4.4385 -1.7695 -3.1015 -3.5965 -3.383 -3.6205 -1.756 -3.074 -3.976 0 
-7.744 -6.268001 -5.731 -7.566 -7.7655 -6.271501 -5.8865 -4.566 -7.5305 -3.976 
-9.1215 -10.6095 -10.1385 -12.0974 -11.1564 -8.068501 -9.009501 -8.8105 -7.5305 
-13.849 -15.017 -14.6699 -15.4883 -12.9534 -10.6735 -13.5198 -8.8105 
-18.2565 -19.5484 -18.0608 -17.2853 -15.5584 -15.1838 -13.5198 
