-4.759 
n/a 
n/a 
n/a 
n/a 
-4.759 
n/a 
n/a 
n/a 
n/a 
-4.759 
n/a 
n/a 
n/a 
n/a 
-4.759 
n/a 
n/a 
n/a 
n/a 
-4.347 -1.7695 -4.0195 -1.756 -3.1715 -1.7565 -5.377 -4.9145 0 
-7.3145 -5.223001 -5.623 -4.88 -4.207 -6.5985 -10.784 -4.9145 
-11.212 -7.794001 -9.528001 -6.154 -10.1545 -12.1923 -10.784 
-13.783 -11.9804 -10.719 -12.7469 -15.8167 -12.1923 
-17.9694 -13.1714 -17.3119 -18.4091 -15.8167 
-4.386 -1.7565 -4.1975 -9.181001 -2.4945 -8.722501 -1.4985 -3.1715 -4.5385 0 -2.872 -3.135 -4.015 -4.1975 -4.8515 -1.756 -3.93 -4.473 -2.3335 -4.066 -1.7695 -3.1715 -3.7455 -2.4945 -4.972 -2.3345 -3.4225 -4.5385 
-4.539 -5.5295 -14.6849 -11.08 -12.6452 -9.948501 -3.994 -6.037001 -4.5385 -2.872 -5.309 -6.5365 -7.6295 -7.5085 -5.9235 -5.34 -8.836 -6.5375 -5.3035 -4.6735 -5.151 -5.8715 -6.655 -5.9635 -5.634 -6.0735 -9.212501 
-8.757001 -16.4457 -16.5839 -21.2307 -13.8712 -12.444 -6.7465 -6.037001 -7.0065 -5.309 -9.2025 -10.3045 -11.4757 -8.541 -10.204 -10.4855 -11.0463 -9.0695 -6.244 -8.3715 -7.520501 -8.85 -9.807 -6.5315 -9.3395 -12.1205 
-19.7876 -18.3447 -26.7346 -22.4567 -16.3667 -15.1965 -6.7465 -8.382501 -9.554501 -9.2025 -13.0679 -14.1507 -12.5082 -13.0841 -15.3495 -12.6958 -13.5783 -10.4634 -11.1762 -10.9746 -10.467 -12.155 -10.0815 -10.4265 -15.4607 
-21.6866 -28.4954 -27.9606 -24.9522 -19.1192 -15.1965 -8.738501 -11.1703 -13.4098 -13.0679 -16.9141 -15.1832 -17.0513 -18.2296 -17.5598 -15.2278 -14.9722 -15.3956 -13.7793 -13.9211 -13.772 -12.4295 -14.2799 -16.5477 
-2.5685 -1.7565 -1.4985 -4.1975 -2.7415 -3.8535 -2.3345 -1.4985 -3.1715 -3.7455 -2.7415 -6.12 -3.135 -1.7565 -1.4985 -4.1975 -1.756 -2.8965 -4.1975 -1.7565 -1.4985 -3.1715 -3.7455 -2.186 -4.051 -3.7455 -2.186 -4.5275 0 
-3.887 -2.4195 -5.4275 -6.5445 -5.279 -5.069 -3.233 -3.994 -5.8715 -6.107 -9.097 -8.504001 -3.9195 -2.4195 -5.4275 -5.313 -3.751 -6.8835 -6.0075 -2.4195 -3.994 -5.8715 -5.742 -6.8645 -7.3985 -5.742 -5.8625 -4.5275 
-4.34 -6.0845 -7.05 -9.146501 -6.214 -5.785 -5.2255 -6.492001 -8.077001 -13.4667 -13.1175 -10.0765 -4.168 -6.0845 -6.6355 -7.538001 -7.8855 -8.851501 -6.943501 -4.741 -6.492001 -7.988 -11.1217 -10.7114 -8.9285 -7.9465 -5.8625 
-8.732 -8.115001 -9.374001 -9.913501 -6.9805 -8.030001 -7.6155 -8.2615 -15.8429 -17.0906 -14.0094 -10.406 -8.740001 -7.1255 -9.083501 -9.903501 -10.2485 -10.068 -9.6595 -7.332 -8.416 -13.6719 -14.9686 -12.2414 -11.3356 -7.9465 
-11.0393 -10.3672 -10.1815 -10.8076 -9.17 -10.28 -9.000501 -16.219 -19.4668 -17.9461 -14.3839 -15.21 -9.923 -9.382501 -11.6504 -12.3141 -11.465 -12.8878 -12.2027 -9.092501 -14.3247 -17.5188 -16.4986 -14.6485 -11.3356 
-3.17 -1.7565 -1.4985 -4.1975 -4.0035 -1.934 -1.4985 -3.1715 -4.5385 -1.756 -3.135 -3.4865 -1.756 -4.015 -4.1975 -3.4635 -3.936 -3.152 -1.934 -1.4985 -4.0375 -3.7455 
-4.179 -2.4195 -5.4275 -8.432501 -5.8195 -2.6125 -3.994 -6.037001 -5.647 -4.5755 -6.0255 -5.8885 -6.6015 -7.6295 -6.8945 -6.822001 -6.0105 -4.9115 -2.6125 -5.0015 -7.939001 
-4.497 -6.0845 -10.2933 -10.4425 -6.642 -4.939 -6.7465 -7.266001 -8.441501 -7.4255 -8.5065 -8.620501 -10.085 -10.733 -9.622001 -8.709001 -7.8145 -5.513 -6.3075 -9.042001 
-8.441 -10.9797 -12.3033 -11.6674 -9.2605 -7.311001 -7.9215 -9.867001 -11.5005 -10.1545 -10.586 -12.3216 -13.5807 -13.4605 -11.565 -10.747 -8.452001 -9.022 -9.814501 
-13.6482 -12.9897 -13.5282 -14.2859 -11.6477 -8.432501 -10.185 -13.185 -14.2295 -12.234 -14.2871 -15.8173 -16.3082 -15.4035 -13.603 -11.3845 -12.0894 -12.7106 
