-4.759 
n/a 
n/a 
n/a 
n/a 
-4.759 
n/a 
n/a 
n/a 
n/a 
-4.759 
n/a 
n/a 
n/a 
n/a 
-4.759 
n/a 
n/a 
n/a 
n/a 
-10.6925 -10.2945 -2.186 -1.4985 -4.062 -4.8625 -1.7565 -1.4985 -4.1495 -4.245 -1.756 -4.1495 -12.16972 0 
-21.3592 -12.6613 -3.339 -5.3745 -7.8605 -5.4355 -2.4195 -5.1475 -9.0485 -5.425 -5.5175 -17.30062 -12.16972 
-23.726 -13.8143 -7.4875 -9.477501 -7.9195 -6.8685 -6.265 -10.228 -10.0195 -9.992001 -18.92602 -17.30062 
-24.879 -17.9628 -11.6577 -9.557 -9.005501 -9.975 -11.5549 -11.199 -14.5865 -23.40052 -18.92602 
-29.0275 -22.133 -11.7372 -10.637 -12.5758 -15.8815 -12.5259 -15.766 -27.99502 -23.40052 
-4.1495 -1.7695 -4.245 0 -3.383 -4.1495 -5.3255 -1.756 -5.1845 -4.1215 -2.0935 -9.0085 -9.098001 0 
-6.537001 -6.460001 -4.245 -3.383 -6.0415 -9.935501 -6.395 -7.0085 -9.469 -6.565 -12.093 -18.6905 -9.098001 
-12.1275 -6.460001 -8.277 -6.0415 -12.2441 -11.005 -12.5233 -11.7194 -12.3423 -17.4925 -21.775 -18.6905 
-12.1275 -10.4505 -11.4049 -12.2441 -13.3136 -17.1333 -17.2342 -14.5927 -23.2698 -27.1745 -21.775 
-16.118 -13.5784 -17.6075 -13.3136 -19.4419 -21.8442 -20.1075 -25.5202 -32.9518 -27.1745 
-7.577 -2.229 -5.772 -1.7565 -8.395 -4.2215 -2.5045 -1.4985 -4.1495 -4.245 -4.1645 0 -4.1495 -5.63 -4.1645 -2.356 -4.1495 -5.1845 -2.356 -8.871 -4.245 0 
-9.967 -7.2135 -6.819 -9.969501 -13.3237 -6.349 -3.583 -5.1475 -9.0485 -9.257 -4.1645 -4.1495 -8.265 -8.356 -6.7145 -6.086 -9.200001 -8.453 -12.1378 -13.3206 -4.245 
-14.9515 -8.5725 -16.0084 -14.8564 -15.4512 -7.309 -7.4645 -10.228 -14.1989 -9.257 -8.8055 -8.265 -11.2336 -10.564 -10.688 -11.6721 -12.8743 -18.5038 -16.5874 -13.3206 
-16.3105 -17.9483 -20.8953 -16.9839 -16.4112 -11.5969 -12.7078 -15.3784 -14.1989 -14.32 -13.369 -11.2336 -13.4416 -14.5375 -16.2741 -15.3464 -22.9251 -22.9534 -16.5874 
-25.6863 -22.8352 -23.0228 -17.9439 -20.6991 -16.8402 -17.8582 -15.3784 -19.2619 -18.8835 -16.3376 -13.4416 -17.4151 -20.1236 -19.9484 -25.3972 -27.3747 -22.9534 
-9.0085 -9.6155 -2.5045 -1.8085 -5.258 -5.7265 -1.7565 -5.1845 -2.356 -4.1215 -1.7565 -4.953 0 -3.383 -4.1215 -1.7565 -5.496 -3.6835 0 
-19.208 -12.3374 -3.3625 -8.115001 -12.0557 -6.718 -6.580501 -8.453 -6.759501 -5.3395 -6.443 -4.953 -3.383 -8.08 -5.3395 -7.438001 -8.568001 -3.6835 
-21.9299 -13.1954 -10.4345 -15.1489 -13.0472 -12.1666 -10.238 -13.1255 -8.477 -10.634 -6.443 -8.88 -8.08 -9.025001 -10.4265 -10.66 -8.568001 
-22.7879 -20.2674 -17.4684 -16.1404 -18.4958 -15.8241 -14.9105 -14.843 -14.0841 -10.634 -10.4035 -13.8506 -9.025001 -14.2828 -13.6485 -10.66 
-29.8599 -27.3013 -18.4599 -21.589 -22.1533 -20.4966 -16.628 -20.4501 -14.0841 -14.5945 -15.3741 -14.7956 -14.2828 -17.5048 -13.6485 
