-4.759 
n/a 
n/a 
n/a 
n/a 
-4.759 
n/a 
n/a 
n/a 
n/a 
-4.759 
n/a 
n/a 
n/a 
n/a 
-4.759 
n/a 
n/a 
n/a 
n/a 
-3.9355 -1.7565 -4.1395 -9.8135 0 -9.7395 0 -12.16972 -3.1495 -3.54 -3.9755 0 
-5.244 -5.72 -15.1104 -9.8135 -9.7395 -9.7395 -12.16972 -15.31922 -5.4585 -5.8685 -3.9755 
-9.645 -17.3227 -15.1104 -10.4115 -9.7395 -22.19622 -15.31922 -17.62822 -7.3885 -5.8685 
-21.4711 -17.3227 -15.7084 -10.4115 -22.19622 -25.34572 -17.62822 -19.55822 -7.3885 
-21.4711 -17.9207 -15.7084 -23.34142 -25.34572 -27.65472 -19.55822 -19.55822 
-5.1845 -4.1395 -2.674 -3.54 -3.9755 -9.8135 0 -9.7395 -1.756 -12.16972 
-9.258501 -6.944 -5.6905 -5.8685 -14.8384 -9.8135 -9.7395 -11.1355 -14.93432 
-10.7185 -10.3225 -7.948501 -17.602 -14.8384 -10.4115 -11.1355 -24.31382 
-14.097 -12.7911 -19.978 -17.602 -15.4364 -12.2807 -24.31382 
-16.5656 -24.8206 -19.978 -18.2 -17.3056 -25.45902 
-1.4985 -6.319 -2.4945 -4.552 -3.222 -3.54 -3.7655 -2.925 -2.4945 -9.8135 0 -3.818 0 -9.7395 0 -4.3005 -2.4285 -5.4735 0 -1.756 -10.7715 0 -4.1335 
-7.466001 -7.6455 -5.831 -6.3065 -5.6115 -6.069 -7.163 -3.7675 -13.7362 -9.8135 -3.818 -3.818 -9.7395 -9.7395 -4.3005 -6.7925 -7.28 -5.4735 -1.756 -11.0145 -10.7715 -4.1335 
-8.5915 -10.119 -6.912001 -7.188 -6.5865 -8.6905 -7.78 -15.2346 -13.7362 -10.884 -3.818 -11.136 -9.7395 -10.907 -6.7925 -10.76 -7.28 -7.168 -11.0145 -11.0145 -11.046 
-10.6095 -10.593 -7.793 -7.7665 -9.25 -9.101501 -19.4653 -15.2346 -14.8067 -10.884 -11.136 -11.136 -10.907 -13.399 -10.76 -10.76 -9.623 -17.2871 -11.0145 -11.289 
-10.7535 -10.686 -8.3465 -10.4255 -9.5015 -20.8966 -19.4653 -16.3051 -14.8067 -18.202 -11.136 -12.3035 -13.399 -17.3665 -10.76 -13.103 -19.7027 -17.2871 -11.289 
-1.934 -6.319 -3.0365 -2.4945 -3.54 -3.9755 -2.925 -2.4945 -9.8135 0 -9.7395 0 -12.16972 
-8.628501 -8.8975 -3.688 -5.328 -5.8685 -7.0015 -3.7675 -13.7362 -9.8135 -9.7395 -9.7395 -12.16972 
-11.3314 -9.148001 -5.4375 -6.6365 -9.2735 -7.676001 -15.2346 -13.7362 -10.4115 -9.7395 -22.19622 
-11.5819 -10.704 -6.6485 -10.7495 -9.554501 -19.3525 -15.2346 -14.3342 -10.4115 -22.19622 
-13.1379 -11.915 -10.7703 -11.0305 -21.3274 -19.3525 -15.8326 -14.3342 -23.34142 
