-4.759 
n/a 
n/a 
n/a 
n/a 
-4.759 
n/a 
n/a 
n/a 
n/a 
-4.759 
n/a 
n/a 
n/a 
n/a 
-4.759 
n/a 
n/a 
n/a 
n/a 
-3.288 -2.7405 -4.285 -3.5965 -4.4385 -3.4265 
-4.549 -7.490001 -9.2705 -9.0205 -7.300501 
-9.989 -13.1645 -14.8599 -12.1589 
-15.6635 -18.7539 -17.9983 
-21.2529 -21.8923 
-3.5965 -4.0395 -3.288 -2.7405 
-8.335501 -8.251 -4.549 
-12.8036 -9.739 
-14.2916 
n/a 
-3.299 -4.126 -1.7565 -3.5965 -3.946 -1.934 -3.288 -2.7405 0 
-7.6895 -5.221001 -5.041 -8.435 -5.701 -4.9715 -4.549 -2.7405 
-8.315001 -9.371 -9.953501 -10.6982 -9.296 -6.347 -4.549 
-12.9636 -14.4007 -12.6531 -14.2932 -10.7669 -6.347 
-17.9933 -17.1003 -16.2481 -15.7641 -10.7669 
-3.288 -2.7405 0 -4.2245 -6.9865 -4.3995 -4.0925 
-4.549 -2.7405 -4.2245 -7.4465 -9.606501 -7.3415 
-4.549 -7.267 -7.4465 -9.55 -11.5555 
-9.150001 -10.2645 -9.809501 -11.4425 
-12.9515 -10.7795 -10.1035 
