-4.759 
n/a 
n/a 
n/a 
n/a 
-4.759 
n/a 
n/a 
n/a 
n/a 
-4.759 
n/a 
n/a 
n/a 
n/a 
-4.759 
n/a 
n/a 
n/a 
n/a 
-3.1435 -3.383 -3.4635 -1.7695 -5.1845 -3.9355 
-5.807 -7.6295 -4.2045 -7.4505 -8.764 
-10.459 -7.8515 -9.303501 -11.451 
-10.661 -13.5733 -13.2936 
-16.3828 -17.5634 
-5.1845 -4.872 -3.9355 -3.4635 -1.7695 -3.4605 
-9.822001 -6.432 -7.2255 -4.2045 -5.5985 
-11.4954 -8.972501 -7.3415 -8.196501 
-14.0359 -9.054501 -11.6285 
-14.1179 -13.3577 
-4.157 -2.356 -3.473 -5.1845 -10.1205 
-5.0415 -6.1735 -9.247 -16.5994 
-9.804501 -12.9043 -21.0723 
-16.6155 -24.7296 
-28.4408 
-5.1845 -3.9355 -3.9585 -2.356 -5.1845 -3.4605 
-8.764 -7.465 -4.2035 -7.8135 -9.135 
-12.4135 -7.515501 -10.1425 -12.113 
-12.464 -13.6065 -14.442 
-18.555 -17.906 
