-4.759 
n/a 
n/a 
n/a 
n/a 
-4.759 
n/a 
n/a 
n/a 
n/a 
-4.759 
n/a 
n/a 
n/a 
n/a 
-4.759 
n/a 
n/a 
n/a 
n/a 
-3.17 -1.7565 -4.5735 -3.9235 -3.429 -4.1985 
-4.179 -6.1955 -7.2155 -7.6975 -5.8105 
-10.061 -10.1425 -11.4239 -9.826 
-14.008 -14.3509 -13.5524 
-18.2164 -16.4794 
-3.849 -5.5105 -4.484 -2.5685 -3.6215 -1.4985 -3.188 -2.4945 0 -3.6705 0 -4.75 -1.934 -1.4985 -3.6175 
-8.408 -11.4845 -7.296 -5.2175 -4.094 -3.619 -5.7045 -2.4945 -3.6705 -3.6705 -4.75 -4.981 -2.6125 -4.679501 
-14.9696 -14.2965 -9.543501 -5.7575 -4.561 -5.829 -5.7045 -6.003 -3.6705 -8.868 -4.981 -5.6825 -6.2065 
-17.7816 -16.544 -9.619 -6.05 -6.2945 -5.829 -9.840001 -6.003 -8.868 -9.112 -5.6825 -9.192 
-20.0291 -16.6195 -9.85 -7.852 -6.2945 -10.0815 -9.840001 -9.959001 -9.112 -10.2045 -9.192 
-4.7395 -3.7495 -4.1865 -2.4945 -5.358 -1.7695 -4.3245 -2.985 -5.2325 -3.7015 -1.4985 -5.0185 -4.599 0 
-5.9865 -6.448501 -6.5145 -7.012001 -6.429501 -4.714 -6.6135 -8.017 -7.072 -4.3435 -6.1765 -5.1395 -4.599 
-8.5185 -7.579 -10.177 -7.224 -9.228001 -6.931 -10.688 -10.382 -8.144 -8.064 -6.268001 -5.1395 
-9.869 -12.2033 -10.2025 -9.820001 -11.4682 -11.0487 -13.053 -10.7615 -10.2645 -8.09 -6.268001 
-14.6807 -12.2288 -12.9359 -12.0602 -15.5859 -13.4137 -13.4325 -12.882 -10.2955 -8.09 
-3.3715 -3.959 -4.0215 -3.7495 -2.4945 -4.0955 -1.7695 -3.197 -2.3615 0 
-5.699 -9.033501 -8.331501 -5.2295 -5.123 -4.1555 -3.9565 -5.086 -2.3615 
-11.2361 -13.8067 -9.844501 -7.304 -5.1485 -5.5505 -6.1315 -5.086 
-16.0093 -15.3197 -11.992 -7.3395 -6.735001 -7.744 -6.1315 
-17.5223 -17.4672 -12.0275 -8.9125 -9.3555 -7.744 
