-4.759 
n/a 
n/a 
n/a 
n/a 
-4.759 
n/a 
n/a 
n/a 
n/a 
-4.759 
n/a 
n/a 
n/a 
n/a 
-4.759 
n/a 
n/a 
n/a 
n/a 
-1.4985 -3.6825 -2.8645 -4.196 -4.0905 -2.229 
-4.87 -5.841001 -6.644 -9.9405 -6.439 
-6.776 -9.354 -13.2257 -12.429 
-10.253 -16.1375 -15.7142 
-17.2979 -18.626 
-1.4985 -4.7485 -3.325 -3.595 -4.3865 -4.7175 -1.7565 -3.809 -5.0075 0 
-5.63 -7.7865 -6.61 -8.43 -8.323501 -6.3065 -5.2235 -8.2875 -5.0075 
-8.351501 -10.6215 -11.618 -12.5264 -10.7175 -8.771001 -9.319 -8.2875 
-11.6327 -15.6295 -15.7144 -14.9204 -13.182 -12.9313 -9.319 
-16.6407 -19.7259 -18.1084 -17.3849 -17.3423 -12.9313 
-3.091 -4.373 -3.7875 -9.4315 
-6.539001 -8.416 -14.5606 
-9.894001 -19.2873 
-20.8023 
n/a 
-3.091 -4.0885 -5.0075 -3.5795 -3.809 -5.0075 
-7.2175 -8.593 -8.817 -7.543 -8.2875 
-10.275 -12.7001 -12.9005 -12.5117 
-14.3821 -16.7836 -17.8692 
-18.4656 -21.7523 
