-4.759 
n/a 
n/a 
n/a 
n/a 
-4.759 
n/a 
n/a 
n/a 
n/a 
-4.759 
n/a 
n/a 
n/a 
n/a 
-4.759 
n/a 
n/a 
n/a 
n/a 
-1.934 -4.0725 -5.1195 -5.233 -3.7075 -2.186 -3.8085 -3.1335 -2.8645 -3.1255 -3.432 -3.1335 -3.307 -1.756 -7.494 -3.1645 -4.538 -3.002 -3.5495 -4.9805 -1.756 -4.367 -4.2405 -7.041501 -3.5495 0 
-5.9005 -9.6745 -9.8125 -10.6095 -5.196 -5.5195 -6.0795 -5.7585 -6.963 -7.2695 -6.7 -5.3285 -5.071 -7.935 -9.8125 -7.4465 -7.0825 -7.542001 -8.526501 -6.614 -6.406 -7.922501 -12.3438 -11.7446 -3.5495 
-12.0837 -14.4627 -15.3204 -12.098 -8.588501 -8.5935 -10.368 -10.2695 -11.5886 -10.5225 -9.4125 -6.9725 -11.91 -10.66 -14.5989 -9.534 -10.674 -13.0606 -10.6578 -11.8352 -9.8585 -16.1926 -17.0469 -11.7446 
-16.8719 -19.9706 -16.8089 -15.4905 -12.0563 -13.3478 -14.879 -14.8951 -14.8416 -13.4606 -11.4047 -14.3187 -14.635 -16.3444 -16.6864 -13.1503 -16.1926 -15.1919 -15.879 -15.2877 -18.2062 -20.8957 -17.0469 
-22.3798 -21.4591 -20.2014 -18.9583 -16.8106 -17.8588 -19.5046 -18.1481 -17.7797 -15.4528 -18.7509 -17.0437 -20.3194 -18.4319 -20.3027 -18.6689 -18.3239 -20.4131 -19.3315 -23.6354 -22.9093 -20.8957 
-2.4265 -4.0935 -3.948 -4.9175 -4.6225 -3.8085 -3.1335 0 -3.1255 -3.16 -4.2635 0 -3.958 -3.3255 -4.2245 -2.988 -3.5495 -1.756 -4.2405 -8.012501 -3.6615 0 
-5.351 -6.878 -8.9835 -10.543 -9.028001 -6.0795 -3.1335 -3.1255 -7.09 -5.7865 -4.2635 -3.958 -6.0305 -7.624001 -5.9815 -5.66 -5.1075 -5.7805 -13.3148 -12.1258 -3.6615 
-8.265501 -12.4113 -14.9128 -14.9485 -12.0052 -6.0795 -7.054501 -7.09 -9.638 -5.7865 -6.657001 -6.0305 -9.5155 -9.654 -6.1215 -7.258 -9.752001 -15.1388 -17.4281 -12.1258 
-13.921 -18.3406 -19.3183 -17.9257 -12.0052 -12.1699 -11.2504 -9.638 -9.638 -8.1285 -10.2135 -9.5155 -11.8577 -10.4965 -8.1975 -10.0775 -19.4829 -19.2521 -17.4281 
-19.8503 -22.7461 -22.2955 -17.9257 -18.0956 -16.3658 -13.7984 -9.638 -10.0555 -12.1624 -13.7041 -11.8577 -12.7002 -12.5725 -10.0775 -21.391 -23.5962 -19.2521 

n/a 
n/a 
n/a 
n/a 
-6.4915 0 -3.275 -1.756 -4.1445 0 -1.7695 -10.905 -3.432 -3.213 -3.1335 0 -3.7445 -2.3345 -8.207001 -2.988 -3.5495 -1.756 -6.5005 -2.743 -7.041501 -5.6615 
-6.4915 -3.275 -4.1955 -5.9945 -4.1445 -1.7695 -14.0523 -15.8078 -6.553 -6.9715 -3.1335 -3.7445 -5.208 -10.985 -11.8984 -5.66 -5.1075 -7.986001 -10.3745 -9.9525 -13.8566 
-10.4675 -4.1955 -6.9095 -5.9945 -5.989 -14.1869 -18.3309 -19.4328 -9.251 -6.9715 -7.2675 -5.208 -14.3949 -14.6764 -14.5704 -7.258 -12.6275 -12.1076 -17.584 -16.7676 
-11.388 -6.9095 -6.9095 -7.964 -19.0618 -18.3309 -21.9559 -22.1308 -9.251 -11.6293 -7.6185 -14.3949 -18.0863 -17.3484 -16.1684 -15.4856 -16.7491 -19.3171 -24.3991 
-14.102 -6.9095 -9.2025 -21.3698 -23.2058 -21.9559 -24.6539 -22.1308 -14.329 -11.9803 -17.0782 -18.0863 -20.7583 -18.9464 -24.396 -19.6072 -23.9586 -26.1322 
