-4.759 
n/a 
n/a 
n/a 
n/a 
-4.759 
n/a 
n/a 
n/a 
n/a 
-4.759 
n/a 
n/a 
n/a 
n/a 
-4.759 
n/a 
n/a 
n/a 
n/a 
-8.151 -2.186 -2.5045 -1.4985 -2.743 -3.5015 -1.756 -3.676 -2.186 -2.5045 -3.655 -3.5015 
-10.9575 -4.660501 -3.1915 -5.3755 -7.135 -5.087 -5.918 -5.5015 -4.660501 -6.3765 -7.936 
-13.432 -5.318501 -7.1105 -9.826 -9.291 -9.3195 -7.483 -7.609 -8.579 -11.3291 
-14.09 -9.394 -12.0538 -11.9828 -13.6579 -10.2655 -9.497001 -12.2859 -13.6748 
-18.1655 -14.4649 -14.2106 -16.3497 -14.6039 -12.2795 -14.5997 -17.3817 
-2.688 -4.247 -2.7415 -1.934 -4.655 -3.5015 0 -1.756 -3.4225 -4.39 -1.934 -6.096 -3.5015 
-4.249001 -7.186 -4.5155 -6.7025 -6.934 -3.5015 -1.756 -5.866 -4.7525 -5.947001 -8.5115 -8.443501 
-7.189 -8.9055 -8.0295 -7.817 -6.934 -5.087 -5.866 -6.8865 -6.523 -13.4091 -9.3 
-8.910001 -12.4837 -9.594501 -7.817 -8.656 -9.698501 -6.8865 -9.143001 -14.7449 -14.1976 
-12.4882 -14.0487 -9.594501 -9.073001 -13.3659 -10.5634 -9.143001 -17.4171 -15.5334 
-8.151 -4.655 -8.084001 0 -1.756 -10.6255 -3.676 -3.0465 -1.934 -6.096 -3.5015 0 
-13.3156 -13.8508 -8.084001 -1.756 -13.3901 -14.3015 -7.034 -4.8825 -8.5115 -8.443501 -3.5015 
-22.5114 -13.8508 -9.767501 -13.3901 -17.0661 -17.6595 -9.171 -12.5774 -9.3 -8.443501 
-22.5114 -15.5343 -21.4016 -17.0661 -20.4241 -19.7965 -17.1343 -13.3659 -9.3 
-24.1949 -27.1684 -25.0776 -20.4241 -22.5611 -27.7598 -17.9228 -13.3659 
-9.8905 -4.655 -3.5015 -3.4225 -3.676 -6.096 -3.5015 
-14.6209 -6.934 -7.3085 -7.8135 -9.6905 -8.443501 
-16.8999 -10.6095 -12.1153 -14.3664 -12.6998 
-20.5754 -15.4163 -18.6682 -17.3757 
-25.3822 -21.9692 -21.6775 
