-4.759 
n/a 
n/a 
n/a 
n/a 
-4.759 
n/a 
n/a 
n/a 
n/a 
-4.759 
n/a 
n/a 
n/a 
n/a 
-4.759 
n/a 
n/a 
n/a 
n/a 
-4.695 -4.1645 -2.186 -3.17 -6.566 -3.635 -1.7565 -3.6835 
-8.625501 -6.1365 -5.1385 -8.703001 -10.007 -4.736 -4.6675 
-10.7025 -8.936001 -11.4429 -12.341 -11.257 -8.469501 
-13.502 -15.4296 -15.0809 -13.591 -14.9905 
-19.9956 -19.0676 -16.3309 -17.3245 
-3.6835 -4.447 -5.312 
-7.680501 -10.375 
-14.0857 
n/a 
n/a 
-4.447 -4.1645 -2.4265 -2.186 -1.8085 -3.383 -4.7135 -2.0935 -3.6835 0 
-9.3815 -6.0895 -3.292 -3.164 -4.1695 -6.2175 -6.723 -5.189 -3.6835 
-11.3141 -6.684 -4.4005 -4.954 -8.7155 -7.9965 -10.6771 -5.189 
-11.9086 -7.5435 -5.899 -10.0675 -11.0199 -12.2588 -10.6771 
-12.7681 -9.106501 -11.1115 -13.0515 -15.2822 -12.2588 
-4.447 -4.1645 -2.186 -3.4865 -2.0935 -3.6835 -5.164 0 
-9.3815 -6.1365 -6.2065 -6.176001 -5.189 -5.399 -5.164 
-10.7345 -10.6875 -7.6215 -10.6335 -6.941 -5.399 
-15.2855 -12.1025 -12.4798 -12.3855 -6.941 
-16.7005 -16.9608 -14.2318 -12.3855 
