-4.759 
n/a 
n/a 
n/a 
n/a 
-4.759 
n/a 
n/a 
n/a 
n/a 
-4.759 
n/a 
n/a 
n/a 
n/a 
-4.759 
n/a 
n/a 
n/a 
n/a 
-3.535 -3.522 0 -5.5825 -1.7565 -8.27 
-5.913 -3.522 -5.5825 -7.157001 -9.440001 
-5.913 -9.703501 -7.157001 -15.3875 
-12.2861 -10.1705 -15.3875 
-12.7531 -19.0884 
-4.432 -4.867 0 -8.863001 -3.59 -4.0815 -3.914 
-10.1815 -4.867 -8.863001 -13.037 -8.269001 -8.6455 
-10.1815 -14.7258 -13.037 -17.716 -13.176 
-20.4325 -18.8998 -17.716 -22.623 
-24.6065 -23.5788 -22.623 
-3.0835 -4.584 0 -8.1485 -9.364 
-7.693501 -4.584 -8.1485 -17.8731 
-7.693501 -13.6997 -17.8731 
-17.1728 -23.4243 
-26.8974 
-4.0105 -4.867 0 -5.1845 -8.88 -12.16972 
-9.665001 -4.867 -5.1845 -9.9725 -21.31812 
-9.665001 -11.015 -9.9725 -22.41062 
-15.9926 -15.803 -22.41062 
-20.7806 -28.24112 
