-4.759 
n/a 
n/a 
n/a 
n/a 
-4.759 
n/a 
n/a 
n/a 
n/a 
-4.759 
n/a 
n/a 
n/a 
n/a 
-4.759 
n/a 
n/a 
n/a 
n/a 
-6.648 -3.189 -2.186 -2.871 -1.7565 -1.4985 -3.2825 -3.1435 -3.8905 -3.6575 -3.2615 -3.641 -3.7575 -9.113001 0 
-10.6292 -5.7015 -4.247 -3.5385 -2.4195 -3.712 -7.485001 -7.562 -8.91 -6.566 -7.4335 -5.455501 -13.9129 -9.113001 
-13.1417 -7.573 -4.411 -3.7675 -4.687 -7.7725 -12.3131 -12.8255 -12.0669 -11.211 -8.203501 -16.3535 -13.9129 
-15.0132 -7.643 -4.5655 -4.982 -8.748001 -12.82 -17.5766 -15.9824 -16.7119 -11.981 -20.5009 -16.3535 
-15.0832 -7.772501 -5.5725 -8.892 -14.0295 -18.0835 -20.7335 -20.6274 -17.4819 -24.2784 -20.5009 
-2.4265 -2.186 -2.871 -1.7565 -1.4985 -6.588 -4.677 -1.4985 -4.3055 -4.706 -1.934 -3.641 -3.7575 0 
-3.292 -4.247 -3.5385 -2.4195 -6.528 -10.789 -6.4635 -4.7155 -9.3135 -5.462501 -5.245 -5.455501 -3.7575 
-5.5545 -4.411 -3.7675 -8.713501 -12.8227 -13.3477 -8.593 -9.8985 -10.1315 -9.186501 -7.5515 -5.455501 
-5.691 -4.5655 -11.3375 -14.347 -15.478 -15.572 -14.2452 -10.446 -13.8401 -11.6744 -7.5515 
-5.822 -12.7589 -17.3947 -16.5073 -17.7023 -21.2242 -14.7927 -14.1546 -16.328 -11.6744 
-2.4265 -2.186 -1.8085 -3.355 -1.7565 -6.341 -2.229 -4.606 -2.4265 -2.742 -2.489 -4.06 -4.0995 -1.4985 -3.251 -1.7565 -3.9455 -3.355 -1.7565 -4.677 0 
-3.292 -3.164 -4.6195 -3.725 -7.6105 -7.896 -6.2 -6.8815 -4.095 -3.301 -5.4475 -6.650001 -4.5135 -4.617001 -4.97 -5.876501 -6.91 -3.725 -6.598001 -4.677 
-4.4005 -5.552 -4.725 -10.1035 -8.9075 -10.4345 -8.2965 -8.505501 -4.601 -6.2105 -7.8605 -6.876 -7.1085 -5.087 -9.885 -9.675501 -6.989501 -8.752001 -6.598001 
-6.803 -5.599 -10.733 -11.4005 -11.4752 -13.4496 -10.0185 -9.0015 -7.5495 -8.72 -8.0795 -9.481001 -7.8395 -10.3155 -13.7452 -10.4445 -12.1605 -8.752001 
-6.9005 -11.8152 -12.03 -13.9682 -14.4903 -15.1716 -10.5685 -12.0946 -9.9825 -8.89 -10.347 -10.21 -12.9408 -14.1757 -14.5142 -15.6155 -12.1605 
-2.871 -1.7565 -1.4985 -9.568501 -6.1205 -6.105 -3.837 -7.9265 -3.251 -3.7575 -4.285 -2.9635 
-3.5385 -2.4195 -11.0145 -15.8054 -13.2625 -9.838501 -12.8663 -11.7141 -6.2615 -6.685 -8.177 
-3.7675 -12.1263 -17.2514 -22.9474 -16.5505 -19.5233 -16.6539 -14.7246 -10.0925 -12.0818 
-14.2881 -18.3632 -24.3934 -26.2354 -26.664 -23.4291 -19.6644 -18.5556 -15.4893 
-20.525 -25.5052 -27.6814 -36.3489 -30.4516 -26.4396 -23.4954 -23.9524 
