-4.759 
n/a 
n/a 
n/a 
n/a 
-4.759 
n/a 
n/a 
n/a 
n/a 
-4.759 
n/a 
n/a 
n/a 
n/a 
-4.759 
n/a 
n/a 
n/a 
n/a 
-2.4265 -2.186 -4.894 -1.934 -3.769 -4.2915 
-3.292 -6.351 -6.5295 -6.148 -8.1735 
-7.434 -7.5745 -11.3033 -9.231501 
-8.63 -12.6531 -14.3868 
-13.7362 -15.7366 
-3.5725 -3.1015 -2.4265 -2.8645 -4.894 -3.222 -3.769 -4.2915 
-7.305 -4.9345 -4.1435 -6.8965 -5.669 -7.844501 -8.1735 
-8.9045 -6.451 -8.775001 -7.457 -9.8425 -9.856501 
-10.5755 -11.3359 -9.161 -10.6095 -10.1845 
-15.4604 -11.7219 -12.3387 -11.8757 
-2.3615 -2.95 -2.186 -4.0415 -2.264 -3.769 -3.6885 -2.229 
-4.4645 -4.817 -7.608001 -6.646 -6.8455 -8.283501 -6.046 
-6.3795 -10.442 -10.007 -11.7023 -11.8668 -10.688 
-12.0409 -13.3562 -15.3045 -16.7236 -14.2713 
-14.9551 -18.6537 -20.3258 -19.1281 
-3.5725 -3.1015 -3.769 -3.6885 -4.824 0 
-7.305 -7.067 -8.283501 -7.4425 -4.824 
-11.6653 -12.2017 -12.3881 -7.4425 
-16.8 -16.3063 -12.3881 
-20.9046 -16.3063 
