-4.759 
n/a 
n/a 
n/a 
n/a 
-4.759 
n/a 
n/a 
n/a 
n/a 
-4.759 
n/a 
n/a 
n/a 
n/a 
-4.759 
n/a 
n/a 
n/a 
n/a 
-1.4985 -6.958 -4.384 -4.682 -2.5195 -7.1525 -4.69 0 -2.3345 -1.4985 -4.66 -4.153 -5.827 -3.8355 -1.934 -1.4985 -4.963 
-7.195001 -10.451 -9.496 -6.5775 -9.715501 -10.0855 -4.69 -2.3345 -3.233 -5.731 -6.842501 -9.781501 -9.4795 -5.0925 -2.6125 -5.610001 
-10.5035 -15.563 -10.6755 -14.4329 -12.6895 -10.0855 -7.1375 -3.233 -7.778501 -7.1385 -13.0526 -13.6882 -10.205 -6.3385 -6.236 
-15.6155 -16.7425 -18.5309 -17.4069 -12.6895 -12.533 -8.337501 -7.778501 -8.6285 -13.6548 -16.9593 -14.4137 -10.573 -8.7215 
-16.795 -24.5979 -21.5049 -17.4069 -15.137 -13.733 -13.1608 -8.6285 -15.2322 -17.5615 -17.6848 -14.7817 -12.956 
-5.1875 -3.9675 -5.4395 -1.934 -1.4985 -3.502 -3.994 -2.4945 -4.5335 -1.7565 -7.4885 
-7.7005 -9.0865 -6.694 -2.6125 -4.5955 -5.394 -6.805 -7.2615 -7.1955 -9.320001 
-13.2475 -9.352501 -7.026 -5.258 -7.2135 -7.9785 -11.8928 -10.143 -15.4154 
-13.5135 -9.732501 -9.5895 -8.046 -10.586 -13.1751 -14.7743 -18.3751 
-13.8935 -12.296 -12.4011 -11.7835 -15.7826 -16.0566 -23.0064 
-7.4885 -3.687 -5.2425 -2.4945 -1.4985 -3.17 -1.7565 -1.4985 -4.224 -1.7565 -1.4985 -4.5335 -4.4525 -1.7565 -8.8625 -3.9675 -1.7565 -3.3715 -3.5015 -1.934 -4.749 -3.994 -5.42 0 
-10.8845 -8.957001 -7.035501 -3.9315 -3.7115 -4.179 -2.4195 -5.670501 -4.7445 -2.4195 -4.918 -9.101501 -5.1195 -10.3225 -13.0772 -5.258 -4.845 -7.859501 -4.704 -5.849 -5.4505 -9.359 -5.42 
-16.1545 -10.7495 -8.492001 -5.324 -5.2885 -4.497 -6.499001 -6.595001 -5.768 -5.8095 -9.530001 -9.5275 -14.1741 -14.5372 -14.3677 -7.95 -9.428 -9.205501 -8.783 -6.1715 -10.3345 -9.359 
-17.947 -12.206 -9.719501 -8.6485 -5.8975 -7.551 -7.413001 -7.353001 -9.9155 -10.4719 -9.6715 -18.8669 -18.3888 -15.8277 -17.0597 -13.1668 -11.1298 -13.3911 -9.107 -10.634 -10.3345 
-19.4035 -13.4335 -13.2202 -9.543 -10.0405 -8.7405 -8.007 -11.6329 -14.5779 -10.6134 -19.1117 -23.0816 -19.6793 -18.5197 -22.2765 -14.8686 -15.3154 -13.7151 -13.6865 -10.634 
-3.17 -1.7565 -1.4985 -4.5335 -5.1875 -3.9675 -1.934 -3.502 -3.75 -3.994 -3.1015 -5.4395 -2.186 -1.4985 -3.687 -3.2295 -1.7565 -6.864 
-4.179 -2.4195 -4.918 -9.686001 -7.7005 -5.608 -4.8155 -5.0795 -5.276 -6.929501 -8.116501 -8.781 -3.339 -4.548 -5.9095 -6.318 -8.661 
-4.497 -5.8095 -10.1385 -12.368 -9.009501 -8.036501 -6.192 -5.751 -8.834001 -12.8977 -10.181 -9.658501 -7.0595 -7.1885 -8.383501 -13.6451 
-7.1365 -11.0804 -12.9087 -13.677 -11.695 -9.071 -6.617001 -9.311501 -15.0318 -14.9622 -11.0585 -13.462 -9.064501 -9.304501 -16.073 
-12.4956 -13.8506 -14.2177 -16.3625 -12.7295 -9.772501 -9.614501 -15.5595 -17.0963 -15.8397 -14.862 -15.467 -10.3285 -17.057 
