-4.759 
n/a 
n/a 
n/a 
n/a 
-4.759 
n/a 
n/a 
n/a 
n/a 
-4.759 
n/a 
n/a 
n/a 
n/a 
-4.759 
n/a 
n/a 
n/a 
n/a 
-4.834 -3.0835 -4.1285 -4.432 -4.328 -3.917 -2.5045 -2.3615 -3.59 
-6.8945 -6.3625 -7.9585 -4.899 -9.1365 -6.425 -4.3105 -5.0215 
-10.064 -8.155001 -8.0085 -9.453501 -11.9613 -8.186501 -8.087001 
-11.9571 -8.172501 -13.0008 -12.3455 -13.7228 -12.49 
-11.9746 -13.2816 -15.8928 -14.107 -18.0263 
-3.59 -3.917 -1.4985 -3.188 -3.0835 -3.5485 -4.432 -4.328 
-7.4705 -5.691 -3.619 -6.215 -6.739 -8.5665 -4.899 
-9.496 -8.874001 -6.9565 -10.0925 -9.9375 -9.280001 
-12.8238 -12.6487 -11.3904 -13.4562 -10.0015 
-16.5985 -17.0826 -14.7541 -13.5202 
-3.188 -2.229 -3.0835 -3.5485 -4.432 -4.328 -4.536 -2.3345 -6.6585 0 
-4.279 -4.6705 -6.739 -8.5665 -4.899 -8.7545 -5.47 -9.566501 -6.6585 
-5.6045 -7.8555 -9.9375 -9.280001 -8.9125 -8.965501 -13.6494 -9.566501 
-8.959001 -10.396 -10.0015 -13.3195 -9.0185 -18.0377 -13.6494 
-11.9497 -10.4715 -14.1434 -13.4255 -18.3467 -18.0377 
-1.4985 -3.59 -2.9705 -3.917 -1.4985 -3.188 -2.229 -3.0835 -4.1105 -4.432 -4.328 
-4.268 -6.172 -7.515 -5.691 -3.619 -4.279 -4.6705 -6.1545 -8.064001 -4.899 
-6.6505 -11.2501 -8.559001 -8.874001 -4.3695 -5.6045 -7.441 -8.35 -8.149501 
-11.8454 -12.2941 -11.8236 -9.497001 -5.7695 -8.848001 -8.647501 -8.355 
-12.8894 -15.5587 -12.4466 -11.256 -8.8935 -9.470501 -8.650001 
