-4.759 
n/a 
n/a 
n/a 
n/a 
-4.759 
n/a 
n/a 
n/a 
n/a 
-4.759 
n/a 
n/a 
n/a 
n/a 
-4.759 
n/a 
n/a 
n/a 
n/a 
-3.433 -1.4985 -4.1105 -2.229 -2.4945 -3.957 -1.7565 -1.4985 -4.3055 -5.923 -2.4265 -2.186 -3.5485 -1.4985 -4.1235 -2.186 -2.645 -2.0935 -6.231 0 
-4.3795 -5.1575 -5.194 -5.159 -6.603 -4.676 -2.4195 -4.7155 -7.0665 -8.446501 -3.292 -4.884501 -4.8285 -4.498 -6.467 -4.528 -5.0845 -8.426001 -6.231 
-7.625 -6.0855 -9.408001 -9.133 -7.8005 -5.031 -5.432 -8.601501 -8.900001 -8.793501 -6.7945 -5.882 -8.4265 -7.857 -8.6035 -7.0055 -11.8514 -8.426001 
-8.799 -10.303 -13.5756 -10.5741 -8.154 -9.8395 -9.3485 -10.6465 -9.120501 -12.6236 -7.9475 -9.344001 -10.7325 -10.172 -11.3018 -14.0784 -11.8514 
-13.1069 -14.4706 -15.0167 -10.9276 -13.3423 -14.4834 -11.5489 -10.867 -13.119 -13.7766 -11.6069 -11.722 -13.0475 -12.8703 -18.3747 -14.0784 
-5.036 0 -3.5485 -2.229 -3.152 -5.816 -2.5045 -5.0715 0 -3.5485 -2.229 -3.152 -4.504 -2.5045 -3.957 -1.7565 -1.4985 -3.581 -5.923 0 -5.418 -2.5045 -7.690001 -1.756 -2.5685 0 
-4.1115 -3.5485 -4.0385 -5.943501 -8.4025 -7.9855 -7.219001 -5.0715 -3.5485 -4.0385 -5.943501 -5.807 -5.1795 -6.5655 -4.676 -2.4195 -5.3195 -10.8215 -5.923 -5.418 -8.458 -10.093 -9.39 -4.2335 -2.5685 
-7.9145 -4.0385 -9.113501 -11.327 -11.2172 -13.2516 -7.219001 -9.1285 -4.0385 -9.113501 -8.802 -6.888 -9.335001 -7.139501 -5.031 -6.3855 -12.9578 -10.8215 -12.0624 -8.458 -16.5203 -11.793 -12.0037 -4.2335 
-8.882501 -9.113501 -14.614 -14.1417 -16.4833 -13.2516 -11.676 -9.606001 -9.113501 -12.089 -9.649 -11.1365 -10.5335 -7.476501 -9.2545 -14.1682 -12.9578 -16.9609 -15.1024 -16.5203 -18.2203 -14.4067 -12.0037 
-14.4173 -14.614 -17.4287 -19.4078 -16.4833 -17.7086 -12.1535 -15.1106 -12.089 -12.936 -14.0669 -12.335 -10.8705 -11.9138 -17.0502 -14.1682 -19.0972 -20.0009 -23.1647 -18.2203 -20.834 -14.4067 
-2.3335 -2.186 0 -5.3545 -3.5485 -2.5045 -5.303 0 -1.756 -4.5275 -3.3855 -2.186 -3.957 -1.7565 -1.4985 -4.3055 -5.923 0 -3.849 -7.690001 -3.843 -3.115 -2.3335 0 
-3.7085 -2.186 -5.3545 -7.976501 -5.9205 -8.028501 -5.303 -1.756 -6.234 -7.399 -4.4785 -6.0745 -4.676 -2.4195 -4.7155 -7.0665 -5.923 -3.849 -10.598 -11.982 -7.080501 -4.7415 -2.3335 
-3.7085 -6.5505 -7.976501 -10.396 -10.3675 -8.028501 -6.869501 -6.234 -8.9975 -8.386001 -7.875 -7.077001 -5.031 -5.432 -8.601501 -7.0665 -9.554501 -10.598 -14.89 -15.2195 -9.040501 -4.7415 
-9.01 -10.007 -10.396 -14.843 -10.3675 -9.462501 -11.9479 -8.9975 -9.89 -12.0143 -9.425 -7.443501 -9.8395 -9.3485 -8.601501 -10.304 -16.2973 -14.89 -18.1275 -17.1795 -9.040501 
-12.8439 -13.0493 -14.843 -14.843 -11.8015 -14.6155 -14.7114 -9.89 -13.5689 -13.5643 -9.864 -12.5642 -14.4834 -9.3485 -12.163 -17.0468 -20.5893 -18.1275 -20.0875 -17.1795 
-2.3335 -2.186 0 -3.0365 -2.4945 -3.2775 -3.681 -2.5045 -6.339 -3.5485 -2.5045 -5.303 0 -4.9735 -3.5485 -2.5045 -4.5725 -3.957 -1.7565 -5.923 -2.5045 -7.690001 -3.843 0 
-3.7085 -2.186 -3.0365 -3.688 -5.863501 -5.686501 -5.659 -8.613001 -9.277 -5.9205 -8.028501 -5.303 -4.9735 -8.5635 -5.9205 -7.399501 -8.7435 -4.676 -7.0965 -8.089001 -10.093 -11.982 -3.843 
-3.7085 -4.5415 -3.688 -6.922 -7.4915 -6.0605 -12.0159 -11.7512 -11.914 -10.3675 -8.028501 -10.3165 -8.5635 -9.288 -11.3849 -11.9563 -9.588 -10.3285 -8.7895 -16.0361 -14.385 -11.982 
-6.430501 -6.376 -6.922 -7.645 -7.6375 -12.3814 -15.1541 -14.3882 -16.361 -10.3675 -13.449 -14.1291 -9.288 -15.0092 -15.9417 -12.8008 -15.4315 -12.0215 -16.9232 -20.3281 -14.385 
-7.396501 -9.717001 -7.645 -7.797 -14.0638 -15.5196 -17.7911 -18.8352 -16.361 -15.788 -17.2616 -14.8536 -15.0092 -19.566 -16.7862 -18.6443 -17.1245 -20.1552 -21.2152 -20.3281 
