-4.759 
n/a 
n/a 
n/a 
n/a 
-4.759 
n/a 
n/a 
n/a 
n/a 
-4.759 
n/a 
n/a 
n/a 
n/a 
-4.759 
n/a 
n/a 
n/a 
n/a 
-3.321 -3.074 -3.97 -3.5435 0 
-6.408 -8.042001 -5.6285 -3.5435 
-11.6006 -10.76 -5.6285 
-14.3186 -10.76 
-14.3186 
-3.5005 -2.3335 -2.4265 -2.186 -5.876 -3.59 0 
-6.2 -3.913 -3.292 -8.967 -10.0785 -3.59 
-7.897501 -4.5215 -10.089 -13.3211 -10.0785 
-8.6435 -11.5469 -14.5431 -13.3211 
-15.7693 -16.001 -14.5431 
-3.5445 -2.3335 0 -2.4265 -2.8645 -4.8935 -3.774 -1.756 -5.876 
-5.749001 -2.3335 -2.4265 -4.1435 -8.871 -7.9855 -5.291 -7.9055 
-5.749001 -3.913 -4.1435 -10.0535 -12.3574 -9.715501 -12.4079 
-8.578001 -5.2035 -10.0535 -13.6019 -14.0874 -16.857 
-9.948001 -11.4049 -13.6019 -15.3319 -21.2289 
-3.9235 -4.1 
-7.937501 
n/a 
n/a 
n/a 
