-4.759 
n/a 
n/a 
n/a 
n/a 
-4.759 
n/a 
n/a 
n/a 
n/a 
-4.759 
n/a 
n/a 
n/a 
n/a 
-4.759 
n/a 
n/a 
n/a 
n/a 
-2.9805 -2.186 -4.2215 -2.264 -3.506 -2.461 0 -5.057 -1.934 -4.23 -4.405 -3.3975 0 
-4.1635 -5.737 -5.4545 -4.855 -5.4925 -2.461 -5.057 -6.9865 -5.914001 -9.003 -7.070001 -3.3975 
-7.3765 -7.569 -7.1095 -6.489 -5.4925 -7.564501 -6.9865 -11.1193 -11.6558 -11.9236 -7.070001 
-9.226001 -8.5915 -8.564001 -6.489 -8.899 -8.909 -11.1193 -16.8611 -14.5764 -11.9236 
-10.3853 -11.017 -8.564001 -9.6745 -10.0155 -13.1762 -16.8611 -19.7817 -14.5764 
-1.934 -1.4985 -3.158 -5.057 -3.506 -2.461 0 -4.235 -12.16972 0 -2.9705 -2.186 -3.9615 -11.0235 0 -7.389 -3.8145 0 -4.23 -7.3625 -8.34 -3.3975 
-2.6125 -4.178 -7.954 -8.2425 -5.4925 -2.461 -4.235 -17.21432 -12.16972 -2.9705 -3.89 -5.73 -15.7466 -11.0235 -7.389 -8.4475 -3.8145 -4.23 -12.5395 -10.2755 -10.8415 
-5.265 -8.5395 -11.3667 -10.2645 -5.4925 -7.578501 -17.21432 -17.21432 -15.14022 -3.89 -7.102 -17.9751 -15.7466 -18.4125 -8.4475 -8.4475 -9.040501 -12.5395 -15.4525 -12.777 
-8.9995 -12.1988 -13.3887 -10.2645 -11.6312 -20.89142 -17.21432 -20.18482 -16.05972 -7.102 -19.6181 -17.9751 -23.1356 -19.471 -8.4475 -13.9349 -17.5646 -15.4525 -17.954 
-12.7488 -14.2208 -13.3887 -16.4032 -24.94412 -20.89142 -20.18482 -21.10432 -19.27172 -19.6181 -19.6181 -25.3641 -24.1941 -19.471 -13.9349 -22.459 -20.4776 -17.954 
-2.9805 -2.7415 -4.2215 -1.934 -1.4985 -3.158 -3.506 -2.461 0 -5.057 -1.7695 -1.8085 -3.535 -4.9255 -3.3975 -1.934 -12.16972 -4.235 -1.934 -9.238501 -3.8145 -3.9615 -12.16972 
-4.004 -4.7885 -4.885 -2.6125 -4.178 -7.025001 -5.4925 -2.461 -5.057 -7.331 -3.41 -4.294 -7.246 -8.2145 -5.415 -15.11012 -16.40472 -5.865 -10.0855 -10.3415 -7.2015 -16.89282 
-5.7885 -5.2365 -5.842501 -5.265 -7.785501 -9.019 -5.4925 -7.564501 -7.331 -9.208 -5.746 -7.9605 -10.335 -9.5185 -19.06832 -19.34512 -18.03472 -14.4305 -11.1885 -13.7285 -20.45282 
-6.226 -6.389 -7.311501 -9.35 -9.700001 -9.019 -8.899 -9.6745 -9.208 -11.6586 -9.345 -10.733 -11.639 -23.28842 -23.30332 -20.97512 -26.60022 -15.5335 -14.5755 -26.97982 
-7.321501 -7.6975 -11.7823 -11.2957 -9.700001 -12.7213 -11.344 -11.5931 -11.6586 -15.2576 -12.3045 -12.037 -25.40892 -27.52342 -24.93332 -29.54062 -27.70322 -18.9205 -27.82682 
-2.9805 -2.7415 -4.2215 -1.934 -1.8085 -4.235 -3.849 -10.094 -1.934 -7.389 -3.8145 -2.264 -3.506 -7.518001 -1.934 -1.8085 -4.23 -3.3975 
-4.004 -4.7885 -4.885 -3.2685 -5.806 -7.0295 -14.1036 -11.1415 -8.318001 -8.4475 -6.4585 -4.855 -10.596 -9.494 -3.2685 -5.4495 -6.992 
-5.7885 -5.2365 -6.5425 -6.665 -7.4895 -17.3075 -15.1511 -17.5255 -8.840501 -10.1765 -8.4405 -9.8955 -10.2435 -10.7985 -6.7415 -7.325 
-6.226 -6.9585 -8.339001 -8.006001 -17.7969 -18.355 -21.5351 -18.048 -10.533 -12.1585 -13.2045 -10.791 -12.0394 -14.4867 -8.234 
-7.878001 -8.481501 -9.324501 -18.336 -18.8444 -24.739 -22.0576 -19.7405 -12.515 -17.0075 -14.15 -12.5589 -15.5932 -15.9792 
