-4.759 
n/a 
n/a 
n/a 
n/a 
-4.759 
n/a 
n/a 
n/a 
n/a 
-4.759 
n/a 
n/a 
n/a 
n/a 
-4.759 
n/a 
n/a 
n/a 
n/a 

n/a 
n/a 
n/a 
n/a 
-7.719 -8.941501 -5.392 -4.335 -1.7565 -10.094 
-10.504 -14.6095 -9.807001 -4.436 -11.1415 
-16.172 -19.0245 -9.847501 -14.8674 
-20.587 -19.065 -20.6289 
-20.6275 -29.8464 
-7.719 -10.5895 -1.7695 -5.355 -3.135 -4.6945 -1.7565 -8.852 -4.1455 
-19.0017 -12.359 -8.1955 -7.764 -7.801001 -6.384501 -10.2185 -10.335 
-20.7712 -18.785 -10.8597 -12.886 -9.155001 -15.5013 -11.7015 
-27.1972 -21.4492 -15.9817 -14.24 -18.521 -16.9843 
-29.8614 -26.5712 -17.3357 -23.606 -20.004 
-7.719 -8.941501 -5.355 -3.3715 -8.852 -4.1455 0 
-10.504 -14.5725 -8.331 -13.5135 -10.335 -4.1455 
-16.135 -17.5485 -18.8942 -14.9965 -10.335 
-19.111 -28.1117 -20.3772 -14.9965 
-29.6742 -29.5947 -20.3772 
