-4.759 
n/a 
n/a 
n/a 
n/a 
-4.759 
n/a 
n/a 
n/a 
n/a 
-4.759 
n/a 
n/a 
n/a 
n/a 
-4.759 
n/a 
n/a 
n/a 
n/a 
-4.613 0 -4.524 -4.13 
-4.613 -4.524 -5.112 
-9.496 -5.112 
-10.704 
n/a 
-4.613 -4.524 -4.13 0 -5.943501 0 
-9.496 -5.112 -4.13 -5.943501 -5.943501 
-10.704 -5.112 -11.1265 -5.943501 
-10.704 -12.7297 -11.1265 
-18.3217 -12.7297 
-4.613 -4.524 -4.13 0 -5.9045 0 
-9.496 -5.112 -4.13 -5.9045 -5.9045 
-10.704 -5.112 -10.3225 -5.9045 
-10.704 -11.9257 -10.3225 
-17.5177 -11.9257 
-9.137001 -4.13 0 -5.943501 0 
-10.084 -4.13 -5.943501 -5.943501 
-10.704 -11.1265 -5.943501 
-18.3217 -11.1265 
-18.3217 
