-4.759 
n/a 
n/a 
n/a 
n/a 
-4.759 
n/a 
n/a 
n/a 
n/a 
-4.759 
n/a 
n/a 
n/a 
n/a 
-4.759 
n/a 
n/a 
n/a 
n/a 
-4.4675 -12.16972 0 0 -12.16972 0 
-17.06962 -12.16972 0 -12.16972 -12.16972 
-17.06962 -12.16972 -12.16972 -12.16972 
-17.06962 -24.33944 -12.16972 
-29.23934 -24.33944 
-4.4675 0 -9.875 0 -4.094 0 
-4.4675 -9.875 -9.875 -4.094 -4.094 
-14.7749 -9.875 -14.1728 -4.094 
-14.7749 -14.1728 -14.1728 
-19.0727 -14.1728 
-4.4675 0 -9.0985 0 -3.783 0 
-4.4675 -9.0985 -9.0985 -3.783 -3.783 
-13.9984 -9.0985 -13.1377 -3.783 
-13.9984 -13.1377 -13.1377 
-18.0376 -13.1377 
-4.4675 0 -12.16972 0 -9.849501 0 
-4.4675 -12.16972 -12.16972 -9.849501 -9.849501 
-17.06962 -12.16972 -22.01922 -9.849501 
-17.06962 -22.01922 -22.01922 
-26.91912 -22.01922 
