-4.759 
n/a 
n/a 
n/a 
n/a 
-4.759 
n/a 
n/a 
n/a 
n/a 
-4.759 
n/a 
n/a 
n/a 
n/a 
-4.759 
n/a 
n/a 
n/a 
n/a 
-2.872 0 -3.5455 -1.4985 -3.158 -5.8135 -1.934 -10.914 -3.8275 0 -6.6115 -5.677 -1.7695 -1.4985 -6.226 -5.481 0 -5.9085 -7.7545 -5.189 0 -1.756 -2.925 -4.5275 -1.4985 -3.325 -4.465 -3.8195 -3.458 -1.4985 -10.128 0 
-2.872 -3.5455 -3.91 -4.178 -8.994 -8.257501 -13.8544 -14.7415 -3.8275 -6.6115 -13.1963 -5.7705 -2.7955 -7.2145 -7.9905 -5.481 -5.9085 -14.6178 -13.6907 -5.189 -1.756 -4.2585 -6.923 -5.8225 -5.8455 -6.806 -7.153 -6.916 -4.063 -10.396 -10.128 
-6.297501 -3.91 -5.429 -9.1285 -10.6345 -20.3819 -17.6819 -14.7415 -11.545 -13.1963 -13.2898 -6.2525 -8.6975 -8.2285 -7.9905 -11.117 -14.6178 -20.554 -13.6907 -6.387 -4.2585 -8.23 -7.686501 -10.204 -10.1505 -10.4888 -10.172 -7.466001 -13.2453 -10.396 
-6.6165 -5.429 -10.9107 -10.703 -22.7589 -24.2094 -17.6819 -22.459 -18.1298 -13.2898 -13.7718 -12.5001 -9.781 -8.2285 -14.0045 -19.8263 -20.554 -20.554 -14.8887 -9.064 -8.23 -8.929501 -12.2846 -14.509 -13.8333 -13.5078 -10.8814 -16.8177 -13.2453 
-8.831 -10.9107 -12.4852 -22.8274 -26.5864 -24.2094 -25.3994 -29.0438 -18.2233 -13.7718 -20.0194 -13.5836 -9.781 -14.3783 -22.7138 -25.7625 -20.554 -21.752 -17.5657 -13.1033 -8.929501 -13.645 -16.5896 -18.1918 -16.8523 -14.2172 -20.2331 -16.8177 
-1.934 -5.8135 0 -3.0365 -2.7415 -1.8085 -3.8275 -3.458 -5.6295 -1.756 -7.6 -5.6655 -4.281 -10.914 -1.934 -2.9705 -7.6 -5.6655 -3.152 -5.2725 -2.985 -4.7505 -3.152 -4.386 -3.9225 -1.4985 -10.2885 
-7.762 -5.8135 -3.0365 -4.2225 -3.891 -5.421 -6.105 -9.251 -7.311 -9.261001 -9.396001 -9.292 -15.5116 -12.848 -4.051 -11.8753 -9.396001 -7.5985 -6.7755 -7.8215 -6.531 -6.917 -6.2805 -6.443501 -4.463 -10.985 
-7.762 -9.456501 -4.2225 -4.725 -7.042 -7.014 -12.6006 -9.9705 -15.2756 -10.514 -13.1123 -20.8004 -17.4456 -14.965 -13.2688 -13.6713 -11.4188 -10.1945 -9.568501 -11.7631 -8.319 -9.373501 -7.713 -6.8765 -14.6067 
-10.1465 -10.1695 -4.725 -7.668 -8.398001 -13.8228 -13.3201 -17.9351 -16.5286 -14.2303 -24.6207 -22.7344 -19.5626 -24.1828 -15.0648 -15.6941 -14.0148 -13.0813 -13.5379 -13.5511 -10.757 -10.1005 -8.064 -17.3888 
-10.6945 -10.7585 -7.668 -8.8105 -15.321 -14.5423 -21.2847 -19.1881 -20.2449 -25.7387 -26.5547 -24.8514 -28.7804 -25.9788 -17.0876 -18.2901 -16.9016 -17.0507 -15.3259 -15.9891 -11.484 -10.4495 -18.6865 
-2.872 -1.934 -5.8135 0 -1.4985 -11.128 -3.8275 -4.005 -1.934 -9.433001 0 -1.4985 -5.6295 -1.7565 -6.226 -12.16972 -2.8645 -5.2725 -7.7545 -5.6655 -1.756 -1.4985 -4.088 -3.152 -4.794 -1.7695 -10.128 -2.9705 -3.152 -4.9395 -1.7695 -1.4985 -7.7545 -5.6655 0 
-4.659 -7.762 -5.8135 -1.4985 -13.7203 -14.9555 -8.038 -4.808 -12.3734 -9.433001 -1.4985 -6.403 -6.834001 -8.155001 -19.70632 -15.03422 -7.365 -11.1165 -9.6385 -6.7545 -3.0405 -5.6785 -6.9045 -6.363501 -7.2675 -12.8797 -13.1841 -5.007 -9.344001 -5.127501 -2.7955 -8.348001 -9.6385 -5.6655 
-10.218 -7.762 -8.0895 -13.7203 -17.5478 -19.166 -8.6785 -15.9078 -12.3734 -11.136 -6.403 -7.1335 -14.1297 -21.62952 -22.57082 -19.53472 -13.4824 -13.0005 -10.7521 -7.6775 -7.0915 -8.166 -9.812501 -8.667001 -18.8533 -15.9358 -15.2206 -10.523 -9.385501 -5.6845 -9.7705 -9.828 -9.6385 
-10.218 -8.8265 -20.5463 -17.5478 -21.7583 -19.8065 -19.9465 -15.9078 -14.0764 -16.0405 -7.1335 -14.6578 -27.60422 -24.49402 -27.07132 -25.65212 -15.3664 -14.1141 -11.6751 -12.1085 -9.3605 -11.2126 -12.5938 -20.3092 -21.9094 -17.9723 -20.7366 -10.5395 -10.225 -13.0845 -11.0673 -9.828 
-11.2825 -21.2841 -24.3738 -21.7583 -22.3988 -31.0745 -19.9465 -17.6108 -18.9809 -16.771 -14.6578 -28.13232 -30.46872 -28.99452 -33.18872 -27.53612 -16.48 -15.0371 -16.1061 -14.3775 -12.5703 -13.9939 -24.236 -23.3653 -23.9459 -23.4883 -20.7531 -11.379 -17.625 -14.3813 -11.0673 
-1.934 -1.4985 -4.3685 -1.7565 -12.16972 0 -5.8135 0 -7.7545 -4.0965 -2.7415 -9.8575 -2.3345 -6.226 -12.16972 -2.229 -5.6295 -1.756 -4.386 -1.7695 -10.128 0 
-2.6125 -5.106 -5.0855 -14.87542 -12.16972 -5.8135 -5.8135 -7.7545 -9.578 -6.906501 -13.9648 -11.1415 -8.689501 -19.70632 -14.39872 -8.0005 -7.311 -5.4505 -5.58 -12.8797 -10.128 
-6.0625 -5.569 -19.27942 -14.87542 -17.98322 -5.8135 -14.1386 -9.578 -10.7515 -18.4464 -15.2488 -17.4965 -22.30602 -21.93532 -20.17022 -9.7355 -11.4651 -6.549 -17.5392 -12.8797 
-6.5045 -19.97472 -19.27942 -20.68892 -17.98322 -14.1386 -15.9621 -10.7515 -22.2914 -19.7304 -21.6038 -31.11302 -24.53502 -27.70682 -21.90522 -13.9576 -12.5636 -18.6994 -17.5392 
-20.96942 -19.97472 -25.09292 -20.68892 -26.30832 -15.9621 -17.1356 -22.2914 -23.5754 -26.0854 -35.22032 -33.34202 -30.30652 -29.44182 -26.12732 -15.0561 -24.714 -18.6994 
