-4.759 
n/a 
n/a 
n/a 
n/a 
-4.759 
n/a 
n/a 
n/a 
n/a 
-4.759 
n/a 
n/a 
n/a 
n/a 
-4.759 
n/a 
n/a 
n/a 
n/a 
-3.1015 -2.7295 -2.7765 -3.047 -7.4975 -3.815 -3.587 -4.485 -2.4285 -4.485 -4.085 -2.4285 -4.568 -6.2975 
-4.9525 -4.065 -4.5075 -11.4829 -12.1335 -7.283 -5.672 -6.501 -6.8035 -5.7135 -5.4175 -6.299 -12.7311 
-6.087 -5.696 -13.7172 -16.1189 -15.6015 -8.548 -7.3925 -7.126 -7.074 -7.5405 -9.321 -15.4585 
-7.3125 -15.0067 -18.3532 -19.5869 -16.8665 -9.5795 -7.834 -7.1375 -8.9185 -9.331 -19.4985 
-16.8054 -19.6427 -21.8212 -20.8519 -17.898 -10.1085 -7.8435 -9.015 -10.9674 -19.5175 
-3.1015 -3.587 -4.485 -2.4285 -4.485 -4.085 0 -3.6385 0 -2.4285 -4.568 -4.932 -3.893 -3.4155 -2.7295 -2.7765 -3.047 
-6.8335 -5.672 -6.501 -6.8035 -5.7135 -4.085 -3.6385 -3.6385 -2.4285 -6.299 -8.26 -9.653 -5.477 -6.2365 -4.065 -4.5075 
-9.4455 -7.3925 -7.126 -7.074 -5.7135 -8.496 -3.6385 -7.2655 -6.299 -10.9874 -14.8656 -11.5896 -9.05 -7.851501 -5.696 
-11.4206 -7.834 -7.1375 -7.074 -8.611501 -8.496 -7.2655 -11.4576 -10.9874 -17.593 -16.8022 -15.1626 -10.9686 -10.0675 
-11.8621 -7.8435 -7.1375 -10.31 -8.611501 -10.6095 -11.4576 -16.146 -17.593 -19.5296 -20.3752 -17.0812 -13.1846 
-4.5335 -4.3005 -2.9905 -3.61 -2.4285 -8.637501 -12.16972 -8.811001 
-6.9545 -8.3255 -6.9045 -6.514 -12.0242 -21.01342 -20.98072 
-10.4945 -10.6885 -9.585001 -16.9437 -24.40012 -29.82442 
-12.8575 -13.369 -20.0581 -29.31962 -33.21112 
-15.538 -23.8421 -32.43402 -38.13062 
-3.1015 -2.7295 -2.7765 -3.047 -1.4985 -3.4155 -3.3255 -3.587 -4.485 -2.4285 -4.485 -4.085 0 -3.6385 0 -2.4285 -4.568 -3.898 -4.3035 -3.893 
-4.9525 -4.065 -4.5075 -4.095 -5.219 -6.8345 -6.933001 -5.672 -6.501 -6.8035 -5.7135 -4.085 -3.6385 -3.6385 -2.4285 -6.299 -8.437 -7.0755 -8.9595 
-6.087 -5.696 -5.387 -7.9925 -8.279501 -9.387 -7.668 -7.3925 -7.126 -7.074 -5.7135 -8.496 -3.6385 -7.2655 -6.299 -9.6875 -8.482 -12.3475 
-7.3125 -6.5735 -9.198 -11.3326 -10.9898 -9.819 -9.366501 -7.834 -7.1375 -7.074 -8.611501 -8.496 -7.2655 -11.4576 -9.6875 -9.6955 -14.0266 
-8.233 -10.609 -12.6217 -14.0429 -11.4218 -11.5907 -10.1155 -7.8435 -7.1375 -10.31 -8.611501 -10.6095 -11.4576 -14.8461 -9.6955 -15.7359 
