-4.759 
n/a 
n/a 
n/a 
n/a 
-4.759 
n/a 
n/a 
n/a 
n/a 
-4.759 
n/a 
n/a 
n/a 
n/a 
-4.759 
n/a 
n/a 
n/a 
n/a 
-3.982 -4.3285 -4.4695 -3.852 -5.4075 -3.6885 -1.7695 -3.99 0 -3.1495 -3.669 -3.429 -4.2225 -4.053 0 
-8.3995 -9.1215 -8.9005 -9.998001 -8.8205 -5.699 -5.6025 -3.99 -3.1495 -8.045501 -7.910501 -8.9175 -9.609001 -4.053 
-13.5101 -13.9175 -15.3439 -13.4722 -10.6885 -9.885 -5.6025 -6.9405 -8.045501 -12.6792 -13.8666 -14.5622 -9.609001 
-18.3061 -20.3609 -18.8181 -15.3402 -14.8745 -9.885 -8.9635 -12.2581 -12.6792 -18.6353 -19.5113 -14.5622 
-24.7495 -23.8351 -20.6861 -19.5262 -14.8745 -13.3912 -14.3233 -16.8918 -18.6353 -24.28 -19.5113 
-2.7835 -1.4985 -3.8035 -2.3335 -3.982 -3.251 -1.7695 -3.946 -3.2615 -4.9735 -4.4695 -2.5045 -3.1435 -4.4475 -2.4945 -3.9595 -3.222 -4.5515 0 -3.321 -1.4985 -3.7515 -4.473 -4.114 -1.7695 -2.674 -3.644 -4.9285 -1.7565 -4.598 
-3.7575 -5.0335 -5.356 -6.815001 -7.002 -4.3285 -4.9815 -6.8355 -7.0665 -9.5755 -7.065001 -5.120501 -6.689 -7.101501 -5.425 -5.316 -5.3815 -4.5515 -3.321 -4.481 -4.4675 -8.4145 -8.4145 -4.4525 -3.8225 -5.910501 -6.7355 -5.4325 -6.0065 
-7.377 -6.108 -9.901501 -8.043 -8.2475 -6.767 -8.214001 -11.0701 -12.3073 -12.3494 -8.2225 -8.0175 -9.432501 -9.7075 -6.3055 -6.036 -5.3815 -7.7545 -4.481 -7.375501 -8.5595 -12.7662 -8.6055 -5.323501 -6.75 -7.907001 -7.732 -8.248501 
-9.045 -10.2535 -11.2113 -9.245501 -10.138 -9.405001 -12.599 -16.3109 -15.0812 -13.5069 -8.559 -11.177 -12.1849 -11.1304 -6.953 -6.036 -8.493 -8.406501 -7.375501 -11.7829 -13.0538 -12.9572 -9.308001 -8.3295 -9.071501 -8.2205 -10.4185 
-13.4293 -11.5633 -12.4138 -11.187 -12.776 -13.9402 -17.8398 -19.0848 -16.2387 -13.8434 -11.9621 -13.9294 -13.6078 -11.7779 -6.953 -8.901501 -9.214001 -11.477 -11.7829 -16.2772 -13.2448 -13.6597 -12.387 -10.6215 -9.420501 -11.0872 
-3.982 -4.2765 -5.4075 -7.142 -3.2615 -4.2675 -4.4695 0 -3.0365 -2.4945 -3.135 -4.9285 -1.7695 -5.181 -1.4985 -3.7515 -4.1745 0 
-8.505 -10.674 -13.5241 -10.543 -8.507 -8.478001 -4.4695 -3.0365 -3.688 -4.575 -7.5045 -6.0495 -5.3995 -5.8135 -4.4675 -8.02 -4.1745 
-15.3779 -18.7906 -16.9251 -15.7885 -12.9541 -8.478001 -8.026501 -3.688 -5.0805 -9.164001 -8.264 -9.512501 -6.0365 -8.094001 -8.405001 -8.02 
-23.4945 -22.1916 -22.1706 -20.2356 -12.9541 -12.7212 -8.570001 -5.0805 -9.1975 -9.9645 -11.8702 -10.5123 -8.357 -12.7473 -8.405001 
-26.8955 -27.4371 -26.6177 -20.2356 -17.1973 -13.2647 -10.238 -9.1975 -10.075 -13.5707 -12.87 -12.8328 -13.0585 -12.7473 
-4.176 -3.251 -4.878 -3.8565 -4.3725 -3.2615 -4.9735 -3.8225 -4.4475 -2.5045 -4.4695 0 -3.034 -4.5275 -3.1495 -3.8035 -3.0365 -2.4945 -4.9285 -1.7565 -5.036 -4.7695 -1.934 -1.4985 -3.8225 -4.4475 0 
-8.101501 -6.985001 -8.4135 -5.5645 -7.005501 -7.0665 -9.245001 -6.9455 -6.8255 -7.429501 -4.4695 -3.034 -5.8865 -6.8285 -5.457 -6.404 -3.688 -7.548501 -5.4325 -6.9785 -10.025 -6.446 -2.6125 -4.887 -6.9455 -4.4475 
-11.8963 -10.5035 -9.838 -8.486 -11.4245 -11.9768 -12.4498 -8.829 -10.204 -7.429501 -8.1155 -5.8865 -7.993501 -9.132 -7.908 -6.944 -7.711 -8.1455 -11.763 -12.1105 -10.6515 -7.02 -6.1775 -7.6295 -6.9455 
-15.4148 -11.928 -12.9315 -13.2 -16.3348 -15.1816 -14.3333 -12.4373 -10.204 -11.6443 -11.196 -7.993501 -10.647 -11.8298 -8.340501 -11.1692 -8.2635 -14.6038 -16.9055 -13.8799 -11.0065 -10.0345 -9.017 -7.6295 
-16.8393 -15.0215 -17.6455 -18.1103 -19.5396 -17.0651 -17.9416 -12.4373 -14.6302 -14.7248 -13.303 -10.647 -13.3448 -12.2623 -12.6873 -11.7217 -14.7458 -19.6397 -18.5155 -14.2884 -14.021 -12.874 -9.017 
