-4.759 
n/a 
n/a 
n/a 
n/a 
-4.759 
n/a 
n/a 
n/a 
n/a 
-4.759 
n/a 
n/a 
n/a 
n/a 
-4.759 
n/a 
n/a 
n/a 
n/a 
-7.0505 -5.257 -3.995 -4.9375 -3.8405 -2.356 -4.2415 -3.972 -2.186 -4.641 -2.3345 -5.3775 -3.4795 -2.3615 -5.0835 -3.7075 -3.4795 0 -7.061 0 -2.4285 -6.282 -7.650001 -2.264 -5.0065 -3.849 -5.3775 -3.4795 -5.822001 0 -2.3615 -2.186 -4.347 -3.7075 -2.95 0 -7.061 0 
-12.9455 -9.614 -7.3175 -7.3315 -6.127501 -6.479501 -9.1385 -6.273 -5.521 -6.063 -7.477 -9.2935 -5.3635 -8.077001 -9.644001 -8.02 -3.4795 -7.061 -7.061 -2.4285 -9.2915 -14.7858 -10.8845 -7.2605 -9.053501 -8.804001 -9.2935 -10.259 -5.822001 -2.3615 -3.5005 -5.555 -9.901001 -7.467 -2.95 -7.061 -7.061 
-17.3025 -13.6739 -9.992001 -9.4845 -10.7058 -11.9055 -11.7681 -9.880501 -6.31 -11.7483 -11.9068 -11.5033 -10.3475 -13.5273 -14.2877 -8.02 -11.0145 -7.061 -9.6675 -9.2915 -17.8803 -18.0203 -15.881 -11.7757 -14.2623 -12.9848 -16.3988 -10.259 -8.316001 -3.5005 -7.372 -11.1984 -14.0019 -7.467 -8.927 -7.061 
-21.3624 -16.3484 -12.221 -14.2936 -16.1318 -14.5351 -15.3756 -11.1331 -12.0907 -16.1781 -14.1166 -16.4873 -15.957 -18.171 -14.2877 -15.8378 -11.0145 -9.6675 -16.7619 -17.8803 -21.1148 -23.0168 -20.3962 -16.9845 -18.4431 -20.0901 -16.3988 -12.753 -9.103001 -7.372 -13.3114 -15.2993 -14.0019 -13.8124 -8.927 
-24.0369 -18.5774 -17.0301 -19.7196 -18.7614 -18.1426 -16.6282 -16.9138 -16.5205 -18.3879 -19.1006 -22.0968 -20.6007 -18.171 -22.1055 -15.8378 -13.621 -16.7619 -25.3507 -21.1148 -26.1113 -27.532 -25.605 -21.1653 -25.5484 -20.0901 -18.8928 -13.54 -13.1039 -13.3114 -17.4123 -15.2993 -20.3473 -13.8124 
-1.4985 -4.3485 -1.7565 -3.972 -2.356 -1.4985 -3.995 -4.9375 -2.8645 -3.1125 -4.281 -2.5045 -6.6695 -3.193 -2.3345 -3.38 -3.995 -4.9375 -3.1335 -2.3615 -3.784 -3.7075 -2.95 -2.4285 -3.995 -4.9375 -4.254 -2.8645 -3.1125 -3.9205 -2.5045 -3.995 -5.9295 -3.9665 -2.4285 -3.784 -6.214 -5.6195 -3.034 -2.3615 -2.186 -5.822001 -4.2815 -2.5045 -2.871 -3.757 -5.5545 -2.186 -1.4985 -3.784 -3.7075 -2.95 0 
-5.625 -5.028 -5.8405 -6.401 -3.1615 -4.712 -7.3175 -7.4865 -3.5345 -5.726 -5.893 -9.2465 -10.1905 -5.4175 -5.7705 -7.189 -7.3175 -7.982 -5.7355 -6.6685 -8.591001 -7.467 -5.145 -6.946001 -7.3175 -9.2055 -7.474501 -3.5345 -5.731 -4.449 -6.902 -9.998 -6.8825 -6.0555 -6.487 -10.6215 -7.041 -8.2545 -5.0455 -3.5005 -7.354501 -9.356501 -7.248501 -4.7085 -6.1185 -10.044 -6.7905 -3.339 -4.6165 -8.591001 -7.467 -2.95 
-6.237 -9.889501 -7.7185 -7.452 -6.683001 -8.3485 -10.134 -7.825 -5.873 -6.802001 -12.9958 -13.1203 -12.584 -9.673 -10.2865 -8.179501 -8.335501 -10.4675 -10.1035 -12.0321 -12.6581 -10.298 -10.078 -10.181 -12.2277 -12.6516 -8.217501 -6.2065 -6.7545 -8.201 -13.375 -10.1355 -8.8745 -10.389 -13.7851 -11.4485 -8.896501 -10.7025 -6.2685 -9.4005 -10.622 -11.9355 -9.690001 -8.616501 -13.111 -11.033 -7.2245 -6.113 -9.237 -12.6581 -7.467 
-10.7595 -12.0229 -8.7425 -10.4855 -10.0885 -10.6875 -10.581 -10.6855 -6.9905 -14.376 -16.8696 -15.5138 -16.8395 -14.3738 -10.619 -8.344501 -10.5855 -14.8355 -15.7345 -16.0992 -15.4891 -15.231 -13.508 -15.243 -15.6738 -13.3946 -11.0409 -7.2295 -10.76 -14.717 -13.5125 -12.1275 -13.4162 -17.6871 -14.6121 -13.304 -11.5299 -11.9255 -12.6881 -12.7346 -13.201 -14.377 -13.3582 -15.6688 -13.874 -11.84 -10.4805 -11.1627 -13.4437 -12.6581 
-12.8929 -13.0469 -11.9368 -13.891 -12.4275 -11.1345 -13.4415 -11.803 -14.8179 -18.2498 -19.2631 -19.7693 -21.5403 -14.7063 -10.6765 -10.586 -14.9535 -20.4665 -19.8016 -18.9302 -20.4221 -18.661 -18.57 -18.6891 -16.4168 -16.218 -12.0639 -11.4026 -17.276 -14.8545 -15.5045 -16.6692 -20.7143 -18.5141 -16.4676 -15.9374 -12.7529 -18.3451 -16.0222 -15.3136 -15.6425 -18.0452 -20.4105 -16.4318 -14.681 -14.6465 -15.3605 -15.3694 -13.4437 
-3.995 -4.4695 -1.7565 -3.723 -3.972 -1.756 -4.2815 -2.0935 -3.193 -1.756 -3.5495 -1.7695 -3.995 -4.4695 0 
-8.439 -5.5145 -5.533 -7.5845 -5.511 -5.987 -6.841001 -6.005 -4.7435 -5.5895 -5.312 -5.497 -8.439 -4.4695 
-9.5085 -10.3745 -8.484 -8.828001 -9.748501 -7.956501 -11.2255 -7.343 -10.019 -7.363 -10.1905 -10.6465 -8.439 
-14.8041 -13.3255 -9.616001 -13.1935 -12.0848 -12.3704 -12.5635 -13.4155 -12.0243 -12.9341 -15.34 -10.6465 
-17.7551 -14.4575 -14.0625 -15.5298 -16.4987 -13.7084 -18.636 -15.4208 -17.5954 -18.0836 -15.34 
-2.5045 -1.4985 -2.95 -2.186 -4.554 -2.3345 -7.061 
-3.1915 -3.9285 -4.817 -5.002501 -5.106 -10.0345 
-4.5155 -5.8255 -7.633 -5.2015 -14.3064 
-7.374001 -8.663 -8.5425 -15.3971 
-10.7495 -9.844001 -19.2911 
