-4.759 
n/a 
n/a 
n/a 
n/a 
-4.759 
n/a 
n/a 
n/a 
n/a 
-4.759 
n/a 
n/a 
n/a 
n/a 
-4.759 
n/a 
n/a 
n/a 
n/a 
-3.0835 -4.4655 0 -3.691 -3.97 0 
-6.1085 -4.4655 -3.691 -6.887 -3.97 
-6.1085 -9.486 -6.887 -6.887 
-11.5884 -12.7718 -6.887 
-14.8742 -12.7718 
-3.0835 -4.867 0 -4.2085 -3.5435 0 
-7.389 -4.867 -4.2085 -6.275001 -3.5435 
-7.389 -9.269001 -6.275001 -6.275001 
-12.2226 -11.6245 -6.275001 
-14.5781 -11.6245 
-3.0835 -3.518 -3.522 0 -7.132 -4.579 
-5.979 -7.7975 -3.522 -7.132 -11.117 
-10.7595 -7.7975 -11.4174 -11.117 
-10.7595 -16.2123 -15.4024 
-19.1743 -20.1973 
-3.0835 -4.584 0 -9.461 -6.293 -3.9235 
-7.693501 -4.584 -9.461 -15.9418 -10.0315 
-7.693501 -15.0122 -15.9418 -19.6803 
-18.4853 -21.493 -19.6803 
-24.9661 -25.2315 
