-4.759 
n/a 
n/a 
n/a 
n/a 
-4.759 
n/a 
n/a 
n/a 
n/a 
-4.759 
n/a 
n/a 
n/a 
n/a 
-4.759 
n/a 
n/a 
n/a 
n/a 
-3.9225 -2.5685 -4.4715 -1.4985 -4.05 -2.9705 -4.8675 -1.4985 -3.9195 -4.634 -5.8205 
-5.686 -6.862 -6.1945 -5.212 -6.441 -6.413 -5.4845 -4.631001 -9.928 -10.6339 
-9.6355 -8.788 -8.873001 -7.3105 -7.801 -6.8955 -7.9665 -11.2927 -15.9279 
-11.7815 -11.5289 -11.2349 -8.644 -8.439 -9.206 -14.8084 -17.2926 
-14.5224 -13.8908 -12.5684 -9.7495 -9.935 -16.2827 -20.8083 
-3.9225 -3.3715 -4.4715 -4.8855 -4.05 -2.186 -3.383 -4.6345 0 
-5.9105 -6.8035 -8.900501 -8.453501 -5.7465 -4.438 -6.1445 -4.6345 
-10.061 -11.9047 -12.8517 -9.908501 -7.8145 -6.945001 -6.1445 
-15.4806 -15.8559 -14.3067 -12.2529 -10.067 -6.945001 
-19.4318 -17.3109 -16.6511 -14.5054 -10.067 
-3.17 -7.9545 -3.034 -4.2815 -1.7695 -4.4715 
-9.474501 -10.985 -5.568 -4.4915 -6.744 
-12.7108 -13.519 -5.7335 -9.693001 
-15.2448 -13.6845 -10.4185 
-15.4103 -18.3695 
-2.5685 -4.05 -2.4945 -3.383 -4.6345 -4.05 -2.186 -4.2865 -4.05 0 
-7.395 -6.441 -4.732 -6.1445 -7.666 -5.7465 -7.0515 -6.975 -4.05 
-10.1115 -8.611 -7.429501 -8.944 -9.479 -9.816 -9.9405 -6.975 
-12.2815 -11.6607 -10.711 -10.1855 -13.6195 -12.7046 -9.9405 
-15.3312 -14.9422 -11.9525 -14.6572 -16.5081 -12.7046 
