-4.759 
n/a 
n/a 
n/a 
n/a 
-4.759 
n/a 
n/a 
n/a 
n/a 
-4.759 
n/a 
n/a 
n/a 
n/a 
-4.759 
n/a 
n/a 
n/a 
n/a 
-2.4265 -2.186 -4.1205 -2.3335 -3.644 -1.7695 -2.674 -3.5645 -3.9655 -5.4945 0 -6.8035 -3.7555 -3.5855 -3.433 -1.7565 -4.2705 0 -2.5045 -3.59 -2.229 -4.466 -3.1575 -3.9655 -3.402 -3.757 0 
-3.292 -5.007 -5.9915 -6.228001 -5.207 -3.8225 -6.617 -6.667 -9.885 -5.4945 -6.8035 -10.821 -8.681001 -7.223001 -4.1845 -5.023 -4.2705 -2.5045 -6.829 -4.966 -5.488501 -9.167 -7.107501 -8.642 -8.474501 -3.757 
-6.0455 -6.851 -9.616 -8.460001 -6.348001 -7.474 -10.0215 -13.1333 -9.885 -13.2076 -10.821 -15.7465 -10.543 -7.9975 -8.660501 -5.023 -6.7895 -6.829 -8.559501 -7.2155 -10.9343 -13.2286 -12.0638 -13.7439 -8.474501 
-6.87 -10.6735 -11.8788 -9.609 -9.908001 -10.633 -16.4878 -13.1333 -17.7349 -17.2251 -15.7465 -17.6085 -10.5705 -12.7735 -8.660501 -7.4405 -11.5542 -8.559501 -11.0676 -13.1113 -14.9959 -18.1849 -17.1657 -13.7439 
-10.702 -12.9363 -13.0278 -13.2252 -13.067 -17.0993 -16.4878 -20.9832 -21.7524 -22.1506 -17.6085 -17.636 -16.7391 -12.7735 -11.5938 -12.2692 -13.2847 -11.0676 -16.9634 -17.1729 -19.9522 -23.2868 -17.1657 
-1.4985 -3.4075 -4.2245 -2.8645 -3.519 -4.232 -3.321 -1.4985 -3.9655 -3.757 -1.934 -2.3335 -3.59 -1.4985 -3.4075 -4.2245 -2.8645 -2.3335 -3.519 -2.3345 -3.091 -4.2705 0 
-4.118 -6.5515 -6.611 -6.5595 -8.2635 -7.098001 -4.481 -4.9875 -8.189 -5.7505 -4.359 -5.777 -5.348001 -4.118 -6.5515 -6.611 -5.909 -6.067 -5.8855 -4.9475 -6.2615 -4.2705 
-7.492001 -9.27 -9.943001 -12.0986 -11.5329 -7.752501 -8.186501 -10.243 -10.647 -8.1625 -6.2205 -7.165 -7.6105 -7.492001 -9.27 -9.7355 -8.118 -8.1385 -8.509501 -8.303 -6.2615 
-10.4585 -12.6418 -15.4641 -15.368 -12.1874 -11.7208 -13.5468 -12.701 -13.059 -10.061 -7.4145 -9.747001 -11.0619 -10.4585 -12.4343 -12.0413 -10.028 -10.6735 -12.0508 -8.303 
-13.8303 -18.1629 -18.7335 -16.0225 -16.1557 -17.0811 -16.0048 -15.113 -14.9575 -11.35 -10.0155 -13.1984 -14.0284 -13.6228 -14.7401 -13.9513 -12.9402 -14.2148 -12.0508 
-3.97 -1.756 -3.941 -1.7695 -3.519 -2.0935 -1.4985 -6.5085 -1.7695 -4.2615 0 
-5.137 -5.7595 -5.8995 -4.951 -5.3365 -2.9725 -10.2185 -8.568 -4.7355 -4.2615 
-9.805 -7.427 -9.248001 -7.514 -6.152 -11.9693 -12.278 -11.8528 -4.7355 
-11.5835 -10.5635 -11.9502 -8.151501 -15.5376 -14.0288 -15.5628 -11.8528 
-14.72 -13.2657 -12.5877 -17.7887 -17.5971 -17.3136 -15.5628 

n/a 
n/a 
n/a 
n/a 
