-4.759 
n/a 
n/a 
n/a 
n/a 
-4.759 
n/a 
n/a 
n/a 
n/a 
-4.759 
n/a 
n/a 
n/a 
n/a 
-4.759 
n/a 
n/a 
n/a 
n/a 
-10.245 -4.4895 0 -4.4385 -5.4435 0 -2.4285 -3.754 -5.4435 -3.1495 -4.352 0 -2.872 0 -2.3335 -2.186 -4.1585 -3.2495 -4.029 
-14.7345 -4.4895 -4.4385 -10.5535 -5.4435 -2.4285 -5.0315 -9.8925 -8.749001 -8.363501 -4.352 -2.872 -2.872 -2.3335 -3.7085 -6.131001 -7.6365 -5.538 
-14.7345 -9.2705 -10.5535 -10.5535 -7.7525 -5.0315 -10.688 -13.1806 -14.1988 -8.363501 -6.388 -2.872 -4.5445 -3.7085 -7.894001 -9.779501 -10.2485 
-19.5155 -15.8567 -10.5535 -12.8625 -9.646 -10.688 -13.9761 -18.6304 -14.1988 -10.7787 -6.388 -4.5445 -5.501 -7.894001 -11.5847 -12.3915 
-26.1017 -15.8567 -12.8625 -14.756 -15.3025 -13.9761 -19.4259 -18.6304 -16.614 -10.7787 -8.007501 -5.501 -10.7269 -11.5847 -14.1967 
-9.8575 -2.229 -9.2565 -4.5445 -1.4985 -4.352 -2.9705 -2.186 -1.934 -3.8225 -3.458 -1.4985 -4.6895 -1.756 -3.5645 -4.6895 -4.7615 0 -3.4945 -4.638 -6.518 0 
-12.4181 -12.0805 -14.1288 -5.716001 -4.71 -6.674 -3.89 -4.0835 -5.219 -7.1265 -4.063 -6.5655 -6.646 -4.7635 -8.8995 -7.219 -4.7615 -3.4945 -7.536 -12.9042 -6.518 
-22.2696 -16.9528 -15.3003 -9.027 -7.085501 -7.283 -5.7145 -7.6115 -7.498 -7.609 -9.559501 -8.103001 -10.6465 -10.382 -11.7336 -7.219 -7.831501 -7.536 -16.4666 -12.9042 
-27.1419 -18.1243 -18.6113 -11.7137 -7.655001 -8.844001 -8.835 -9.133 -7.9145 -13.3883 -9.945001 -12.2745 -16.265 -13.2161 -11.7336 -10.7175 -12.2996 -16.4666 -16.4666 
-28.3134 -21.4353 -21.298 -12.2832 -9.009501 -12.3957 -10.5325 -9.580501 -13.7644 -13.7738 -15.1293 -17.893 -19.0991 -13.2161 -15.2321 -15.1856 -21.2302 -16.4666 
-4.064 -1.7565 -5.932 -2.264 -3.858 -5.828 -6.339 -2.4285 -6.339 -3.8905 -2.356 -2.847 -4.5845 -3.519 0 -6.6575 -2.229 -5.447 -5.017 -1.4985 -4.352 -1.934 -3.5155 -4.017 -1.7565 -4.7615 0 
-4.3045 -7.579501 -6.5135 -5.48 -10.0855 -10.0195 -8.694 -8.507 -7.526 -6.1755 -4.488 -6.1995 -7.574501 -3.519 -6.6575 -8.055 -6.631001 -10.4675 -5.9245 -4.71 -5.7215 -4.6585 -6.5925 -4.8305 -5.663 -4.7615 
-8.099501 -8.026501 -9.8015 -12.3757 -14.4352 -12.3745 -14.9785 -9.822001 -8.875501 -8.406 -7.261001 -9.568501 -7.574501 -10.9315 -8.055 -9.7635 -11.8169 -11.375 -9.93 -6.267 -8.268001 -7.783501 -7.0425 -7.598001 -5.663 
-8.447001 -11.4097 -16.9076 -16.7254 -16.7902 -18.659 -16.2935 -11.1611 -11.1644 -11.3276 -10.718 -9.568501 -15.5082 -12.329 -9.7635 -15.0128 -12.7244 -15.3805 -11.7298 -9.040501 -11.8016 -8.2375 -10.303 -7.598001 
-11.8768 -18.5158 -21.2573 -19.0804 -23.0747 -19.974 -17.6326 -13.45 -14.086 -14.7846 -10.718 -17.6026 -16.9057 -14.0375 -15.0128 -15.9203 -16.7299 -17.1803 -14.5033 -12.7445 -12.2556 -11.7826 -10.303 
-6.6575 -2.229 -4.1445 0 -4.6895 -7.7895 0 -7.032001 -3.757 -3.4405 -2.6165 -4.597 -3.7285 -3.3755 -2.872 -3.2495 -4.029 -1.7695 -4.0585 -1.4985 -4.352 0 
-8.055 -6.22 -4.1445 -4.6895 -11.08 -7.7895 -7.032001 -10.1075 -7.2625 -3.7415 -6.6665 -9.0675 -7.328 -5.603001 -5.951 -5.538 -4.395 -4.6165 -4.7185 -4.71 -4.352 
-10.543 -6.22 -10.7025 -11.08 -11.08 -15.2685 -10.1075 -13.7302 -7.6375 -7.267 -11.473 -12.9128 -9.367001 -9.040001 -8.638 -6.102 -7.468501 -5.2205 -7.583 -4.71 
-10.543 -13.2436 -17.093 -11.08 -18.559 -18.344 -13.7302 -14.1052 -11.5504 -12.1913 -15.3183 -14.9518 -12.849 -11.8136 -9.222501 -9.0895 -8.126 -8.001 -7.583 
-17.5666 -19.6341 -17.093 -18.559 -21.6345 -21.9667 -14.1052 -18.0181 -16.4747 -16.0366 -17.3573 -18.4338 -15.6226 -12.3981 -12.3762 -9.5605 -11.0693 -8.001 
