-4.759 
n/a 
n/a 
n/a 
n/a 
-4.759 
n/a 
n/a 
n/a 
n/a 
-4.759 
n/a 
n/a 
n/a 
n/a 
-4.759 
n/a 
n/a 
n/a 
n/a 
0 -9.0235 -6.4925 -7.8925 -3.106 
-9.0235 -15.7814 -15.1586 -11.3433 
-15.7814 -24.4475 -18.6094 
-24.4475 -27.8983 
-27.8983 
0 0 -9.1675 -6.4925 -3.452 -3.106 0 0 
0 -9.1675 -15.924 -10.3965 -6.821 -3.106 0 
-9.1675 -15.924 -19.828 -13.7655 -6.821 -3.106 
-15.924 -19.828 -23.197 -13.7655 -6.821 
-19.828 -23.197 -23.197 -13.7655 
0 0 -10.7895 -4.831 -3.106 0 0 
0 -10.7895 -15.6205 -8.581501 -3.106 0 
-10.7895 -15.6205 -19.371 -8.581501 -3.106 
-15.6205 -19.371 -19.371 -8.581501 
-19.371 -19.371 -19.371 
-6.951 -6.4925 -3.452 -3.106 
-14.3353 -10.3965 -6.821 
-18.2393 -13.7655 
-21.6083 
n/a 
