-4.759 
n/a 
n/a 
n/a 
n/a 
-4.759 
n/a 
n/a 
n/a 
n/a 
-4.759 
n/a 
n/a 
n/a 
n/a 
-4.759 
n/a 
n/a 
n/a 
n/a 
-4.5065 0 -7.599 -7.949501 0 -5.7865 0 
-4.5065 -7.599 -10.1725 -7.949501 -5.7865 -5.7865 
-12.4901 -10.1725 -10.1725 -11.0145 -5.7865 
-15.0636 -10.1725 -13.2375 -11.0145 
-15.0636 -13.2375 -13.2375 
-4.5065 0 -7.599 -7.949501 0 -5.7865 0 
-4.5065 -7.599 -10.1725 -7.949501 -5.7865 -5.7865 
-12.4901 -10.1725 -10.1725 -11.0145 -5.7865 
-15.0636 -10.1725 -13.2375 -11.0145 
-15.0636 -13.2375 -13.2375 
-4.5065 -7.599 -9.8975 0 -9.8175 0 
-12.4901 -18.0461 -9.8975 -9.8175 -9.8175 
-22.9372 -18.0461 -19.9168 -9.8175 
-22.9372 -28.0654 -19.9168 
-32.9565 -28.0654 
-4.5065 0 -7.599 -10.7225 0 -5.7865 0 
-4.5065 -7.599 -18.8711 -10.7225 -5.7865 -5.7865 
-12.4901 -18.8711 -18.8711 -16.509 -5.7865 
-23.7622 -18.8711 -24.6576 -16.509 
-23.7622 -24.6576 -24.6576 
