-4.759 
n/a 
n/a 
n/a 
n/a 
-4.759 
n/a 
n/a 
n/a 
n/a 
-4.759 
n/a 
n/a 
n/a 
n/a 
-4.759 
n/a 
n/a 
n/a 
n/a 
-2.664 -6.057 -5.2685 -1.7565 -4.1735 -4.5675 -1.756 -3.8315 -3.4185 -1.7565 -3.4225 -4.39 0 -3.8735 -2.8645 -4.024 -2.645 -2.701 
-6.7015 -7.5025 -5.8465 -6.146 -8.3255 -5.8 -5.2545 -7.662001 -4.2475 -5.6355 -4.7525 -4.39 -3.8735 -6.143 -5.994 -6.8145 -6.656501 
-7.601501 -7.5735 -9.658 -10.76 -9.5635 -10.172 -9.2845 -7.824501 -7.745501 -6.6575 -4.7525 -8.007 -6.143 -9.06 -7.963 -10.733 
-7.643001 -11.5144 -14.554 -11.998 -14.1511 -14.202 -9.320001 -11.5831 -8.934501 -6.6575 -8.684501 -9.271001 -9.06 -10.468 -12.6181 
-11.5995 -16.4104 -15.792 -16.5856 -18.1811 -14.2375 -12.9968 -12.7721 -8.934501 -11.1707 -9.7015 -12.2058 -10.468 -15.4251 
-3.4225 -3.468 -8.661 -3.959 -4.168 -1.934 -12.16972 -3.2615 -2.3335 -3.8735 -3.074 -1.934 -1.7695 -1.4985 -3.2795 -2.0935 -6.6325 -7.1955 -2.0935 -4.828 
-3.628 -13.1102 -13.0896 -7.6055 -5.559 -15.11012 -15.43122 -5.0495 -6.491 -7.0925 -4.93 -4.0395 -2.7955 -4.423 -5.344501 -9.3535 -14.4072 -9.443001 -6.4735 
-13.3686 -17.5388 -16.7361 -9.6175 -19.52332 -18.37162 -17.21922 -9.71 -9.195001 -8.874001 -8.695001 -5.3685 -5.4925 -6.4845 -13.0601 -17.2738 -16.6547 -13.8388 
-17.7972 -21.1853 -18.7481 -23.65802 -22.78482 -20.15962 -21.87972 -12.3538 -11.1615 -12.7794 -9.4185 -8.5185 -7.5405 -14.7859 -20.9804 -19.5213 -21.0505 
-21.4437 -23.1973 -32.78862 -26.91952 -24.57282 -24.82012 -24.52352 -14.3203 -15.0669 -13.5029 -12.7729 -10.621 -16.0477 -22.7062 -23.2279 -23.9171 
-3.875 -3.959 -4.077 -1.7695 -3.2015 -1.7565 -3.59 -4.129 -4.126 -3.4185 -1.7565 -3.8735 -2.3615 -6.8475 -3.8465 -1.7565 -3.7515 -6.9165 -4.0085 -3.515 -3.563 0 
-7.163 -6.933001 -6.288 -4.3485 -4.706 -5.59 -7.611001 -8.4655 -8.7075 -4.2475 -5.112 -6.609 -9.460501 -11.5256 -5.3405 -6.2335 -9.535501 -9.637001 -7.423 -7.117001 -3.563 
-10.233 -8.645 -8.4055 -7.467501 -8.663501 -10.5325 -12.6449 -13.3076 -9.752001 -8.4715 -7.583001 -14.0906 -14.1992 -13.0196 -10.19 -11.441 -12.9495 -13.6651 -11.5044 -7.117001 
-12.269 -10.5225 -11.8401 -10.646 -13.8018 -15.5664 -17.487 -14.3521 -13.9314 -11.5311 -15.0918 -18.8293 -15.6932 -17.8691 -15.4313 -15.5636 -17.159 -17.6751 -11.5044 
-14.1465 -14.5117 -15.0186 -15.7843 -18.8357 -20.4085 -18.5315 -18.5315 -16.991 -19.0399 -19.8305 -20.3233 -20.5427 -23.1104 -19.5201 -19.5333 -21.2404 -17.6751 
-3.8735 -2.9705 -2.186 -1.4985 -3.4185 -2.5195 -3.943 -1.7565 -3.4225 -4.39 -1.756 -1.8085 -6.3195 -4.4095 -3.59 0 -2.4265 -3.251 -4.024 -2.645 -3.1575 -6.6325 -4.257 -4.4095 0 -4.0085 -4.4095 -1.7695 -3.7825 -5.5025 -2.0935 -4.241 -3.913 -3.772 0 
-6.7115 -3.89 -3.339 -5.019 -5.76 -7.2695 -5.292 -5.6355 -4.7525 -5.675 -3.584 -6.658501 -10.622 -8.1785 -3.59 -2.4265 -4.8545 -6.242001 -6.8145 -3.72 -8.973001 -11.4687 -6.941 -4.4095 -4.0085 -6.943 -5.8835 -5.3295 -6.821 -7.5935 -5.388 -7.944 -7.137 -3.772 
-7.4485 -5.027 -7.1445 -7.282001 -11.3864 -9.2555 -8.518001 -6.6575 -6.1945 -7.656001 -7.897501 -11.4666 -14.391 -8.1785 -5.906 -4.8545 -7.919001 -8.8535 -7.309 -9.130001 -14.1536 -14.1527 -6.941 -7.77 -6.943 -8.219501 -9.927501 -8.693001 -8.736 -11.4422 -9.774501 -12.0668 -7.137 
-8.4875 -9.022 -9.4855 -13.589 -13.3724 -12.5661 -10.3285 -7.9805 -8.149 -10.396 -12.8858 -15.2356 -14.391 -11.0283 -8.311501 -7.919001 -10.3095 -9.0465 -13.3666 -14.4194 -16.8376 -14.1527 -10.1425 -9.7795 -8.219501 -12.4583 -13.4546 -10.8032 -12.8789 -15.8287 -14.2135 -12.0668 
-12.8377 -11.6166 -15.7479 -15.575 -16.683 -14.3766 -11.6515 -10.7175 -10.434 -16.0221 -16.6548 -15.2356 -17.2408 -13.4338 -11.5006 -10.3095 -10.4285 -15.2187 -18.656 -17.1034 -16.8376 -17.3542 -12.2292 -11.1086 -12.4583 -15.9854 -15.5648 -14.9461 -17.2654 -20.2677 -14.2135 
