-4.759 
n/a 
n/a 
n/a 
n/a 
-4.759 
n/a 
n/a 
n/a 
n/a 
-4.759 
n/a 
n/a 
n/a 
n/a 
-4.759 
n/a 
n/a 
n/a 
n/a 
-4.4715 -2.5685 -1.7565 -1.4985 -4.861 -4.3955 -3.634 -3.127 -1.934 -3.818 -4.3725 
-7.0795 -3.887 -2.4195 -6.646501 -9.540501 -9.143001 -6.087 -4.82 -5.949 -5.274 
-7.7475 -4.34 -7.281501 -11.8662 -14.5916 -11.7836 -8.1635 -8.7025 -7.553 
-8.574 -8.525001 -13.003 -16.9173 -17.2322 -13.8601 -12.2128 -9.790001 
-12.8204 -14.4121 -18.0541 -19.5579 -19.3087 -17.9094 -13.3003 
-4.4715 -3.6205 -2.9195 -2.4945 -4.49 -1.934 -3.4605 -3.3425 
-9.844501 -4.4495 -6.462 -5.492001 -4.943 -6.186 -5.952001 
-10.6735 -8.2235 -9.6075 -5.806 -10.199 -8.465 
-14.4475 -11.8348 -9.739 -11.2918 -12.478 
-18.0588 -11.9663 -15.3704 -13.5708 
-4.138 -1.7565 -2.5685 -4.103 -3.0465 -4.0775 -3.881 -1.7565 -5.4525 -3.5665 -3.673 0 
-5.1845 -3.938 -6.9115 -7.2955 -8.440001 -9.547501 -5.576 -6.924 -10.013 -7.195001 -3.673 
-8.057 -8.206 -10.1945 -13.4136 -14.3938 -11.3013 -11.5849 -12.0315 -14.0327 -7.195001 
-12.6394 -11.7854 -16.3126 -19.3674 -16.1476 -17.3102 -16.6924 -16.0512 -14.0327 
-16.2188 -17.9035 -22.2664 -21.1212 -22.1565 -22.4177 -20.7121 -16.0512 
-2.5685 -3.16 -3.8925 -4.0775 -3.0465 -3.4515 -1.756 -3.5665 -1.4985 -4.146 0 
-5.963 -4.8765 -8.663 -8.172001 -6.2065 -5.1365 -5.571 -5.204 -5.4255 -4.146 
-8.499001 -9.488001 -13.1377 -11.6398 -7.675 -8.9475 -6.620501 -8.912001 -5.4255 
-13.6493 -14.1259 -16.6055 -13.1083 -12.0934 -9.8765 -10.0815 -8.912001 
-18.2872 -17.5937 -18.074 -17.5267 -13.0224 -13.4325 -10.0815 
