-4.759 
n/a 
n/a 
n/a 
n/a 
-4.759 
n/a 
n/a 
n/a 
n/a 
-4.759 
n/a 
n/a 
n/a 
n/a 
-4.759 
n/a 
n/a 
n/a 
n/a 
-3.1495 -5.634 -2.6165 -3.098 -2.0935 -3.1435 -5.7415 0 -3.074 -2.0935 -1.4985 -4.224 -1.756 -5.7655 -4.3905 -3.3755 -3.43 -2.4265 -3.4865 
-7.4045 -8.599001 -4.283 -4.8475 -4.568 -8.160001 -5.7415 -3.074 -5.4025 -2.9725 -5.670501 -5.821 -7.127501 -10.368 -9.1945 -7.4965 -4.849 -6.6565 
-10.2035 -9.547001 -5.759 -6.9905 -9.485001 -8.160001 -8.9735 -5.4025 -6.0805 -7.366001 -7.1 -12.1883 -11.9258 -15.8016 -13.6787 -8.602 -8.012 
-10.511 -11.1512 -7.2135 -12.1849 -9.485001 -11.855 -11.5892 -6.0805 -10.2645 -8.8605 -13.8589 -16.9866 -17.3594 -20.2858 -14.7842 -11.964 
-12.1152 -12.6057 -12.4883 -12.1849 -13.223 -14.4707 -12.2672 -10.2645 -11.759 -15.7722 -18.6572 -22.4202 -21.8436 -21.3913 -18.1462 
-2.3615 -2.186 -3.074 -3.3235 -3.9205 -2.6165 -3.098 -2.0935 -2.4265 -2.229 -5.156 -2.872 -4.1395 -1.756 -3.9035 0 
-3.5005 -4.156 -6.3425 -4.8795 -6.75 -4.283 -4.8475 -4.488 -3.3415 -6.708 -8.027 -8.3465 -5.623 -5.5525 -3.9035 
-5.675 -6.702 -6.932 -8.032001 -7.602001 -5.759 -7.584 -5.949 -9.755 -9.846001 -13.6413 -9.601501 -9.842001 -5.5525 
-8.861 -7.1455 -10.543 -8.351501 -7.914001 -8.5045 -8.425 -12.2833 -13.0924 -15.4603 -14.8963 -14.1943 -9.842001 
-9.7915 -10.733 -10.8625 -8.785001 -10.0215 -8.649501 -14.8845 -15.6207 -18.7067 -16.7153 -19.4891 -14.1943 
-2.3615 -3.759 -2.186 -4.5735 -2.6165 -3.098 -2.0935 -3.1435 -4.519 0 -3.074 -2.8965 -4.569 0 -4.224 -3.074 -3.699 -1.934 -2.3615 0 
-5.3075 -5.642 -6.1875 -7.6365 -4.283 -4.8475 -4.568 -7.488501 -4.519 -3.074 -6.226 -6.818501 -4.569 -4.224 -7.2385 -5.729 -5.35 -3.539 -2.3615 
-6.5965 -9.289001 -8.2445 -7.9505 -5.759 -6.9905 -8.507 -7.488501 -8.296 -6.226 -9.844501 -6.818501 -7.875501 -7.2385 -10.7175 -6.9975 -6.741 -3.539 
-9.9175 -10.6475 -8.438001 -8.421 -7.2135 -11.2069 -8.507 -11.6209 -11.76 -9.844501 -9.844501 -10.6215 -11.2242 -10.7175 -11.986 -8.3695 -6.741 
-11.3522 -10.6825 -8.877501 -9.462501 -11.5103 -11.2069 -12.8612 -15.0849 -15.3785 -9.844501 -13.8851 -13.9702 -14.7032 -11.986 -13.358 -8.3695 
-2.3615 -3.845 -2.186 -6.224 -2.6165 -3.098 -2.0935 -3.1435 -5.8105 -3.6835 -2.872 -3.074 -2.0935 -3.1435 -2.915 -2.9705 -3.152 -3.383 -9.919001 
-5.817 -5.915 -7.4875 -8.951 -4.283 -4.8475 -4.568 -8.5575 -8.248501 -6.313001 -4.5415 -5.4025 -4.568 -6.311 -5.5755 -5.007 -5.31 -15.0264 
-7.09 -11.9851 -11.5431 -9.255501 -5.759 -6.9905 -9.234001 -9.794001 -10.411 -7.789001 -5.9015 -7.2695 -7.754001 -9.406 -8.467501 -7.196001 -17.7108 
-13.3529 -16.0407 -11.8476 -9.467501 -7.2135 -11.9339 -10.435 -12.1371 -11.887 -9.074501 -7.369 -10.6875 -10.76 -12.2956 -10.8263 -19.9882 
-17.4085 -16.3452 -12.0596 -11.0774 -12.2373 -13.1349 -12.7781 -13.6131 -13.1725 -10.0575 -10.757 -13.6935 -13.6496 -14.6544 -23.6185 
