-4.759 
n/a 
n/a 
n/a 
n/a 
-4.759 
n/a 
n/a 
n/a 
n/a 
-4.759 
n/a 
n/a 
n/a 
n/a 
-4.759 
n/a 
n/a 
n/a 
n/a 
-9.204 -4.245 0 
-13.616 -4.245 
-13.616 
n/a 
n/a 
0 -3.6595 0 -4.065 -4.245 0 
-3.6595 -3.6595 -4.065 -6.649 -4.245 
-3.6595 -8.4575 -6.649 -6.649 
-8.4575 -11.1967 -6.649 
-11.1967 -11.1967 
0 -3.047 0 -4.065 -4.245 0 
-3.047 -3.047 -4.065 -6.649 -4.245 
-3.047 -7.712501 -6.649 -6.649 
-7.712501 -10.4297 -6.649 
-10.4297 -10.4297 
-3.047 0 -4.065 -4.245 0 
-3.047 -4.065 -6.649 -4.245 
-7.712501 -6.649 -6.649 
-10.4297 -6.649 
-10.4297 
