-4.759 
n/a 
n/a 
n/a 
n/a 
-4.759 
n/a 
n/a 
n/a 
n/a 
-4.759 
n/a 
n/a 
n/a 
n/a 
-4.759 
n/a 
n/a 
n/a 
n/a 
-1.934 -1.4985 -3.158 -4.8285 0 -4.348 -4.3195 -3.766 -4.876 -3.59 -3.325 -4.065 -4.6825 0 
-2.6125 -4.178 -7.422501 -4.8285 -4.348 -8.4415 -7.581 -6.591001 -8.4385 -6.7565 -7.0425 -6.244 -4.6825 
-5.265 -8.189501 -7.422501 -9.3815 -8.4415 -10.0745 -8.6875 -8.566 -12.1286 -9.702001 -10.2185 -6.244 
-8.7675 -8.189501 -12.3121 -10.152 -10.0745 -10.098 -11.2763 -12.4521 -15.0741 -13.1122 -10.2185 
-8.7675 -13.3875 -13.0826 -10.369 -10.098 -12.9336 -15.1624 -15.3976 -18.4843 -13.1122 
-4.8285 -6.9655 -2.3335 -5.7625 -2.925 -6.3195 
-12.4012 -9.1085 -8.264501 -8.943001 -8.687 
-14.5442 -15.3453 -11.6078 -14.7672 
-20.781 -18.6886 -17.432 
-24.1243 -24.5128 
-1.934 -4.8285 0 -4.348 -4.3195 -2.664 -4.015 -3.59 -3.5445 -4.065 -4.6825 0 
-6.0675 -4.8285 -4.348 -8.4415 -5.769 -4.926 -7.071501 -6.979 -7.6695 -6.244 -4.6825 
-6.0675 -9.3815 -8.4415 -9.373 -7.19 -7.4245 -9.361501 -11.7176 -10.1425 -6.244 
-9.880501 -10.152 -9.373 -9.447001 -8.476501 -9.48 -14.3887 -14.1906 -10.1425 
-10.2415 -11.9567 -9.447001 -10.102 -9.9455 -14.5746 -16.8617 -14.1906 
-1.934 -4.8285 -4.348 -4.3195 -4.015 -2.356 -1.934 -1.4985 -4.559 -4.1 0 
-6.0675 -9.3815 -8.4415 -7.0655 -7.0795 -5.342 -2.6125 -7.208 -9.394501 -4.1 
-9.880501 -10.152 -9.488501 -9.114 -10.265 -6.0285 -8.049 -12.7239 -9.394501 
-10.2415 -12.0722 -11.6722 -12.5375 -10.712 -11.7762 -13.7389 -12.7239 
-12.2691 -14.2559 -15.0957 -12.9845 -16.4597 -17.4661 -13.7389 
