-4.759 
n/a 
n/a 
n/a 
n/a 
-4.759 
n/a 
n/a 
n/a 
n/a 
-4.759 
n/a 
n/a 
n/a 
n/a 
-4.759 
n/a 
n/a 
n/a 
n/a 
-4.5065 0 -4.917 -10.337 0 -5.1645 0 
-4.5065 -4.917 -15.879 -10.337 -5.1645 -5.1645 
-9.415001 -15.879 -15.879 -15.5015 -5.1645 
-20.407 -15.879 -21.0435 -15.5015 
-20.407 -21.0435 -21.0435 
-4.5065 0 -4.917 -3.047 -10.337 0 -5.1645 0 
-4.5065 -4.917 -8.26 -14.3224 -10.337 -5.1645 -5.1645 
-9.415001 -8.26 -20.153 -14.3224 -15.5015 -5.1645 
-12.788 -20.153 -20.153 -19.4869 -15.5015 
-24.681 -20.153 -25.3175 -19.4869 
-9.4235 -3.047 -12.16972 0 -5.1645 0 
-12.758 -16.15512 -12.16972 -5.1645 -5.1645 
-26.51372 -16.15512 -17.33422 -5.1645 
-26.51372 -21.31962 -17.33422 
-31.67822 -21.31962 
-4.5065 0 -9.122001 -3.047 -12.16972 0 -5.1645 0 
-4.5065 -9.122001 -12.3028 -16.15512 -12.16972 -5.1645 -5.1645 
-14.0131 -12.3028 -25.41092 -16.15512 -17.33422 -5.1645 
-17.1939 -25.41092 -25.41092 -21.31962 -17.33422 
-30.30202 -25.41092 -30.57542 -21.31962 
