-4.759 
n/a 
n/a 
n/a 
n/a 
-4.759 
n/a 
n/a 
n/a 
n/a 
-4.759 
n/a 
n/a 
n/a 
n/a 
-4.759 
n/a 
n/a 
n/a 
n/a 
-8.803 -3.1385 -1.756 -2.985 -3.891 0 -3.9675 0 -3.97 -4.0045 -2.4945 -3.383 -4.168 -2.0935 -5.1845 -5.7505 0 
-10.419 -4.6325 -4.2025 -6.691 -3.891 -3.9675 -3.9675 -3.97 -8.413 -6.713 -4.732 -8.467501 -5.994 -7.298 -12.2294 -5.7505 
-11.913 -6.0665 -7.9685 -6.691 -7.573501 -3.9675 -6.617001 -8.413 -11.6351 -8.862501 -10.0285 -10.5745 -11.9567 -14.8495 -12.2294 
-13.347 -10.7495 -7.9685 -10.0005 -7.573501 -6.617001 -10.4505 -11.6351 -13.7846 -14.4594 -12.1223 -16.5372 -19.5082 -14.8495 
-18.03 -10.7495 -11.5632 -10.0005 -10.6522 -10.4505 -13.6726 -13.7846 -19.3815 -16.5532 -18.085 -24.0887 -19.5082 
-1.4985 -3.891 0 -4.2465 -1.756 -3.9655 -4.142 -1.7565 -8.5635 -3.1385 -2.4945 -3.639 0 -4.0535 -1.756 -4.3035 -1.7695 -12.0285 0 
-5.2725 -3.891 -4.2465 -5.407 -5.0755 -7.8155 -6.602 -9.915501 -10.4595 -4.588 -5.9205 -3.639 -4.0535 -5.690001 -6.0675 -5.2725 -9.231501 -6.9655 
-5.2725 -7.646 -5.407 -6.6605 -8.7075 -9.8585 -15.414 -12.3331 -11.909 -8.321501 -5.9205 -8.550501 -5.690001 -8.899 -7.309 -13.7858 -9.384001 
-8.848001 -7.927001 -6.6605 -10.2975 -10.396 -18.7145 -17.8316 -13.7826 -15.6425 -8.321501 -12.0112 -9.390501 -8.899 -10.2435 -16.1083 -13.7858 
-9.061501 -9.304001 -10.2975 -11.986 -19.252 -21.1321 -19.2811 -17.5161 -15.6425 -14.7256 -12.8512 -13.7797 -10.2435 -19.0428 -16.1083 
-1.4985 -4.869 -3.1385 -1.7565 -5.1845 -6.262 -2.4945 -10.4535 -3.1385 -2.925 -2.4945 -4.023 -1.7695 -4.792 
-5.8595 -9.438001 -4.861 -6.580501 -8.6805 -9.3825 -14.3762 -13.592 -5.268001 -3.7675 -5.4505 -4.5555 -5.504 
-10.298 -11.2935 -8.675501 -8.797001 -12.2422 -21.3316 -17.5147 -15.7215 -6.487 -6.9985 -5.876 -8.053 
-12.1535 -15.108 -11.7478 -12.5511 -24.1913 -24.4701 -19.6442 -16.9405 -10.2865 -7.596001 -9.7335 
-15.968 -18.1803 -15.5019 -24.5002 -27.3298 -26.5996 -20.8632 -20.74 -11.0828 -11.6761 
-4.628 -5.939 -3.1385 -1.756 -2.985 -3.8355 -3.9675 0 -3.9655 -4.0925 -2.4945 -3.383 -3.9615 0 -3.8665 -1.756 -3.699 -1.7695 -5.1845 -6.844 0 
-5.9615 -8.1955 -4.6325 -4.2025 -6.4935 -8.012001 -3.9675 -3.9655 -7.067 -6.398 -4.732 -6.1885 -3.9615 -3.8665 -5.409 -5.6115 -4.585 -7.4505 -6.9655 -6.844 
-8.314501 -9.5915 -6.0665 -7.709001 -11.211 -8.012001 -6.939 -7.067 -8.940001 -8.360001 -7.790501 -6.1885 -7.6525 -5.409 -8.408501 -7.121 -11.237 -9.384001 -6.9655 
-9.596001 -10.577 -10.038 -12.9899 -11.211 -11.6191 -11.2863 -8.940001 -10.75 -11.9313 -7.790501 -10.621 -9.3605 -8.408501 -9.087 -13.9048 -13.1705 -9.384001 
-10.587 -14.5485 -15.4261 -12.9899 -14.8181 -15.9664 -13.1593 -10.75 -14.3213 -11.9313 -12.7298 -12.329 -12.59 -9.087 -16.4618 -15.8383 -13.1705 
