-4.759 
n/a 
n/a 
n/a 
n/a 
-4.759 
n/a 
n/a 
n/a 
n/a 
-4.759 
n/a 
n/a 
n/a 
n/a 
-4.759 
n/a 
n/a 
n/a 
n/a 
-3.1495 -4.901 -4.866 -3.251 -2.664 -4.0045 -2.264 -3.5155 -4.559 -1.756 -3.982 -4.4175 
-8.4335 -10.4595 -8.6805 -5.003 -5.4675 -4.703001 -4.979 -7.6875 -5.633 -5.851 -9.986501 
-14.4118 -14.274 -10.389 -6.584001 -5.76 -7.1235 -9.863001 -7.725501 -7.3495 -12.4901 
-18.2263 -15.9825 -11.97 -6.7205 -8.0175 -12.2707 -10.0575 -9.0985 -14.1732 
-19.9348 -17.5635 -12.1065 -8.959001 -13.2919 -12.4652 -11.4363 -15.9602 
-1.4985 -3.8275 -4.4175 -4.174 -2.645 -4.153 -1.7695 -3.1495 -4.707 0 
-4.726 -8.427501 -9.179001 -6.5105 -6.4755 -5.5495 -4.7475 -6.940001 -4.707 
-9.299001 -13.3932 -11.7443 -10.1945 -7.381001 -8.8345 -8.406 -6.940001 
-14.4093 -15.9585 -15.4283 -11.1 -10.9718 -12.8104 -8.406 
-16.9746 -19.6425 -16.3338 -14.6908 -14.9477 -12.8104 
-2.0935 -2.3615 -4.221 -4.559 0 -3.982 -5.1575 -3.845 
-3.854 -6.219501 -9.0325 -4.559 -3.982 -9.275001 -9.614 
-7.2635 -11.6338 -9.0325 -7.03 -9.275001 -13.7363 
-12.9012 -11.6338 -11.9741 -13.4658 -13.7363 
-12.9012 -14.5754 -18.4099 -17.9271 
-1.4985 -3.709 -1.7565 -2.3615 -4.901 -4.221 -4.986 -1.4985 -3.2495 -3.959 -1.7565 -7.572001 -1.756 -3.982 
-4.5055 -4.365 -3.523 -6.868 -9.4765 -9.5305 -6.3615 -4.1915 -5.837 -5.473 -9.047 -9.505001 -5.851 
-4.6895 -6.413 -7.8475 -12.0173 -14.8834 -10.993 -9.517 -6.016 -8.1765 -14.1759 -10.61 -13.7024 
-6.591001 -10.1075 -13.1464 -17.4242 -16.3459 -14.1485 -11.3789 -8.522 -16.6942 -15.7389 -14.8074 
-10.4105 -15.5312 -18.5533 -18.8867 -19.5014 -16.0104 -13.8849 -17.0825 -18.2572 -19.9363 
