-4.759 
n/a 
n/a 
n/a 
n/a 
-4.759 
n/a 
n/a 
n/a 
n/a 
-4.759 
n/a 
n/a 
n/a 
n/a 
-4.759 
n/a 
n/a 
n/a 
n/a 
-2.925 -3.251 -4.518 -3.299 -3.518 -1.934 -3.6885 0 -4.245 0 -3.7865 -3.4765 -1.934 -1.4985 -5.1185 -3.436 -4.4805 0 
-4.617 -6.1035 -7.6635 -4.972 -5.322001 -5.8035 -3.6885 -4.245 -4.245 -3.7865 -8.054001 -4.9925 -2.6125 -6.1355 -6.9645 -6.991 -4.4805 
-7.1985 -9.081 -9.4385 -7.210501 -8.98 -5.8035 -6.3525 -4.245 -6.856 -8.054001 -9.151501 -5.4645 -7.507501 -8.2875 -8.221001 -6.991 
-10.0095 -11.0432 -10.689 -11.0963 -8.98 -8.253 -6.3525 -6.856 -12.3323 -9.151501 -9.883 -9.785501 -8.509501 -9.399 -8.221001 
-12.2837 -12.2937 -14.5748 -11.0963 -11.7915 -8.253 -8.926001 -12.3323 -13.4298 -9.883 -14.2744 -11.0153 -9.590001 -9.399 
-2.674 -3.7555 -1.8085 -3.93 -3.8685 -1.934 -3.6885 0 -4.798 -1.756 -3.594 -8.166 -4.4805 
-5.5365 -4.597 -4.836 -7.2165 -5.1635 -5.8035 -3.6885 -4.798 -6.155001 -5.3155 -12.7484 -13.1139 
-6.483 -8.030001 -7.443 -8.003501 -9.217501 -5.8035 -7.7985 -6.155001 -8.0015 -14.9917 -17.6963 
-9.374001 -10.3675 -8.161 -12.5413 -9.217501 -10.1265 -9.166 -8.0015 -18.4607 -19.9396 
-11.7957 -11.0855 -12.753 -12.5413 -13.8597 -11.494 -10.76 -18.4607 -23.4086 
-3.6885 0 -5.154 0 -3.594 -1.756 -3.3715 -3.6215 -2.186 -5.804 -4.153 -1.756 -5.5605 -1.4985 -4.53 0 
-3.6885 -5.154 -5.154 -3.594 -4.857 -4.6545 -7.8955 -5.5965 -7.434 -9.1025 -5.6875 -7.1855 -6.3875 -5.501 -4.53 
-8.262 -5.154 -8.764501 -4.857 -7.991 -9.069501 -10.4559 -11.492 -13.0285 -11.774 -9.969501 -8.0075 -9.5505 -5.501 
-8.262 -8.764501 -10.254 -7.991 -12.5568 -11.9315 -16.5348 -17.3794 -15.2495 -16.1292 -11.1345 -10.674 -9.5505 
-12.1613 -10.254 -13.5656 -12.5568 -15.4188 -18.0104 -22.2388 -19.4424 -19.6047 -17.2942 -13.801 -10.674 
-2.925 -2.674 -5.5605 -1.8085 -3.299 -4.2315 -1.934 -1.4985 -4.134 -1.7565 -3.6885 0 -4.245 -1.756 -3.594 -5.1185 -3.436 -4.4175 
-4.1785 -6.5235 -6.7525 -4.4725 -6.879001 -6.097 -2.6125 -5.181 -5.241 -5.4275 -3.6885 -4.245 -5.425 -5.3155 -9.363501 -6.9645 -8.216001 
-7.719 -7.3985 -7.858 -7.7845 -7.958 -6.678 -5.608 -5.6765 -8.527 -5.4275 -6.3525 -5.425 -7.035001 -11.6068 -10.758 -12.1675 
-8.5655 -8.242001 -9.9505 -8.458 -8.2925 -10.3171 -5.8435 -8.63 -8.527 -7.956 -7.0215 -7.035001 -13.7321 -13.0013 -15.961 
-9.992001 -10.7865 -10.4225 -8.778001 -11.96 -10.5526 -8.7425 -8.63 -9.748001 -8.2665 -9.281 -13.7321 -15.1266 -18.2043 
