-4.759 
n/a 
n/a 
n/a 
n/a 
-4.759 
n/a 
n/a 
n/a 
n/a 
-4.759 
n/a 
n/a 
n/a 
n/a 
-4.759 
n/a 
n/a 
n/a 
n/a 
-8.395 -2.8645 -5.392 -1.934 -3.091 -4.0905 -3.115 -8.7135 -8.7135 -9.982 -8.7135 -5.597 -12.16972 -12.16972 -12.16972 -1.756 -4.621 -4.7425 -1.4985 -10.4975 0 
-11.1415 -7.125 -6.5085 -4.2105 -6.545 -6.858001 -12.6041 -10.5535 -19.0575 -18.7535 -14.6725 -18.45432 -24.33944 -24.33944 -13.92572 -5.9695 -7.7775 -5.384501 -13.0898 -10.4975 
-15.402 -8.0675 -8.582001 -7.6565 -9.125501 -16.5421 -14.4441 -20.8975 -27.829 -24.7125 -27.52982 -30.62404 -36.50916 -26.09544 -18.13922 -9.3785 -8.8135 -18.0102 -13.0898 
-16.3445 -9.963501 -12.3032 -10.5225 -19.164 -18.3821 -24.7881 -29.669 -33.788 -37.56982 -39.69954 -42.79376 -38.26516 -30.30894 -21.54822 -10.052 -21.6566 -18.0102 
-18.2405 -13.8685 -15.1692 -20.6522 -21.004 -28.7261 -33.5596 -35.628 -46.64532 -49.73954 -51.86926 -44.54976 -42.47866 -33.71794 -22.22172 -22.8951 -21.6566 
-8.7135 -12.16972 -8.7135 -5.597 -12.16972 -12.16972 -12.16972 -3.6785 -8.066501 -9.775001 -10.312 -12.16972 -3.644 0 
-21.24522 -20.88322 -14.6725 -18.45432 -24.33944 -24.33944 -15.84822 -12.7078 -18.6185 -20.2146 -22.96252 -15.81372 -3.644 
-29.95872 -26.84222 -27.52982 -30.62404 -36.50916 -28.01794 -24.87752 -23.2598 -29.0581 -32.86512 -26.60652 -15.81372 
-35.91772 -39.69954 -39.69954 -42.79376 -40.18766 -37.04724 -35.42952 -33.6994 -41.70862 -36.50912 -26.60652 
-48.77504 -51.86926 -51.86926 -46.47226 -49.21696 -47.59924 -45.86912 -46.34992 -45.35262 -36.50912 
-8.395 -4.803 -2.5045 -4.6945 -4.8815 -4.8815 -2.0935 -1.4985 -3.5485 -4.335 -4.8815 
-13.9052 -6.986001 -8.197001 -9.464001 -7.4505 -6.187 -2.9725 -5.0185 -8.566 -10.985 
-16.0882 -13.3013 -13.5261 -12.3942 -8.731501 -6.8325 -6.3875 -10.4675 -15.2402 
-22.4035 -18.6304 -16.4563 -13.6752 -9.377501 -10.238 -12.1261 -17.1019 
-27.7326 -21.5606 -17.7373 -14.3212 -12.8386 -15.9922 -18.7605 
-7.211 -4.1585 -2.7455 -3.3825 -1.7565 -3.5485 -3.8475 -2.5045 0 -4.0165 0 -4.8855 -1.7565 -4.335 0 -4.0165 -2.5235 -4.36 -3.8725 0 
-11.9511 -6.271 -6.6525 -4.3095 -4.837 -7.8345 -5.9415 -2.5045 -4.0165 -4.0165 -4.8855 -6.218501 -5.117 -4.335 -4.0165 -6.5655 -6.7865 -8.734 -3.8725 
-14.0636 -10.4945 -7.9395 -7.416 -9.174001 -10.3165 -5.9415 -7.9475 -4.0165 -8.5765 -6.218501 -9.186001 -5.117 -10.075 -6.5655 -10.7335 -11.9299 -8.734 
-18.2871 -11.7815 -11.1294 -12.1964 -11.8952 -10.3165 -12.0761 -7.9475 -8.5765 -10.1539 -9.186001 -9.186001 -11.4162 -12.7212 -10.7335 -15.8769 -11.9299 
-19.5741 -14.9714 -15.9098 -14.9176 -11.8952 -16.7407 -12.0761 -12.3655 -10.1539 -13.1214 -9.186001 -15.787 -14.0624 -16.8892 -15.8769 -15.8769 
