-4.759 
n/a 
n/a 
n/a 
n/a 
-4.759 
n/a 
n/a 
n/a 
n/a 
-4.759 
n/a 
n/a 
n/a 
n/a 
-4.759 
n/a 
n/a 
n/a 
n/a 
-1.4985 -4.99 -1.756 -3.826 -3.9725 -1.7565 -4.6845 -2.7415 -7.228 -7.1905 -2.5045 -1.4985 -4.2245 -1.7565 -7.228 -7.7435 -1.756 -1.4985 -9.662001 -1.7565 -7.403 -7.0385 0 -7.1905 -2.7415 -1.7565 -6.5425 -4.2705 
-5.446 -6.469501 -5.495501 -8.433001 -4.9685 -5.661 -6.8715 -10.168 -8.3265 -10.2185 -3.583 -5.219 -4.942 -8.838 -8.5115 -9.0455 -3.0405 -10.0515 -10.573 -8.5965 -8.0885 -7.0385 -7.1905 -9.4995 -5.591001 -7.835001 -10.348 
-6.87 -7.547501 -9.748501 -9.1595 -7.8875 -7.6375 -10.66 -10.4415 -10.564 -10.7655 -6.819 -5.361001 -9.584001 -9.4055 -9.762501 -10.007 -8.887 -8.9715 -13.206 -9.045501 -8.0885 -15.032 -9.4995 -12.6288 -10.204 -10.361 
-7.6845 -10.647 -10.121 -10.761 -9.4525 -10.6595 -10.696 -12.679 -10.778 -14.0015 -6.885 -10.3605 -10.599 -10.4865 -10.7525 -15.524 -9.4835 -12.639 -11.508 -9.045501 -16.2306 -17.341 -12.6288 -17.2418 -13.1196 
-10.6465 -10.7795 -11.5225 -12.326 -10.661 -10.6955 -12.9335 -12.893 -14.014 -14.0675 -12.3345 -10.7705 -11.68 -11.4765 -16.504 -15.94 -12.292 -11.2945 -10.85 -17.3768 -18.5396 -20.4703 -17.2418 -20.1574 
-2.5685 -4.415 -1.7565 -7.680501 -3.8405 -4.3195 -1.4985 -5.6515 -3.8685 -1.7565 -6.864 -3.8405 
-5.2035 -5.674001 -9.051001 -9.217001 -8.172 -5.1515 -6.472 -10.341 -4.9575 -8.661 -8.532001 
-7.538 -14.0361 -10.8283 -13.6627 -9.015 -9.726 -11.9875 -11.43 -12.4454 -10.2645 
-16.4001 -15.8134 -15.274 -14.5057 -13.6235 -15.6591 -13.0765 -18.9179 -14.0489 
-18.1774 -20.2591 -16.117 -19.1142 -19.5566 -16.7481 -20.5644 -20.5214 
-2.0935 -3.1495 -4.957 0 -7.4885 -3.8405 -2.7415 -3.264 -2.5045 -1.4985 -4.1925 -3.518 -1.7565 -1.4985 -4.2905 -2.9705 -3.9535 -2.264 -10.201 -3.8405 0 
-4.7405 -7.095 -4.957 -7.4885 -11.9562 -6.0775 -5.7545 -5.7165 -3.583 -4.4615 -5.4725 -4.302 -2.4195 -6.013 -6.814 -6.277 -5.513 -13.497 -14.0415 -3.8405 
-8.731501 -7.095 -13.4473 -11.9562 -14.1932 -9.757 -8.164001 -6.812 -6.649 -5.6575 -5.657 -5.435 -6.9195 -8.4645 -10.281 -7.5135 -17.3654 -17.3375 -14.0415 
-8.731501 -16.1611 -17.915 -14.1932 -17.8727 -13.0147 -9.342501 -10.322 -7.9395 -5.836 -7.318501 -10.4765 -9.087501 -11.8885 -11.5585 -20.2583 -21.2059 -17.3375 
-17.8446 -20.6288 -20.152 -17.8727 -21.1304 -14.1932 -12.8861 -11.6125 -8.159 -7.420001 -12.835 -12.6445 -12.5997 -13.166 -24.3033 -24.0988 -21.2059 
-1.934 -2.5685 -2.3615 -3.6215 -1.4985 -3.991 -3.9535 -2.3345 -7.680501 -4.644 -4.518 -4.4915 -4.53 -1.934 -6.864 -3.8405 
-4.244 -4.833 -6.204 -5.6115 -5.382501 -8.877001 -5.226501 -9.389 -10.6605 -9.8245 -8.81 -8.540001 -6.089 -9.2825 -8.532001 
-6.277501 -9.9205 -7.853 -9.878501 -10.396 -9.866 -12.1592 -13.015 -15.841 -14.1391 -13.4381 -10.139 -14.0339 -11.1387 
-11.6128 -11.6005 -12.1784 -14.9196 -11.385 -16.7987 -15.7852 -18.1955 -20.1556 -18.7672 -15.0371 -18.1503 -15.8901 
-13.2928 -15.9259 -17.2195 -15.9086 -18.3177 -20.4247 -20.9657 -22.5101 -24.7837 -20.3662 -23.0484 -20.0065 
