-4.759 
n/a 
n/a 
n/a 
n/a 
-4.759 
n/a 
n/a 
n/a 
n/a 
-4.759 
n/a 
n/a 
n/a 
n/a 
-4.759 
n/a 
n/a 
n/a 
n/a 
-2.3615 -2.186 -4.1205 -2.5045 -1.4985 -3.17 -4.6225 -4.0395 -3.9225 -2.5685 -2.8965 -4.0805 -4.456 
-3.5005 -5.007 -5.3175 -3.583 -3.7115 -7.47 -7.6625 -7.5435 -5.686 -4.555 -5.6885 -8.755 
-6.6045 -6.317 -6.431 -5.5895 -7.6405 -10.688 -11.6737 -9.205001 -7.6655 -7.9005 -10.76 
-8.0045 -7.1455 -7.572 -9.404501 -10.702 -14.6992 -13.3352 -11.2979 -10.194 -13.2852 
-8.887 -8.120501 -11.5448 -12.6122 -14.7132 -16.3607 -15.4281 -13.8264 -16.2625 
-3.929 -3.0365 -2.186 -2.847 -4.0205 -5.352 -4.126 -1.934 -1.4985 -6.144 0 -3.034 -4.2815 -1.7695 -2.8965 -4.248 -4.563 -4.0805 0 -1.8085 -3.3235 -5.541 -5.352 -4.126 -2.186 -3.962 -1.934 -6.144 0 
-5.627 -3.66 -4.1045 -6.7705 -8.977501 -10.2135 -5.647 -2.6125 -6.455 -6.144 -3.034 -5.568 -4.4915 -4.497 -7.8635 -7.81 -8.404 -4.0805 -1.8085 -4.9145 -8.481501 -10.647 -10.2135 -5.985001 -5.363 -4.8165 -8.226501 -6.144 
-6.2205 -4.256001 -7.48 -12.2129 -13.9826 -12.0765 -6.1415 -8.239 -6.455 -9.006001 -5.568 -5.7335 -5.791 -9.652501 -10.459 -10.025 -8.404 -6.478 -4.9145 -8.946001 -13.6707 -15.5085 -12.4145 -9.168501 -6.1475 -11.589 -8.226501 
-6.805 -7.4875 -13.3456 -17.218 -15.8456 -12.571 -12.1692 -8.239 -9.106 -11.7992 -5.7335 -6.8195 -11.1307 -12.3708 -12.674 -10.025 -11.0693 -9.333 -8.946001 -14.2914 -18.5322 -17.7095 -15.598 -9.777 -13.309 -11.589 
-9.869 -13.3651 -18.3507 -19.081 -16.3401 -18.5987 -12.1692 -11.1194 -11.9092 -11.9647 -6.8195 -12.3142 -13.849 -14.5858 -12.674 -12.9331 -13.9243 -13.3999 -14.2914 -19.1529 -20.7332 -20.893 -16.2065 -17.1381 -13.309 
-2.925 -3.5745 -5.651501 -2.674 -3.8755 -4.8685 -4.9075 0 -3.5725 -2.925 -2.4945 -4.1205 -2.5045 -3.2825 -3.034 -4.913 -1.7695 -2.8965 -4.248 -4.2995 -4.0805 
-4.941 -9.1155 -6.316 -5.391 -8.903 -10.254 -4.9075 -3.5725 -6.486 -3.7675 -5.191 -5.3175 -5.814 -6.017 -6.1455 -6.391 -4.497 -7.8635 -7.1785 -7.731 
-8.873 -10.533 -12.0005 -10.2755 -14.5605 -10.254 -9.040501 -6.486 -7.344 -6.5305 -6.498 -8.528 -9.558001 -9.496 -7.7345 -7.8025 -9.652501 -10.2085 -9.7185 
-10.0815 -12.7895 -17.0266 -15.933 -14.5605 -14.614 -12.0732 -7.344 -9.786 -7.739501 -9.462001 -12.6452 -13.2854 -10.435 -8.804001 -13.1436 -12.1203 -12.8983 
-14.159 -18.2196 -22.6841 -15.933 -18.9205 -17.6467 -12.9312 -9.786 -10.5155 -10.66 -13.4914 -16.3726 -14.2244 -11.5045 -14.2057 -15.6114 -14.8101 
-3.929 -1.4985 -4.0205 -3.519 -1.7565 -4.7925 -1.934 -1.4985 -3.6445 -1.7565 -4.9075 -2.186 -2.6165 -3.557 -1.934 -4.891 0 -2.4265 -4.114 -3.644 -3.034 -4.2815 -2.356 -2.8965 -3.711 0 
-4.8985 -5.418 -7.5325 -4.6225 -6.466001 -6.7395 -2.6125 -4.4795 -4.775001 -8.1575 -7.437 -3.5105 -4.855 -4.4175 -7.7135 -4.891 -2.4265 -4.5725 -7.091001 -6.0035 -5.568 -4.868001 -4.4085 -5.5825 -3.711 
-8.8175 -8.7165 -8.528 -10.1084 -8.345501 -7.6875 -4.8345 -5.062 -12.0194 -10.1675 -9.182501 -5.974501 -5.873 -10.543 -7.7135 -7.955 -4.5725 -7.666 -9.246501 -8.324 -6.111001 -6.369 -6.842 -5.5825 
-12.2 -9.002 -14.2145 -11.9879 -9.095501 -9.788 -5.2075 -12.5584 -14.0294 -11.913 -11.6709 -6.7095 -12.5985 -10.543 -11.4385 -9.901001 -7.666 -10.15 -11.645 -8.909 -7.282001 -8.4305 -6.842 
-12.4855 -14.8797 -16.094 -12.7379 -11.2566 -9.923 -12.8159 -14.5684 -15.7749 -14.4014 -12.4059 -13.9848 -12.5985 -14.268 -13.3845 -12.9931 -10.15 -12.5485 -12.23 -10.131 -9.429501 -8.4305 
