-4.759 
n/a 
n/a 
n/a 
n/a 
-4.759 
n/a 
n/a 
n/a 
n/a 
-4.759 
n/a 
n/a 
n/a 
n/a 
-4.759 
n/a 
n/a 
n/a 
n/a 
-1.934 -3.986 -2.229 -3.6885 -3.3975 -6.6205 0 -6.799 0 -3.582 -4.3665 -1.756 -4.1125 -2.4945 -3.0365 0 
-6.353 -4.8235 -6.054 -6.2765 -10.6605 -6.6205 -6.799 -6.799 -3.582 -6.8505 -5.698501 -5.8835 -6.703 -4.952001 -3.0365 
-6.6155 -8.76 -8.474501 -14.3329 -10.6605 -10.7175 -6.799 -11.1848 -6.8505 -8.145 -8.283001 -8.033 -9.224001 -4.952001 
-11.1508 -11.8595 -16.7585 -14.3329 -14.7575 -10.7175 -11.1848 -14.4533 -8.145 -10.8973 -9.775001 -10.757 -9.224001 
-14.2503 -20.1435 -16.7585 -18.4299 -14.7575 -15.1033 -14.4533 -15.7478 -10.8973 -12.3893 -12.499 -10.757 
-6.079 -3.3975 -2.674 -6.6205 0 -6.799 0 -3.582 -4.3665 -1.756 -4.1125 
-9.427 -6.278501 -9.3065 -6.6205 -6.799 -6.799 -3.582 -6.8505 -5.698501 -5.8835 
-12.371 -13.3444 -9.3065 -10.7175 -6.799 -11.1848 -6.8505 -8.145 -8.283001 
-19.4369 -13.3444 -13.9361 -10.7175 -11.1848 -14.4533 -8.145 -10.8973 
-19.4369 -17.974 -13.9361 -15.1033 -14.4533 -15.7478 -10.8973 
-3.986 -2.229 -4.5515 -3.3975 -4.399 -3.7965 -6.6205 0 -6.799 0 -3.582 -4.3665 -1.756 -4.1125 0 
-4.8235 -6.418 -8.038501 -7.811001 -8.43 -11.08 -6.6205 -6.799 -6.799 -3.582 -6.8505 -5.698501 -5.8835 -4.1125 
-8.8985 -9.1875 -13.2012 -12.0784 -16.0659 -11.08 -10.7175 -6.799 -11.1848 -6.8505 -8.145 -8.283001 -5.8835 
-12.0294 -15.2684 -17.4686 -19.7143 -16.0659 -15.177 -10.7175 -11.1848 -14.4533 -8.145 -10.8973 -8.283001 
-18.1103 -19.5358 -25.1045 -19.7143 -20.1629 -15.177 -15.1033 -14.4533 -15.7478 -10.8973 -10.8973 
-3.582 -4.3665 -4.1125 
-6.8505 -7.8655 
-10.4035 
n/a 
n/a 
