-4.759 
n/a 
n/a 
n/a 
n/a 
-4.759 
n/a 
n/a 
n/a 
n/a 
-4.759 
n/a 
n/a 
n/a 
n/a 
-4.759 
n/a 
n/a 
n/a 
n/a 
-2.5045 -4.193 -2.925 -3.535 -3.535 -4.299 -2.264 -4.628 -4.743 -4.0085 -3.6215 -1.756 -4.622 -4.9725 
-6.237 -7.088 -8.155001 -6.4245 -8.444 -5.322001 -7.132 -4.7515 -8.2075 -5.2395 -5.3685 -6.212 -10.8537 
-10.1855 -12.5628 -11.3427 -11.9459 -9.677 -8.394 -7.383 -8.214001 -9.9325 -6.576 -10.575 -12.7831 
-15.6603 -15.7505 -16.8641 -13.1789 -12.757 -8.811 -10.757 -9.932501 -11.269 -12.0939 -17.1461 
-18.848 -21.2719 -18.0971 -16.2589 -13.174 -12.8578 -12.4755 -11.269 -16.7869 -18.665 
-4.819 0 -1.4985 -5.3745 -4.891 -4.692 -1.4985 -5.939 -4.0085 -1.756 -3.352 -4.9725 -2.0935 -4.6745 -2.9905 -7.9705 -4.5115 
-4.819 -1.4985 -6.2355 -7.061501 -10.2595 -6.645 -8.136001 -8.3485 -5.39 -4.7135 -6.8455 -7.191501 -5.8985 -5.341 -12.0366 -10.6885 
-6.1615 -6.2355 -7.2945 -13.8222 -12.3725 -13.5307 -10.8377 -9.6245 -7.453001 -7.6825 -8.800501 -11.4497 -6.183 -15.2195 -14.7546 
-11.0843 -7.2945 -14.5884 -15.9352 -19.2582 -16.2324 -12.1137 -11.8813 -9.748501 -9.3315 -13.2233 -11.7342 -16.2397 -17.9375 
-12.1433 -14.5884 -16.7014 -22.8209 -21.9599 -17.5084 -14.3705 -14.1768 -11.4643 -14.1277 -13.5078 -21.7909 -18.9577 
-2.5045 -1.4985 -4.193 0 -2.925 -3.152 -4.904 -3.535 -4.5115 -2.264 -4.628 -5.939 -3.5435 -4.6485 -3.115 -1.4985 -4.628 -5.939 -4.0085 -1.756 -3.352 -4.9725 0 
-3.1915 -4.594501 -4.193 -2.925 -4.203 -7.901501 -8.670501 -8.468 -5.4995 -7.132 -5.9615 -7.053 -7.2155 -7.5495 -4.2305 -6.298 -5.9615 -8.3485 -5.39 -4.7135 -6.8455 -4.9725 
-5.0525 -4.594501 -7.088 -4.203 -9.128501 -12.2692 -13.7831 -9.5005 -9.1695 -8.006001 -7.0565 -11.3676 -10.66 -8.43 -9.165501 -6.5895 -8.352 -9.6245 -7.453001 -7.6825 -6.8455 
-5.0525 -7.182 -7.960001 -9.128501 -13.7604 -17.3818 -14.8156 -13.1983 -9.370501 -9.523001 -11.3733 -14.8121 -11.5405 -13.4848 -9.603001 -8.7145 -9.6265 -11.8813 -9.748501 -7.6825 
-7.8485 -8.0205 -13.0685 -13.7604 -18.873 -18.4143 -18.5134 -13.3993 -11.2503 -14.1522 -14.8178 -15.6926 -16.5953 -13.9223 -11.7702 -9.8985 -11.8831 -14.1768 -9.748501 
-1.756 -3.152 -4.3105 -1.934 -3.9745 -3.7015 -4.628 -5.939 -3.5435 
-5.002501 -7.1885 -5.853 -5.2945 -7.718 -7.4895 -5.9615 -7.053 
-9.805 -8.536 -7.944 -9.238001 -11.9886 -8.748 -7.0565 
-10.378 -9.008 -12.1537 -13.6464 -13.2471 -9.8195 
-10.4915 -13.2987 -16.5621 -14.9049 -14.3186 
