-4.759 
n/a 
n/a 
n/a 
n/a 
-4.759 
n/a 
n/a 
n/a 
n/a 
-4.759 
n/a 
n/a 
n/a 
n/a 
-4.759 
n/a 
n/a 
n/a 
n/a 
-3.882 -2.9805 -4.3195 -4.156 -1.7565 0 -12.16972 0 -1.756 -3.1435 -5.196 -3.852 0 -9.1125 0 0 
-5.755 -5.4865 -7.112 -5.161 -1.7565 -12.16972 -12.16972 -1.756 -4.1365 -7.974501 -10.089 -3.852 -9.1125 -9.1125 0 
-7.354001 -7.6545 -7.738 -5.161 -14.87542 -12.16972 -13.92572 -4.1365 -8.41 -13.2451 -10.089 -14.0449 -9.1125 -9.1125 
-9.328501 -8.229 -7.738 -19.34692 -14.87542 -13.92572 -16.30622 -8.41 -14.0096 -13.2451 -20.4035 -14.0449 -9.1125 
-9.7235 -8.229 -22.23192 -19.34692 -16.63142 -16.30622 -20.57972 -14.0096 -14.0096 -23.5596 -20.4035 -14.0449 
-3.321 -2.9805 -4.3195 -1.4985 -3.925 -1.934 -4.156 -1.7565 -4.712 -3.852 -1.756 -3.1435 -3.9675 -3.852 0 
-5.175 -5.4865 -5.1515 -4.6825 -5.362 -5.274 -5.161 -5.672 -9.513 -5.4725 -4.1365 -8.690001 -7.8745 -3.852 
-7.614 -6.313 -7.89 -6.367001 -5.4455 -6.043 -10.6215 -10.66 -11.3045 -7.524 -9.83 -12.865 -7.8745 
-8.6 -8.2165 -8.307 -6.566 -6.203 -11.8393 -15.6095 -12.4515 -13.356 -13.8571 -14.1 -12.865 
-10.5339 -8.399501 -8.327 -6.887001 -12.0229 -16.8273 -17.401 -14.503 -19.6891 -18.1271 -14.1 
-3.321 -2.9805 -4.3195 -2.5045 -4.3625 -1.934 -5.3745 0 -10.536 0 -1.756 -2.186 -4.5445 -4.5005 -4.378 -4.6605 0 -10.1695 0 
-5.175 -5.4865 -6.9885 -6.9685 -6.201 -7.853 -5.3745 -10.536 -10.536 -1.756 -3.986 -7.637 -8.112 -9.951 -9.797501 -4.6605 -10.1695 -10.1695 
-7.614 -8.146501 -11.8209 -8.262501 -12.775 -7.853 -16.9771 -10.536 -12.292 -3.986 -9.209 -10.096 -13.8369 -15.4879 -9.797501 -16.0194 -10.1695 
-10.0475 -13.2171 -13.1149 -15.7209 -12.775 -19.7122 -16.9771 -12.292 -14.522 -9.209 -11.9658 -16.3229 -19.3738 -15.4879 -21.357 -16.0194 
-15.2491 -14.5111 -20.5733 -15.7209 -24.6342 -19.7122 -18.7331 -14.522 -19.745 -11.9658 -18.1927 -21.8598 -19.3738 -27.0474 -21.357 
-3.321 -2.9805 -4.254 -2.5045 -2.664 -3.925 -2.0935 -1.4985 -4.578 -4.281 -8.3915 -1.756 -2.4265 -2.229 -7.7945 -4.281 -10.1695 0 
-5.175 -5.5985 -5.522 -4.074 -5.364 -5.648 -2.9725 -6.117001 -9.219 -12.9891 -10.718 -3.949 -3.3415 -10.963 -12.49 -14.7671 -10.1695 
-8.037001 -6.3975 -6.372 -6.736001 -6.962 -6.367 -7.828501 -9.816 -18.1583 -15.3156 -12.911 -4.6695 -13.5466 -15.8309 -23.3739 -14.7671 
-8.705001 -7.2 -7.7685 -7.6635 -7.617 -10.3035 -11.7595 -18.9083 -20.4848 -17.5086 -13.6315 -14.9183 -18.2241 -26.487 -23.3739 
-9.673 -8.7045 -8.432 -8.2235 -11.7165 -14.2345 -20.8518 -21.2348 -22.6778 -18.2291 -23.9801 -19.3254 -28.8802 -26.487 
