-4.759 
n/a 
n/a 
n/a 
n/a 
-4.759 
n/a 
n/a 
n/a 
n/a 
-4.759 
n/a 
n/a 
n/a 
n/a 
-4.759 
n/a 
n/a 
n/a 
n/a 
-5.154 -2.186 -2.6165 -4.01 -3.0695 -4.658 -4.9405 
-7.061501 -3.5105 -6.561 -4.9195 -6.259 -8.133 
-8.4595 -7.443501 -7.1495 -7.7175 -9.073 
-12.6069 -7.931 -9.3055 -10.553 
-13.0944 -10.5635 -12.6298 
-2.871 -3.0695 -4.658 -4.6065 -2.186 -2.6165 -5.154 0 
-5.059 -6.259 -7.697 -6.5125 -3.5105 -9.031501 -5.154 
-7.9265 -8.611501 -9.637 -7.738 -10.1305 -9.031501 
-10.194 -10.389 -10.6235 -14.8328 -10.1305 
-11.9715 -11.3755 -17.7183 -14.8328 
-6.707 -12.16972 -12.16972 
-19.71032 -24.33944 
-31.88004 
n/a 
n/a 
-2.5685 -5.029 -4.5355 -2.4945 -2.6165 -5.3255 
-8.922001 -9.258 -6.31 -3.8065 -8.633 
-13.2934 -11.1709 -7.6565 -9.0015 
-15.2063 -12.5174 -13.2605 
-16.5528 -18.1214 
