-4.759 
n/a 
n/a 
n/a 
n/a 
-4.759 
n/a 
n/a 
n/a 
n/a 
-4.759 
n/a 
n/a 
n/a 
n/a 
-4.759 
n/a 
n/a 
n/a 
n/a 
-1.4985 -5.2815 -4.641 -3.893 -1.4985 -4.238 -1.756 -1.4985 -5.476 -1.7565 -1.4985 -3.599 0 
-6.734 -9.536501 -5.812 -4.573 -5.068501 -5.613 -3.0405 -6.118 -6.278 -2.4195 -4.6155 -3.599 
-10.733 -10.735 -6.193 -7.857 -6.2635 -6.715501 -7.3655 -6.43 -6.7575 -5.663001 -4.6155 
-11.9315 -11.116 -9.745001 -8.870501 -6.9195 -10.031 -7.559 -6.869 -9.134001 -5.663001 
-12.3125 -14.668 -10.9265 -10.1595 -10.1465 -10.309 -8.021 -9.245501 -9.134001 
-4.4545 -4.641 -2.264 -4.6985 -4.359 0 -1.756 -4.285 -4.35 -4.237 -3.6615 -1.7565 -2.3335 -3.892 0 
-9.402 -4.7885 -7.3325 -9.2475 -4.359 -1.756 -5.81 -6.4325 -8.194 -8.3095 -5.606 -4.314 -6.2355 -3.892 
-9.573501 -10.199 -12.6023 -9.2475 -5.799 -5.81 -8.071001 -10.028 -12.8869 -9.8675 -8.552501 -7.2045 -6.2355 
-15.0304 -15.4688 -12.6023 -10.5865 -10.316 -8.071001 -12.1069 -15.1825 -14.4449 -13.1168 -11.7668 -7.2045 
-20.3002 -15.4688 -13.9413 -15.1035 -12.577 -12.1069 -17.2614 -16.7405 -17.6942 -16.3311 -11.7668 
-3.402 -2.264 -1.4985 -5.014 -4.9375 0 -3.7345 -4.0395 -1.756 -5.473 -3.6615 0 -4.4545 -2.742 -3.6955 -3.539 -1.934 -1.8085 -3.5015 0 
-3.793 -2.9195 -6.18 -9.445001 -4.9375 -3.7345 -7.487 -5.047 -6.793 -6.1595 -3.6615 -4.4545 -6.939 -5.043 -5.559 -5.0485 -3.2685 -4.642 -3.5015 
-4.34 -7.662001 -10.702 -9.445001 -8.791 -7.487 -8.5325 -9.8205 -7.968 -6.1595 -9.139501 -6.939 -8.236 -6.8075 -7.016 -6.22 -5.982 -4.642 
-9.043501 -12.4624 -10.702 -13.7189 -12.6973 -8.5325 -13.6224 -11.1963 -7.968 -12.7215 -11.828 -8.236 -9.93 -8.221001 -8.3065 -8.726001 -5.982 
-14.0521 -12.4624 -14.9759 -17.6252 -13.7428 -13.6224 -14.9982 -11.1963 -15.027 -15.41 -13.125 -9.93 -11.3435 -9.386001 -10.717 -8.726001 
-5.014 -4.9175 0 -5.847 -3.598 -1.756 -4.2485 -4.461 -4.221 -1.4985 -3.784 -5.015 -2.3335 -4.359 -1.934 -3.345 -3.892 0 
-7.0865 -4.9175 -5.847 -7.969501 -4.8655 -5.8005 -7.1105 -8.7475 -4.7485 -4.6165 -6.9835 -7.511001 -6.341001 -5.8145 -4.618 -6.151 -3.892 
-7.0865 -10.204 -7.969501 -9.217501 -9.878 -7.9735 -10.411 -9.292001 -7.3675 -8.282001 -9.779501 -8.342 -7.4905 -8.938001 -6.6455 -6.151 
-10.6095 -10.617 -9.217501 -10.61 -10.6125 -10.5975 -10.5555 -10.5985 -10.3745 -10.4675 -10.526 -9.2115 -9.6785 -10.533 -6.6455 
-10.6295 -10.637 -10.61 -10.63 -10.6325 -10.629 -10.639 -10.63 -10.621 -10.624 -10.6055 -10.5435 -10.588 -10.533 
