-4.759 
n/a 
n/a 
n/a 
n/a 
-4.759 
n/a 
n/a 
n/a 
n/a 
-4.759 
n/a 
n/a 
n/a 
n/a 
-4.759 
n/a 
n/a 
n/a 
n/a 
-7.969 -1.7565 -4.4385 0 -10.6015 0 
-10.4105 -6.204 -4.4385 -10.6015 -10.6015 
-13.3635 -6.204 -15.9896 -10.6015 
-13.4839 -18.1263 -15.9896 
-25.7536 -18.1263 
-4.5065 0 -3.6965 -2.742 -3.4625 
-4.5065 -3.6965 -6.331 -5.367001 
-9.109001 -6.331 -8.913 
-12.0063 -8.913 
-14.5883 
-16.67622 -12.16972 0 -4.094 0 
-29.23054 -12.16972 -4.094 -4.094 
-29.23054 -16.26372 -4.094 
-33.32454 -16.26372 
-33.32454 
-4.7275 0 -10.3565 -10.9935 0 -3.783 0 
-4.7275 -10.3565 -22.0032 -10.9935 -3.783 -3.783 
-15.4582 -22.0032 -22.0032 -14.7765 -3.783 
-27.1049 -22.0032 -25.7862 -14.7765 
-27.1049 -25.7862 -25.7862 
