-4.759 
n/a 
n/a 
n/a 
n/a 
-4.759 
n/a 
n/a 
n/a 
n/a 
-4.759 
n/a 
n/a 
n/a 
n/a 
-4.759 
n/a 
n/a 
n/a 
n/a 
-5.438 -8.862 0 -5.3085 -2.8645 -3.2345 -5.202 -2.0935 -3.1385 
-14.994 -8.862 -5.3085 -7.7515 -7.861 -8.336 -7.237 -4.6835 
-14.994 -14.6875 -7.7515 -13.1402 -13.1357 -11.2132 -10.0255 
-20.8195 -17.1305 -13.1402 -18.4149 -16.0129 -14.0017 
-23.2625 -22.5192 -18.4149 -21.2921 -18.8014 
-1.4985 -6.844 -4.866 0 -5.3085 0 -4.6385 -4.532 -1.4985 -3.974 -1.7565 -5.202 -1.7695 -1.4985 -8.27 
-8.304001 -9.479501 -4.866 -5.3085 -5.3085 -4.6385 -9.708 -5.873 -4.772 -4.613 -6.0185 -7.5005 -2.7955 -9.271501 
-10.0405 -9.479501 -11.4479 -5.3085 -10.4945 -9.708 -11.1904 -9.142 -4.923 -8.1385 -8.0155 -8.4925 -10.564 
-10.0405 -16.1378 -11.4479 -10.4945 -15.564 -11.1904 -14.4594 -9.265 -8.347501 -10.4105 -9.043 -16.465 
-16.6988 -16.1378 -16.6339 -15.564 -17.0464 -14.4594 -14.5824 -12.7221 -10.7495 -11.438 -17.0659 
-19.01372 0 -5.3085 -2.4945 -4.394 -4.0645 -1.4985 -4.9225 
-19.95232 -5.3085 -8.102 -5.713 -6.795 -5.750501 -6.040501 
-25.26082 -8.102 -11.5337 -7.965 -8.1155 -10.6161 
-28.05432 -11.5337 -13.7857 -9.199 -13.1261 
-31.48602 -13.7857 -15.0197 -14.311 
-6.262 -4.3685 0 -4.6385 0 -5.3085 -3.843 -3.43 -3.1385 -4.0585 -1.4985 -5.202 0 
-11.3529 -4.3685 -4.6385 -4.6385 -5.3085 -8.827001 -7.3875 -6.8055 -6.320001 -4.7185 -6.479 -5.202 
-11.3529 -10.1322 -4.6385 -10.249 -8.827001 -12.5305 -10.674 -9.394 -6.9905 -9.632001 -6.479 
-17.1166 -10.1322 -10.249 -13.7675 -12.5305 -15.817 -13.2625 -10.234 -12.2166 -9.632001 
-17.1166 -15.7427 -13.7675 -17.471 -15.817 -18.4055 -14.1025 -15.4601 -12.2166 
