-4.759 
n/a 
n/a 
n/a 
n/a 
-4.759 
n/a 
n/a 
n/a 
n/a 
-4.759 
n/a 
n/a 
n/a 
n/a 
-4.759 
n/a 
n/a 
n/a 
n/a 
-5.1845 -4.2945 -2.5045 -1.4985 -5.1845 -3.6885 
-9.0695 -6.285501 -3.583 -6.5205 -7.323501 
-11.2335 -7.407001 -8.4475 -8.096001 
-12.355 -12.5359 -10.6345 
-17.4839 -14.7229 
-1.4985 -4.435 -1.7565 -1.4985 -5.1845 -4.269 -2.186 -3.402 -2.264 -1.4985 -5.1845 -3.6885 
-5.442 -5.090001 -2.4195 -6.5205 -9.341001 -6.675 -4.6135 -3.793 -2.9195 -6.5205 -7.323501 
-5.6825 -5.7805 -7.2335 -11.3924 -11.962 -9.044001 -4.731 -4.34 -8.2795 -8.096001 
-6.401 -11.1939 -12.2726 -14.0134 -14.331 -9.1615 -5.172 -9.768001 -9.812 
-11.8514 -16.233 -14.8936 -16.3824 -14.4485 -9.705501 -10.3885 -11.3333 
-5.1845 -4.2635 -2.186 -1.4985 -3.9005 -1.7565 -5.1845 
-11.0145 -7.717501 -3.339 -4.797 -6.763 -6.580501 
-14.4685 -8.580001 -6.4005 -7.573501 -11.9892 
-15.331 -11.6677 -8.785501 -12.9613 
-18.4187 -14.0527 -14.3223 
-5.1845 -3.1385 -4.2635 -3.9005 -2.664 -5.1845 -4.2915 0 
-7.4095 -7.226 -7.573 -7.910501 -9.6245 -8.646 -4.2915 
-11.8734 -10.9359 -12.032 -15.2422 -13.1638 -8.646 
-15.5833 -15.3949 -19.3637 -18.7815 -13.1638 
-20.0423 -22.7266 -22.903 -18.7815 
