-4.759 
n/a 
n/a 
n/a 
n/a 
-4.759 
n/a 
n/a 
n/a 
n/a 
-4.759 
n/a 
n/a 
n/a 
n/a 
-4.759 
n/a 
n/a 
n/a 
n/a 
-3.0415 -2.3335 -1.4985 -3.452 -2.7455 -1.4985 -3.8315 -2.186 -6.0755 -5.9885 0 
-4.132 -3.3515 -4.4485 -5.6515 -3.637 -5.577001 -5.974 -8.903001 -6.37 -5.9885 
-4.91 -6.384501 -6.813 -6.3325 -7.344 -7.323501 -13.3138 -9.325001 -6.37 
-8.248501 -9.361 -7.1535 -9.5885 -9.9945 -14.9233 -13.7358 -9.325001 
-11.4318 -10.3105 -11.1241 -12.7232 -17.5943 -15.3453 -13.7358 
-4.122 -1.4985 -3.452 -5.242 -1.7695 -3.8315 -2.186 -3.849 -8.940001 
-5.0755 -4.4485 -8.533501 -5.2555 -6.101501 -5.974 -4.8565 -12.9496 
-8.433001 -8.841001 -8.5385 -8.488 -8.245501 -8.9545 -14.2381 
-13.2167 -8.8415 -12.1586 -10.5855 -11.3076 -18.5443 
-13.2172 -13.0668 -14.2561 -13.6476 -20.8974 
0 -6.6335 0 -2.186 -4.281 -3.0415 0 -2.9705 -2.186 -1.4985 -3.452 -2.9705 -4.8845 -1.7565 0 -6.0755 0 
-6.6335 -6.6335 -2.186 -5.650001 -7.5015 -3.0415 -2.9705 -3.89 -3.339 -4.4485 -6.0455 -7.002001 -6.0125 -1.7565 -6.0755 -6.0755 
-6.6335 -8.717501 -5.650001 -8.5175 -7.5015 -6.2445 -3.89 -5.027 -6.4975 -6.7515 -9.181001 -7.678 -6.0125 -7.89 -6.0755 
-8.717501 -12.7081 -8.5175 -8.5175 -11.2197 -6.9895 -5.027 -8.108001 -8.63 -10.1425 -9.660001 -7.678 -12.6648 -7.89 
-12.7081 -15.5756 -8.5175 -12.3793 -11.9647 -7.941 -8.108001 -10.513 -12.0542 -10.403 -9.660001 -14.4507 -12.6648 
-3.0415 -6.0755 -2.186 -3.776 -3.452 -6.0755 -8.678 -3.849 0 
-9.7005 -8.472501 -6.1405 -7.326 -9.073 -9.6175 -12.9418 -3.849 
-12.1947 -12.6786 -10.9375 -13.6264 -13.556 -14.1023 -12.9418 
-16.4008 -17.4756 -17.2379 -18.1094 -18.0408 -14.1023 
-21.1978 -23.776 -21.7209 -22.5942 -18.0408 
