-4.759 
n/a 
n/a 
n/a 
n/a 
-4.759 
n/a 
n/a 
n/a 
n/a 
-4.759 
n/a 
n/a 
n/a 
n/a 
-4.759 
n/a 
n/a 
n/a 
n/a 
-1.934 -4.65 -1.4985 -4.807 -1.7565 -3.582 -3.8655 -2.7415 -8.7405 -3.0415 -3.402 -2.264 -7.596 -1.756 -4.4035 -3.301 -4.177 -3.458 -3.6065 -4.2655 0 -4.386 -1.7565 -2.688 -4.002 -3.152 -4.3155 
-5.833 -6.1685 -5.9145 -5.8905 -5.3505 -7.4475 -6.652 -10.7025 -12.4222 -7.005 -3.793 -10.223 -7.8105 -5.636 -7.928 -6.469501 -4.8925 -5.7115 -7.571 -4.2655 -4.386 -4.539 -4.2285 -6.4315 -6.633501 -6.024 
-6.83 -10.1225 -6.296 -9.3765 -8.554501 -9.549001 -14.8954 -14.3842 -16.3857 -7.054 -12.363 -10.4375 -13.3065 -9.0755 -11.4993 -7.712 -7.594 -10.4265 -7.571 -9.38 -4.539 -6.443 -7.460001 -8.482 -9.626 
-10.7595 -10.26 -9.722501 -12.6987 -10.361 -17.8244 -18.5771 -18.3477 -16.4347 -16.139 -12.5775 -15.9335 -16.746 -12.7592 -12.7418 -10.7425 -12.5674 -10.4265 -13.2105 -9.418 -6.443 -10.27 -9.969001 -11.7195 
-12.6598 -14.4489 -13.0447 -14.5052 -18.6364 -21.5061 -22.5406 -18.3967 -25.5197 -16.3535 -18.0735 -19.373 -20.4297 -14.0017 -15.7723 -15.7159 -12.5674 -16.066 -13.2485 -11.4176 -10.27 -12.9488 -13.2065 
-1.934 -4.65 -3.2615 -1.4985 -3.582 -4.3105 -3.2275 -2.7415 -4.434 0 -1.7695 -4.0545 -4.972 -3.9225 -1.4985 -3.1385 -2.356 -1.4985 -3.918 -1.7565 -3.6065 -5.031 -3.5435 -3.251 -4.423 -3.3715 -2.688 -4.002 0 
-5.833 -7.566 -4.032 -4.692 -7.904 -7.639501 -6.040501 -6.920501 -4.434 -1.7695 -4.4685 -8.848001 -7.072001 -4.463 -4.2575 -4.608 -3.1615 -4.8715 -5.2315 -4.8305 -7.274 -8.245001 -6.0535 -6.344501 -7.477 -5.665501 -6.4315 -4.002 
-7.8035 -8.379001 -7.4585 -9.052 -9.497001 -9.942501 -9.671501 -6.920501 -7.23 -4.4685 -9.142 -9.930501 -7.6475 -6.471 -6.3885 -6.06 -6.6505 -5.5475 -8.8985 -8.2165 -10.8978 -11.967 -9.143001 -9.198 -9.484501 -8.967001 -6.4315 
-8.744 -12.0323 -12.1299 -9.795501 -10.662 -13.5735 -9.671501 -9.196001 -10.248 -9.142 -10.1635 -10.3265 -8.879001 -8.518001 -7.118 -10.7575 -7.75 -9.516001 -12.4023 -11.9045 -14.6198 -15.0565 -12.1001 -11.3183 -13.0116 -8.967001 
-12.4605 -16.7037 -12.8734 -10.7605 -14.293 -13.5735 -12.0778 -12.2652 -14.9215 -10.1635 -10.511 -11.558 -11.0592 -9.441501 -11.8595 -11.857 -11.8923 -13.1318 -16.0903 -15.6265 -17.7093 -18.0136 -14.2204 -14.8454 -13.0116 
-1.934 -4.65 -3.582 -4.3105 -3.2275 -2.7415 -5.2645 0 -4.122 -3.3715 -4.2465 -4.8685 -4.9225 -1.7695 -4.972 0 -3.5435 -4.9845 -3.3715 -3.9115 0 
-5.833 -8.3585 -7.904 -7.639501 -6.040501 -6.613501 -5.2645 -4.122 -6.9865 -7.0305 -10.688 -11.4446 -6.814 -6.724 -4.972 -3.5435 -7.649501 -7.630501 -7.135 -3.9115 
-9.801001 -12.9431 -9.497001 -9.942501 -9.767 -6.613501 -8.8835 -6.9865 -10.76 -14.2812 -17.2641 -13.3361 -12.3341 -6.724 -6.8665 -7.649501 -10.8749 -11.995 -7.135 
-14.4744 -14.5361 -10.662 -13.669 -9.767 -10.1465 -12.0972 -10.76 -18.0107 -20.8573 -19.1556 -18.8562 -12.3341 -9.5795 -11.6995 -10.8749 -15.2394 -11.995 
-16.0674 -15.7011 -14.3885 -13.669 -13.2844 -13.2936 -15.8707 -18.0107 -24.5868 -22.7488 -24.6757 -18.8562 -15.1896 -14.4805 -14.9249 -15.2394 -15.2394 
-4.8775 -1.7695 -4.4035 -1.4985 -4.972 -3.9225 -1.4985 -3.237 -2.3345 -3.6065 -3.9115 -2.3345 -3.3425 -2.985 -4.6195 
-6.7795 -4.8505 -5.915 -6.02 -7.072001 -4.463 -4.1875 -6.197001 -5.725 -7.132501 -6.259 -4.554 -5.678 -6.571 
-8.995501 -6.24 -10.9377 -8.5065 -7.6475 -6.9585 -6.4945 -10.181 -9.539001 -9.649501 -8.460001 -6.8425 -8.283501 
-10.404 -11.3803 -13.4242 -8.9805 -9.953 -9.2805 -10.3605 -13.995 -12.1254 -11.8951 -10.543 -9.601 
-15.5443 -13.8668 -13.8982 -11.3118 -13.0324 -13.1495 -14.1745 -16.5814 -14.371 -13.9781 -13.3015 
