-4.759 
n/a 
n/a 
n/a 
n/a 
-4.759 
n/a 
n/a 
n/a 
n/a 
-4.759 
n/a 
n/a 
n/a 
n/a 
-4.759 
n/a 
n/a 
n/a 
n/a 
-8.395 -4.1455 0 -6.5 -7.926001 0 -9.825001 -7.926001 
-9.389501 -4.1455 -6.5 -9.861 -7.926001 -9.825001 -17.8238 
-9.389501 -10.688 -9.861 -9.861 -18.0848 -17.8238 
-16.342 -14.049 -9.861 -20.5896 -26.0836 
-19.703 -14.049 -20.5896 -28.5884 
-9.8555 -4.1455 -1.756 -6.5 -4.1455 0 -7.9075 -4.1455 0 
-10.4855 -5.488 -8.3125 -10.533 -4.1455 -7.9075 -12.4412 -4.1455 
-12.3892 -13.0429 -12.7293 -10.533 -13.183 -12.4412 -12.4412 
-19.9441 -17.4597 -12.7293 -19.5705 -17.7167 -12.4412 
-24.3609 -17.4597 -21.7668 -24.1042 -17.7167 
-4.1455 -2.3345 -8.066501 0 -6.5 -8.574 0 0 0 -7.9075 -8.574 0 
-5.2685 -10.647 -8.066501 -6.5 -15.8482 -8.574 0 0 -7.9075 -16.8697 -8.574 
-14.3596 -10.647 -15.3435 -15.8482 -15.8482 -8.574 0 -7.9075 -16.8697 -16.8697 
-14.3596 -17.924 -24.6917 -15.8482 -15.8482 -8.574 -7.9075 -16.8697 -16.8697 
-21.6366 -27.2722 -24.6917 -15.8482 -15.8482 -16.8697 -16.8697 -16.8697 
-8.395 -4.1455 0 -6.5 -4.0905 0 -8.8605 -4.0905 
-9.389501 -4.1455 -6.5 -10.411 -4.0905 -8.8605 -10.9315 
-9.389501 -10.688 -10.411 -10.411 -10.9575 -10.9315 
-16.342 -14.599 -10.411 -17.278 -13.0285 
-20.253 -14.599 -17.278 -19.349 
