-4.759 
n/a 
n/a 
n/a 
n/a 
-4.759 
n/a 
n/a 
n/a 
n/a 
-4.759 
n/a 
n/a 
n/a 
n/a 
-4.759 
n/a 
n/a 
n/a 
n/a 
-3.9225 -1.4985 -3.8195 -3.5005 -12.16972 0 -7.2215 0 -2.925 -2.4945 -1.4985 -3.2825 -1.934 -5.4935 -2.4945 -1.4985 -3.2825 -1.934 -3.8275 -3.074 0 
-4.463 -5.146501 -5.951 -16.52042 -12.16972 -7.2215 -7.2215 -2.925 -3.7675 -3.9315 -3.712 -5.0275 -7.1435 -6.3105 -3.9315 -3.712 -5.0275 -5.911 -7.1405 -3.074 
-7.5955 -8.4645 -19.38052 -16.52042 -19.39122 -7.2215 -11.1169 -3.7675 -5.322001 -5.42 -5.315 -10.26 -8.338 -8.061001 -5.42 -5.315 -9.581501 -9.284 -7.1405 
-10.9143 -22.08302 -19.38052 -23.74192 -19.39122 -11.1169 -11.9594 -5.322001 -6.55 -6.7825 -9.637501 -10.3625 -9.414001 -8.940001 -6.7825 -9.9685 -13.1183 -9.284 
-24.53282 -22.08302 -26.60202 -23.74192 -23.28662 -11.9594 -13.5139 -6.55 -7.804501 -11.564 -11.5978 -12.6228 -11.296 -10.5965 -12.245 -13.5743 -13.1183 
-7.4885 -5.7585 -1.934 -3.8275 -1.934 -1.4985 -4.4315 -4.088 -1.7565 -6.999001 -1.756 -12.16972 0 
-13.8742 -7.353 -5.911 -5.2615 -2.6125 -5.1515 -8.9615 -5.4975 -8.5175 -8.829 -14.93432 -12.16972 
-15.4687 -11.7484 -7.646501 -6.1145 -6.325 -9.712 -9.894501 -10.586 -9.669001 -22.17932 -14.93432 
-19.8641 -13.4839 -8.421 -9.826 -10.426 -10.1875 -15.0894 -12.5745 -23.03852 -22.17932 
-21.5996 -14.2584 -12.2991 -13.8196 -10.9015 -15.504 -17.0779 -25.94402 -23.03852 
-7.1915 -6.999001 0 -9.012 -4.7315 -2.4945 -5.1605 -2.3345 -3.277 0 -2.9805 -2.8645 -3.3235 -5.9815 -1.934 -4.5165 0 
-14.8071 -6.999001 -9.012 -14.0297 -6.3605 -7.1225 -6.162 -5.5635 -3.277 -2.9805 -4.3245 -6.7295 -6.094 -6.163 -7.024 -4.5165 
-14.8071 -10.368 -14.0297 -15.6587 -10.513 -7.4215 -8.425 -5.5635 -5.713 -4.3245 -8.2445 -10.4185 -6.266 -11.918 -7.024 
-18.1761 -16.1121 -15.6587 -19.8112 -10.6375 -9.846001 -8.425 -7.765 -7.239 -8.2445 -12.0751 -10.5905 -12.0968 -11.918 
-23.9202 -17.7411 -19.8112 -19.9357 -13.062 -9.846001 -10.702 -9.303 -11.2614 -12.0751 -12.2471 -16.4213 -12.0968 
-2.925 -3.7555 -2.645 -5.0705 -1.934 -4.4315 -3.355 -1.7565 -7.299 0 -9.939 0 -2.645 -3.301 -1.934 -3.8275 -3.074 
-5.431 -5.968 -8.4195 -6.4205 -6.5205 -7.5235 -3.725 -8.4565 -7.299 -9.939 -9.939 -2.645 -6.0135 -5.499001 -5.911 -7.1405 
-7.650001 -12.3433 -9.6975 -11.6022 -10.204 -7.997001 -11.1394 -8.4565 -17.9958 -9.939 -12.7224 -6.0135 -8.1105 -9.1835 -9.284 
-14.1173 -13.6213 -15.0584 -15.2857 -10.5115 -15.7322 -11.1394 -19.3289 -17.9958 -12.7224 -16.0909 -8.1105 -12.1606 -12.7721 
-15.3953 -18.9822 -18.7419 -15.5932 -18.2467 -15.7322 -22.0118 -19.3289 -20.7792 -16.0909 -18.1879 -12.1606 -15.7492 
