-4.759 
n/a 
n/a 
n/a 
n/a 
-4.759 
n/a 
n/a 
n/a 
n/a 
-4.759 
n/a 
n/a 
n/a 
n/a 
-4.759 
n/a 
n/a 
n/a 
n/a 
-1.4985 -3.228 -4.314 -3.8405 -2.7415 -3.436 -5.1375 -3.277 -3.393 
-3.9575 -7.666501 -9.120001 -6.0775 -5.909 -9.6675 -8.06 -4.243 
-8.172001 -13.0445 -11.3944 -9.514501 -12.4213 -12.6816 -8.695001 
-13.8454 -15.3189 -14.8314 -16.151 -15.4354 -13.3166 
-16.1198 -18.7559 -21.4679 -19.1651 -16.0704 
-1.4985 -3.228 -7.9925 -4.434 -3.436 -5.867001 -3.277 0 
-3.9575 -9.5845 -9.413501 -7.3055 -8.472 -7.06 -3.277 
-11.4925 -12.4755 -12.638 -11.898 -10.3955 -6.5845 
-12.6865 -15.586 -17.6135 -12.9785 -9.462501 
-15.797 -20.5615 -18.694 -12.9785 
-3.228 -3.9395 -3.852 0 -4.314 -3.8405 0 -3.251 -4.4945 -3.436 -5.867001 -3.277 0 
-6.160501 -6.5105 -3.852 -4.314 -9.120001 -3.8405 -3.251 -6.348001 -7.1195 -8.472 -7.06 -3.277 
-9.734 -6.5105 -7.778501 -9.120001 -9.120001 -7.032001 -6.348001 -9.064 -11.908 -10.3955 -6.5845 
-9.734 -10.4035 -12.9309 -9.120001 -12.3489 -9.617001 -9.064 -13.9243 -12.9885 -9.462501 
-13.6744 -15.5559 -12.9309 -12.3489 -14.9339 -12.36 -13.9243 -15.0048 -12.9885 
-3.228 -4.2875 -2.95 -4.434 -3.6215 -5.867001 -3.277 -3.251 0 
-8.0835 -8.128 -7.721001 -7.7925 -7.823 -7.06 -5.885 -3.251 
-12.3828 -13.2572 -10.7025 -10.094 -9.0395 -9.364501 -5.885 
-17.512 -16.2387 -12.243 -10.633 -11.255 -9.5135 
-20.4935 -17.7792 -12.29 -12.965 -11.911 
