-4.759 
n/a 
n/a 
n/a 
n/a 
-4.759 
n/a 
n/a 
n/a 
n/a 
-4.759 
n/a 
n/a 
n/a 
n/a 
-4.759 
n/a 
n/a 
n/a 
n/a 
-3.034 -4.948 -4.0375 -7.104001 0 -5.246 0 -3.875 -4.0375 -2.7415 -4.09 -1.756 -4.5045 -5.081 -3.519 0 
-7.992001 -5.375 -12.1321 -7.104001 -5.246 -5.246 -3.875 -7.577001 -6.4715 -5.289001 -5.2525 -6.1075 -8.123001 -7.467501 -3.519 
-9.335 -14.3094 -12.1321 -12.9732 -5.246 -10.2595 -7.577001 -10.757 -9.793501 -6.5315 -9.311501 -9.582001 -11.0095 -7.467501 
-18.4368 -14.3094 -18.0013 -12.9732 -10.2595 -14.1481 -10.757 -14.079 -10.7625 -11.0709 -13.525 -12.6865 -11.0095 
-18.4368 -20.1786 -18.0013 -17.9867 -14.1481 -17.3281 -14.079 -15.048 -15.3019 -15.2844 -16.6295 -12.6865 
-1.934 -4.239 -1.4985 -4.948 -4.0375 -2.7415 -8.073 0 -1.756 -3.982 -4.0375 -2.7415 -3.8755 0 
-5.464 -5.786 -5.4175 -5.375 -6.4715 -9.2875 -8.073 -1.756 -5.594 -4.964 -6.4715 -5.065001 -3.8755 
-6.476 -8.456 -5.654 -7.1365 -13.3639 -9.2875 -9.378 -5.594 -6.989 -7.5965 -8.4965 -5.065001 
-8.947001 -8.605 -7.1855 -14.2725 -13.3639 -10.4685 -13.3962 -6.989 -9.940001 -9.1875 -8.4965 
-9.055 -9.536501 -14.3407 -14.2725 -14.5449 -14.4867 -14.7912 -9.940001 -11.531 -9.1875 
-1.934 -4.239 -1.4985 -4.948 -4.0375 0 -5.549 0 -2.7415 -4.9345 0 -3.2615 -2.3335 -1.4985 -3.982 -4.0375 -3.59 -2.229 -2.4945 -3.898 -2.5045 -1.8085 -3.188 -5.5195 -3.59 -2.229 0 
-5.464 -5.786 -5.4175 -5.375 -4.0375 -5.549 -5.549 -2.7415 -6.129 -4.9345 -3.2615 -5.0495 -3.3515 -4.566 -4.964 -7.721001 -4.966 -5.159 -7.614 -6.1245 -3.3625 -4.8525 -6.313001 -9.686001 -4.966 -2.229 
-6.476 -8.456 -5.654 -5.375 -8.015501 -5.549 -7.5395 -6.129 -6.129 -7.0255 -5.0495 -6.2185 -6.574 -5.1735 -7.883 -10.155 -8.8715 -10.5535 -10.5865 -6.828 -6.404 -8.7755 -9.783001 -11.3834 -4.966 
-8.947001 -8.605 -5.654 -8.026501 -8.015501 -7.5395 -10.2755 -6.129 -8.200001 -9.0445 -6.2185 -9.800501 -7.161 -8.857 -10.382 -14.0605 -14.4854 -13.526 -11.29 -9.236 -10.688 -12.6303 -11.5852 -11.3834 
-9.055 -8.605 -8.979501 -8.026501 -10.4675 -10.2755 -10.2755 -8.200001 -10.044 -10.156 -9.800501 -10.5155 -11.4363 -11.6364 -14.2875 -19.6744 -17.4579 -14.2295 -13.698 -13.871 -14.5428 -14.4325 -11.5852 
-1.934 -4.239 -3.982 -3.4225 -4.5485 -1.756 -2.4265 -4.3195 -4.09 -3.59 0 
-5.464 -8.0725 -7.9545 -9.178 -6.1455 -3.949 -5.45 -8.5605 -6.6095 -3.59 
-9.714001 -12.4226 -14.3142 -10.9256 -8.0255 -6.629 -9.406501 -11.4846 -6.6095 
-14.0641 -18.7823 -16.0618 -12.8056 -9.988501 -10.7051 -13.168 -11.4846 
-20.4238 -20.5299 -17.9418 -14.7686 -14.1522 -14.4666 -13.168 
