-4.759 
n/a 
n/a 
n/a 
n/a 
-4.759 
n/a 
n/a 
n/a 
n/a 
-4.759 
n/a 
n/a 
n/a 
n/a 
-4.759 
n/a 
n/a 
n/a 
n/a 
-2.8705 -5.6115 -4.7925 -1.7695 -3.0365 -2.186 -4.3955 
-8.7925 -11.5496 -7.181 -5.993001 -3.66 -7.372001 
-15.072 -13.9381 -11.8425 -6.902501 -8.142 
-17.4605 -18.5996 -12.752 -11.6343 
-22.122 -19.5091 -17.4838 
-1.934 -4.395 -4.9225 -2.4945 -3.5185 -3.345 -1.756 -4.0215 -2.0935 -4.2775 -4.953 0 
-6.1905 -8.6425 -6.9525 -7.503 -7.256001 -5.2935 -5.3795 -6.033 -6.4785 -8.733 -4.953 
-11.0276 -11.1273 -12.279 -11.4459 -9.052501 -6.8865 -7.936 -11.5474 -11.2454 -8.733 
-13.5124 -16.4538 -16.2219 -13.2424 -11.2907 -8.822001 -13.5076 -16.3143 -11.2454 
-18.8389 -20.3967 -18.0184 -15.4806 -13.2262 -14.6688 -18.2745 -16.3143 
-2.8705 -5.5455 -5.115 -3.43 -4.953 -4.887 -1.7695 -2.5685 -3.54 -5.1845 0 
-7.839 -7.788 -8.1455 -9.2155 -10.051 -6.457 -4.2305 -5.0685 -8.802 -5.1845 
-8.023001 -10.107 -14.301 -14.5709 -11.621 -8.876 -6.7 -10.4595 -8.802 
-10.27 -16.2625 -19.6564 -16.1409 -14.04 -11.4791 -12.3188 -10.4595 
-16.4255 -21.6179 -21.2264 -18.5599 -16.6431 -17.0979 -12.3188 
-2.8705 -5.008 -3.6055 -3.999 -1.7565 -10.8475 -4.444 -4.7615 -1.4985 -4.245 0 
-8.2305 -9.0165 -7.6225 -4.5785 -13.5532 -15.9397 -9.7535 -5.9545 -5.305 -4.245 
-12.5448 -13.2225 -8.3715 -17.3746 -18.6454 -21.2492 -10.72 -9.235001 -5.305 
-16.7508 -13.9715 -21.701 -22.4668 -23.9549 -22.2157 -14.0005 -9.235001 
-17.4998 -27.301 -26.7932 -27.7763 -24.9214 -25.4962 -14.0005 
