-4.759 
n/a 
n/a 
n/a 
n/a 
-4.759 
n/a 
n/a 
n/a 
n/a 
-4.759 
n/a 
n/a 
n/a 
n/a 
-4.759 
n/a 
n/a 
n/a 
n/a 
-6.298 -2.8645 -3.849 -2.5045 -8.3865 -2.5195 -4.5735 -3.4795 -1.934 -5.1845 
-8.759501 -5.8645 -6.305 -10.674 -10.932 -6.318501 -7.4725 -5.116 -6.564 
-11.9265 -9.314 -14.5781 -13.2195 -14.731 -8.588501 -8.926001 -9.8825 
-15.376 -17.5837 -17.1236 -17.0185 -17.001 -10.3965 -14.0795 
-23.6457 -20.1292 -20.9226 -19.2885 -18.809 -15.55 
-2.5195 -4.5735 -3.4795 -6.298 -2.186 -3.849 -2.5045 -8.3865 
-6.318501 -7.4725 -10.3225 -7.8605 -4.8565 -6.305 -10.674 
-8.588501 -14.7577 -12.0544 -9.826 -7.104 -14.5781 
-16.0639 -16.4896 -14.0199 -12.0503 -15.5069 
-17.7958 -18.4551 -16.2442 -20.4532 
-6.298 -2.186 -3.4625 -3.849 -2.3345 -6.4735 -2.5045 -8.901 -1.934 -1.4985 -6.298 -4.58 -4.179 
-7.8605 -4.4835 -5.9165 -5.722 -8.558001 -8.47 -12.3229 -11.207 -2.6125 -7.952001 -11.5882 -8.686501 
-10.5914 -6.784 -7.4185 -12.6309 -10.0925 -18.4968 -14.6289 -11.8855 -8.856001 -13.7106 -15.6947 
-12.8919 -8.138 -14.6888 -14.1654 -20.1193 -20.8028 -15.3074 -18.129 -14.8838 -17.8171 
-14.2459 -15.7903 -16.2233 -24.1922 -22.4253 -21.4813 -21.5509 -24.1568 -18.9903 
-6.298 -3.849 -8.3865 -2.0935 -7.044 -6.5625 0 
-9.865001 -12.3961 -10.985 -9.634001 -14.1343 -6.5625 
-18.4121 -14.9946 -18.5255 -16.8999 -14.1343 
-21.0106 -22.5351 -25.7914 -16.8999 
-28.5511 -29.801 -25.7914 
