-4.759 
n/a 
n/a 
n/a 
n/a 
-4.759 
n/a 
n/a 
n/a 
n/a 
-4.759 
n/a 
n/a 
n/a 
n/a 
-4.759 
n/a 
n/a 
n/a 
n/a 
-1.934 -6.0845 -3.2875 -8.711 -4.2885 -3.8145 -3.074 -3.6975 -4.088 
-7.621 -7.9265 -13.1459 -13.3211 -6.691 -6.9775 -6.723001 -6.718 
-8.591001 -17.9049 -17.756 -15.7236 -10.1855 -11.1305 -9.465 
-18.718 -22.515 -20.1585 -19.2181 -14.3385 -13.8725 
-23.3281 -24.9175 -23.653 -23.3711 -17.0805 
-14.4655 -3.2875 -12.16972 -4.2885 -9.771501 -2.645 -3.324 -2.186 -4.4655 
-17.233 -16.60462 -16.45822 -15.1708 -12.5091 -6.7735 -4.765 -5.7815 
-30.91052 -20.89312 -27.34052 -17.9084 -16.6376 -9.0235 -7.625 
-35.19902 -31.77542 -30.07812 -22.0369 -18.8876 -12.1203 
-46.08132 -34.51302 -34.20662 -24.2869 -21.9844 
-1.934 -1.4985 -3.2875 -6.0845 -3.0365 -2.186 -4.2885 -4.281 -4.737 -3.3155 -2.925 -3.7445 -6.976 0 
-2.6125 -4.127 -8.4185 -9.717001 -3.66 -7.7355 -8.2185 -8.7705 -7.806 -4.734 -6.007501 -9.951 -6.976 
-4.9865 -10.411 -12.4278 -10.497 -9.259501 -12.1349 -13.662 -9.9355 -9.3255 -7.8925 -12.9656 -9.951 
-11.4443 -14.4203 -13.2078 -16.0965 -13.8759 -17.5784 -14.827 -12.6526 -12.6044 -14.963 -12.9656 
-15.4536 -15.2003 -18.8073 -20.7129 -19.3194 -18.7434 -17.5441 -15.9315 -19.6749 -14.963 
-4.737 -4.287 -1.934 -2.688 -3.586 -4.5445 -3.3715 -3.6975 -3.837 0 
-7.0585 -5.971 -4.282 -3.615 -8.3975 -7.627001 -6.548 -6.4455 -3.837 
-8.5555 -7.256001 -4.681 -8.436001 -11.5726 -10.9333 -9.175 -6.4455 
-9.2625 -7.297 -8.8525 -11.6193 -14.8789 -13.5603 -9.175 
-9.2835 -11.9887 -12.0482 -14.9256 -17.5059 -13.5603 
