-4.759 
n/a 
n/a 
n/a 
n/a 
-4.759 
n/a 
n/a 
n/a 
n/a 
-4.759 
n/a 
n/a 
n/a 
n/a 
-4.759 
n/a 
n/a 
n/a 
n/a 
-3.699 -4.1865 -4.2335 -2.4945 -6.3075 -2.9705 -2.4945 -3.2955 -1.934 -5.0575 -2.0935 -5.5105 -3.635 -1.756 -6.2175 -4.0455 -2.9705 -2.186 -3.557 -1.934 -12.16972 -4.4525 -1.756 -1.4985 -4.0455 -5.3765 -3.7555 -4.8015 
-8.172501 -8.1615 -5.851 -9.4685 -9.306001 -4.302 -4.6305 -4.2285 -6.7185 -7.2675 -6.765501 -8.335501 -5.0655 -8.2435 -6.569 -6.572001 -3.89 -5.0815 -4.4175 -15.11012 -16.62222 -6.099 -3.0405 -5.133 -8.918501 -8.967501 -8.928 
-12.4119 -10.228 -10.733 -12.5782 -10.342 -6.081 -5.474 -9.3065 -8.8715 -12.2547 -10.4009 -10.4265 -12.6096 -8.8455 -9.0505 -7.2215 -6.699 -5.6285 -17.83942 -19.56262 -18.26872 -7.1685 -6.8665 -10.3675 -12.9909 -14.477 
-14.4784 -15.11 -13.8427 -13.6142 -12.121 -6.7685 -10.5425 -10.6345 -13.8689 -15.8901 -12.4919 -17.9706 -13.2116 -11.4258 -9.751 -9.3795 -6.987 -19.42862 -22.29192 -21.20912 -19.33822 -11.4411 -12.3336 -14.4399 -18.5004 
-19.3604 -18.2197 -14.8787 -15.3932 -12.8085 -12.118 -11.8705 -15.6319 -17.5043 -17.9811 -20.036 -18.5726 -15.7919 -12.1263 -11.9262 -9.5585 -20.99052 -23.88112 -23.93842 -22.27862 -23.61082 -16.9082 -16.406 -19.9494 
-3.17 -3.699 -4.1865 -4.055 -2.186 -6.3075 -2.9705 -2.186 -3.557 -1.934 -4.684 -1.934 -5.0575 0 -3.074 -4.0645 -1.934 -9.584001 -4.943 -1.756 -1.4985 -4.0455 -3.3155 -5.3765 -6.4125 -3.091 -4.1885 0 
-4.663 -8.172501 -8.2985 -5.900001 -8.722 -9.306001 -3.89 -5.0815 -4.4175 -6.729 -6.989 -6.7185 -5.0575 -3.074 -6.0375 -4.619 -10.9575 -14.9072 -5.987 -3.0405 -5.133 -6.9615 -8.339001 -9.722 -8.379001 -8.2945 -4.1885 
-9.056 -12.5489 -10.1305 -12.9092 -12.1105 -9.995501 -6.699 -5.6285 -8.833501 -8.462501 -12.3117 -6.7185 -8.0515 -6.0375 -6.7945 -14.6635 -16.2807 -15.9512 -7.624001 -6.8665 -7.605 -9.918 -13.2755 -11.8823 -14.0391 -8.2945 
-13.4898 -14.3809 -17.1397 -16.2977 -12.8 -12.8499 -6.987 -9.797501 -9.495501 -14.0708 -12.3117 -9.724501 -11.2078 -6.7945 -16.9414 -19.9867 -17.3247 -17.5882 -11.6364 -9.8135 -10.6875 -15.0621 -15.4358 -17.5424 -14.0391 
-15.3218 -21.3901 -20.5282 -16.9872 -15.6544 -13.1379 -11.3594 -10.301 -15.2088 -14.0708 -15.3177 -12.8808 -11.9648 -16.9414 -22.2646 -21.0307 -18.9617 -21.6006 -14.5834 -12.9468 -15.8316 -17.2224 -21.0959 -17.5424 
-3.699 -4.1865 -5.2735 0 -1.934 -5.0575 -2.0935 -4.0215 -4.0535 -2.925 -2.9645 -3.1495 -5.2735 0 -12.16972 -4.761 -2.7765 -2.489 -3.962 0 -7.402 -2.229 -4.92 -3.7805 -6.3075 -4.0455 -2.186 -2.664 -3.699 -3.89 0 
-8.172501 -9.337 -5.2735 -1.934 -6.7185 -7.2675 -6.584001 -8.902 -6.776 -5.385 -5.2365 -7.218 -5.2735 -12.16972 -16.93072 -7.1615 -3.495 -4.8355 -3.962 -7.402 -8.693001 -6.4585 -8.6905 -9.876 -7.518001 -5.900001 -3.8555 -4.654 -5.6305 -3.89 
-13.5874 -9.337 -6.726001 -6.7185 -8.8715 -12.0732 -10.7335 -11.7279 -8.9525 -7.517 -9.794001 -7.218 -18.42342 -16.93072 -19.33122 -7.365 -5.233 -4.8355 -12.4626 -8.693001 -13.4561 -9.880501 -15.1156 -11.6961 -8.947001 -7.624001 -5.2675 -7.0825 -5.6305 
-13.5874 -10.689 -12.0305 -8.8715 -13.6874 -16.2227 -13.5594 -13.9044 -11.2691 -12.1955 -9.794001 -20.78372 -23.18442 -19.33122 -19.53472 -9.276 -5.233 -13.9233 -13.7536 -13.4561 -16.8781 -16.5718 -16.9357 -13.1251 -10.4185 -9.101001 -7.6705 -7.0825 
-14.9394 -15.9935 -14.1835 -13.6874 -17.8369 -19.0486 -15.7359 -16.221 -15.9476 -12.1955 -23.67052 -25.54472 -25.58492 -19.53472 -21.44572 -9.276 -14.6418 -15.2143 -18.5167 -16.8781 -23.5694 -18.3919 -18.3647 -14.5966 -11.8955 -11.6314 -7.6705 
-2.9905 -1.7565 -1.4985 -5.0455 -4.1865 -4.2335 0 -6.3075 0 -2.9705 -2.186 -3.2955 -2.5045 -1.8085 -5.5105 -4.055 -1.934 -4.4015 -3.8195 -1.756 -3.557 -1.934 -9.4045 -1.756 -1.4985 -6.537 -4.0455 0 -3.325 -2.9705 -5.3765 -4.0325 0 -2.4945 -5.6155 
-3.6185 -2.4195 -6.402 -8.210001 -8.1615 -4.2335 -6.3075 -6.3075 -2.9705 -3.89 -4.348001 -4.6545 -3.3625 -6.998 -7.0135 -5.588 -5.3355 -5.4195 -5.127 -5.094 -4.4175 -10.8215 -10.155 -3.0405 -7.5235 -7.3555 -4.0455 -3.325 -5.0025 -8.616501 -8.726501 -4.0325 -2.4945 -7.273 
-4.3385 -7.014501 -9.4135 -12.5008 -8.1615 -9.4195 -6.3075 -9.306001 -3.89 -5.7615 -5.574 -5.021 -7.719501 -7.971001 -8.742001 -9.031501 -5.759 -6.462 -8.525001 -7.0045 -13.5508 -11.572 -11.9593 -9.102 -7.687 -7.3555 -7.283501 -5.0025 -9.209001 -9.951 -8.726501 -7.979501 -7.273 
-10.064 -9.894001 -13.7043 -12.5008 -13.8553 -9.4195 -9.306001 -9.995501 -5.7615 -6.939001 -5.9525 -8.455 -8.4335 -9.186001 -12.4833 -10.238 -6.771501 -9.8085 -10.6605 -16.4838 -14.3013 -13.3763 -18.0208 -9.3695 -7.687 -9.2515 -7.994 -9.209001 -10.1435 -9.951 -13.2083 -12.9922 
-12.9435 -14.1848 -13.7043 -18.1946 -13.8553 -12.7322 -9.995501 -11.9124 -6.939001 -7.2665 -9.469001 -9.116501 -9.427501 -12.9957 -13.6898 -11.2505 -10.13 -12.164 -20.1398 -17.2343 -16.1056 -19.4378 -18.2883 -9.3695 -9.436501 -9.271501 -9.2735 -10.1435 -10.1435 -14.7572 -18.221 
