-4.759 
n/a 
n/a 
n/a 
n/a 
-4.759 
n/a 
n/a 
n/a 
n/a 
-4.759 
n/a 
n/a 
n/a 
n/a 
-4.759 
n/a 
n/a 
n/a 
n/a 
-4.7625 -3.8265 -3.5435 -1.4985 -3.766 -4.1 -6.1555 -3.013 -2.6165 -2.674 -2.9995 -3.401 -2.4285 -3.5015 -1.934 -1.4985 -3.5035 -1.7565 -1.4985 -3.5435 0 
-8.357 -4.905 -5.4025 -5.186501 -7.095 -9.816501 -8.772 -3.724 -4.2165 -4.4625 -5.9305 -5.481 -5.798 -4.704 -2.6125 -4.4895 -5.0195 -2.4195 -4.2755 -3.5435 
-10.204 -6.486 -9.243501 -8.6765 -13.2421 -12.4784 -9.139501 -4.6215 -5.3575 -7.07 -6.576 -9.522501 -7.324501 -5.1615 -5.888 -5.3615 -5.601 -5.3025 -4.2755 
-11.785 -10.5975 -12.9269 -15.1392 -15.904 -12.8459 -9.733001 -5.723001 -7.708 -8.2755 -12.1159 -10.759 -8.02 -8.499001 -6.829 -5.978 -8.816501 -5.3025 
-15.8965 -14.2809 -19.3896 -17.8011 -16.2715 -13.4394 -10.9201 -8.077001 -8.853001 -14.7054 -13.3524 -11.4545 -11.6549 -9.1385 -7.466001 -9.340501 -8.816501 
-6.5545 0 -3.8265 0 -3.5435 -1.7565 0 -4.248 -5.133 -5.563 -3.5435 -3.84 -1.7565 -1.4985 -4.248 -2.6165 -4.2175 0 
-6.5545 -3.8265 -3.8265 -3.5435 -4.9885 -1.7565 -4.248 -9.883 -7.313001 -9.25 -7.05 -4.881 -2.4195 -5.2845 -6.8755 -5.104 -4.2175 
-11.375 -3.8265 -4.905 -4.9885 -4.9885 -5.3215 -9.883 -12.4704 -11.3456 -12.9621 -9.019001 -5.522 -6.413001 -8.127501 -10.411 -5.104 
-11.375 -4.905 -6.988501 -4.9885 -9.662001 -11.2811 -12.4704 -16.503 -15.0577 -14.9311 -10.1865 -10.1225 -9.519501 -12.8508 -10.411 
-12.4535 -6.988501 -6.988501 -9.662001 -15.6978 -13.8685 -16.503 -20.2151 -17.0267 -16.0986 -14.787 -13.7258 -14.2906 -12.8508 
-4.7625 -3.8265 -3.5435 0 -3.766 -5.1605 -4.698 -3.013 -5.651501 -2.674 -3.2895 -1.934 -3.5435 -4.179 0 
-8.357 -4.905 -3.5435 -3.766 -8.072001 -10.119 -8.042001 -8.529501 -6.316 -6.413 -5.2095 -5.459 -7.135 -4.179 
-10.204 -4.905 -7.689501 -8.072001 -13.8339 -13.463 -13.1979 -10.8065 -11.4885 -7.803 -8.7995 -8.938001 -7.135 
-10.204 -9.4175 -12.8859 -13.8339 -17.1779 -18.6189 -14.6594 -12.7225 -13.171 -11.9074 -12.6129 -8.938001 
-14.7165 -14.7589 -18.6478 -17.1779 -22.3338 -20.0804 -18.3705 -14.6956 -17.3042 -15.7208 -12.6129 
-3.8265 -3.5435 -2.6165 -2.5045 -2.5685 0 -1.756 -3.766 -3.5435 -4.698 -3.5435 -3.013 -5.651501 -3.0465 -3.2895 -1.756 -3.5015 0 
-4.905 -6.4905 -5.1365 -4.275 -2.5685 -1.756 -5.1635 -6.226501 -7.4545 -7.644501 -6.8125 -8.529501 -6.711 -7.9455 -4.799 -5.2435 -3.5015 
-7.634 -8.975 -5.4535 -4.275 -5.2215 -5.1635 -7.4685 -10.328 -9.647501 -11.4961 -12.0748 -11.0715 -12.572 -9.153501 -8.8885 -5.2435 
-10.485 -9.4615 -5.4535 -5.7825 -9.396501 -7.4685 -11.7782 -12.765 -13.7519 -16.7584 -14.1098 -14.3891 -14.5111 -13.6102 -8.8885 
-10.9715 -9.4615 -7.3795 -10.4335 -11.7517 -11.7782 -14.2152 -16.8694 -19.0142 -18.7934 -18.7592 -16.1894 -18.9678 -13.6102 
