-4.759 
n/a 
n/a 
n/a 
n/a 
-4.759 
n/a 
n/a 
n/a 
n/a 
-4.759 
n/a 
n/a 
n/a 
n/a 
-4.759 
n/a 
n/a 
n/a 
n/a 
-3.9225 -2.3335 -2.6615 -3.609 -4.278 -2.186 -3.098 -4.8205 -2.9825 
-7.2335 -6.13 -6.7805 -7.5625 -5.364 -4.5535 -7.9675 -8.0205 
-10.0505 -10.061 -11.473 -9.804501 -9.145 -10.4176 -11.5021 
-14.1283 -14.7535 -13.715 -12.5259 -15.2687 -13.9522 
-18.8208 -16.9955 -16.4364 -18.6496 -18.8033 
-2.871 -1.756 -3.098 -3.4605 -3.7875 -3.989 -3.4605 -2.186 -4.278 -1.934 -2.3335 -4.191 -4.2115 
-4.864 -4.806 -6.7325 -7.6485 -8.3245 -7.1875 -4.916 -7.423 -6.962501 -4.359 -6.892 -8.091 
-5.8745 -8.3885 -10.674 -12.4351 -12.2464 -9.293501 -10.172 -9.314001 -9.031501 -8.64 -11.2788 
-9.375 -13.222 -15.4606 -16.357 -14.3524 -14.6531 -12.063 -11.8278 -13.6821 -13.4818 
-14.1229 -18.0086 -19.3825 -18.463 -19.712 -16.5441 -14.5768 -16.4784 -18.5239 
-1.934 -2.3335 -4.278 -2.8645 -2.6165 -3.9535 -2.0935 -3.5895 -5.5855 
-4.359 -7.198501 -6.751 -4.475 -6.2935 -6.204 -5.302 -8.846001 
-9.251501 -8.31 -9.335501 -7.2105 -8.582001 -10.382 -10.8503 
-10.879 -10.2535 -12.1556 -9.376 -13.1238 -15.9303 
-12.8225 -13.2424 -14.3211 -14.05 -18.6721 
-2.3335 -2.9775 -4.278 -3.098 -2.6165 -4.2085 -4.2425 -2.5045 -2.5685 -3.432 -2.9775 0 
-5.673 -7.7115 -8.376 -5.711 -7.033 -9.1905 -6.721001 -4.275 -6.9705 -6.34 -2.9775 
-10.494 -12.0667 -11.2076 -9.463501 -12.6046 -11.6824 -7.733001 -8.9805 -10.5455 -6.34 
-14.8492 -14.8983 -14.9601 -15.4953 -15.0965 -12.6944 -12.6937 -12.7551 -10.5455 
-17.6808 -18.6508 -20.9919 -17.9872 -16.1085 -17.6551 -16.4683 -12.7551 
