-4.759 
n/a 
n/a 
n/a 
n/a 
-4.759 
n/a 
n/a 
n/a 
n/a 
-4.759 
n/a 
n/a 
n/a 
n/a 
-4.759 
n/a 
n/a 
n/a 
n/a 
-3.433 -1.7565 -2.3615 0 -4.489 -5.8285 -4.87 
-4.1845 -3.523 -2.3615 -4.489 -9.785001 -9.452001 
-5.5485 -3.523 -8.9055 -9.785001 -10.546 
-5.5485 -10.159 -14.5057 -10.546 
-12.2595 -15.7592 -15.2667 
-3.851 -1.7695 -2.3615 -4.2895 -4.489 -4.8165 -3.8275 -2.264 -9.929001 
-4.0015 -3.736 -8.002501 -9.755501 -8.918501 -6.523 -5.147 -13.225 
-6.14 -9.660501 -13.5721 -14.2374 -9.078 -6.6425 -17.2676 
-9.940001 -15.2719 -18.054 -14.3969 -9.217 -19.2341 
-15.5876 -19.7538 -18.2135 -14.5359 -22.4606 
-3.1495 -4.031 -1.7565 -4.8005 -1.7695 -4.764 -4.87 -3.5435 -2.264 -4.489 -3.8275 0 
-8.131001 -5.571 -6.5295 -6.559 -7.822501 -11.1876 -8.703501 -5.966001 -7.5325 -9.324501 -3.8275 
-9.846801 -10.634 -9.0445 -13.1088 -13.8881 -15.0211 -11.619 -11.9823 -12.964 -9.324501 
-14.9098 -13.149 -15.7049 -19.1744 -17.7216 -17.9366 -17.6353 -17.4138 -12.964 
-17.4248 -19.8094 -21.7705 -23.0079 -20.6371 -23.9529 -23.0668 -17.4138 
-1.934 -3.333 -1.7695 -3.429 -5.14 -1.4985 -4.489 -3.9535 -3.8275 -3.7015 -4.87 0 
-3.9835 -4.022 -4.032 -7.065001 -6.6765 -7.546 -8.915501 -8.502501 -5.687 -7.5305 -4.87 
-4.0425 -6.276 -7.286 -8.946501 -13.3098 -12.5049 -13.7191 -9.347 -8.372001 -7.5305 
-6.2945 -8.960501 -9.171 -15.6528 -18.2687 -17.3085 -14.5636 -12.3646 -8.372001 
-8.965 -10.533 -15.8833 -20.6117 -23.0723 -18.153 -17.5812 -12.3646 
