-4.759 
n/a 
n/a 
n/a 
n/a 
-4.759 
n/a 
n/a 
n/a 
n/a 
-4.759 
n/a 
n/a 
n/a 
n/a 
-4.759 
n/a 
n/a 
n/a 
n/a 
-4.5065 0 -10.638 -9.392 0 -4.936 0 
-4.5065 -10.638 -11.117 -9.392 -4.936 -4.936 
-15.5291 -11.117 -11.117 -14.7544 -4.936 
-16.0081 -11.117 -16.4794 -14.7544 
-16.0081 -16.4794 -16.4794 
-4.5065 0 -10.2885 -9.4405 0 -4.936 0 
-4.5065 -10.2885 -11.08 -9.4405 -4.936 -4.936 
-15.1796 -11.08 -11.08 -14.7493 -4.936 
-15.9711 -11.08 -16.3888 -14.7493 
-15.9711 -16.3888 -16.3888 
-4.5065 0 -10.2055 -9.4405 0 -2.0935 -4.936 0 
-4.5065 -10.2055 -19.646 -9.4405 -2.0935 -6.574501 -4.936 
-15.0966 -19.646 -19.646 -11.9068 -6.574501 -6.574501 
-24.5371 -19.646 -22.1123 -16.3878 -6.574501 
-24.5371 -22.1123 -26.5933 -16.3878 
-4.5065 0 -9.804001 -9.4405 0 -4.094 0 
-4.5065 -9.804001 -10.1035 -9.4405 -4.094 -4.094 
-10.3225 -10.1035 -10.1035 -13.9073 -4.094 
-10.365 -10.1035 -14.9941 -13.9073 
-10.365 -14.9941 -14.9941 
