-4.759 
n/a 
n/a 
n/a 
n/a 
-4.759 
n/a 
n/a 
n/a 
n/a 
-4.759 
n/a 
n/a 
n/a 
n/a 
-4.759 
n/a 
n/a 
n/a 
n/a 
-3.091 -4.235 -2.186 -6.1205 -2.356 -5.1875 -4.2245 -1.756 -3.284 -4.1985 
-5.1065 -5.9235 -7.962001 -7.7715 -7.847 -8.302 -5.7035 -5.3135 -5.834001 
-6.838 -12.1417 -9.252001 -13.9949 -10.575 -9.689001 -9.1675 -8.279 
-13.177 -13.4317 -15.7582 -16.7229 -11.962 -13.289 -10.598 
-14.467 -19.9379 -18.4862 -18.1099 -15.562 -14.7195 
-3.091 -4.235 -4.5495 -1.4985 -4.2245 -1.7565 -5.1875 -5.891 -1.756 -3.284 -4.2 0 
-5.1065 -7.6835 -5.4995 -5.2345 -5.277 -6.68 -7.800001 -7.0585 -5.3135 -5.804 -4.2 
-8.517 -8.7845 -10.504 -5.753 -10.038 -9.4845 -9.691501 -11.2688 -7.867001 -5.804 
-9.7655 -13.921 -11.0225 -10.6205 -12.9319 -10.2095 -14.0646 -13.8223 -7.867001 
-14.902 -14.4395 -15.89 -13.5144 -13.6569 -15.0126 -16.6181 -13.8223 
-3.091 -4.235 -4.745 -5.1875 -4.231 0 -3.284 -4.2 
-5.1065 -7.6115 -10.4425 -8.122001 -4.231 -3.284 -5.804 
-8.902 -14.049 -13.6904 -8.122001 -7.720501 -5.804 
-15.7983 -17.2969 -13.6904 -11.9631 -9.202501 
-19.0462 -17.2969 -17.5315 -13.4451 
-2.9805 -2.229 -4.235 -2.186 -3.383 -6.152 -1.7695 -6.0695 -5.2835 -4.2245 -1.756 -3.284 -4.1985 0 
-4.2145 -5.509 -5.9235 -4.438 -7.8605 -8.472 -8.4245 -10.2925 -9.874001 -5.7035 -5.3135 -5.834001 -4.1985 
-8.7545 -6.9395 -8.023001 -8.696501 -10.0745 -15.5744 -12.8629 -15.563 -11.5454 -9.1675 -8.279 -5.834001 
-10.1145 -9.255501 -12.6211 -11.3197 -17.1769 -20.0128 -18.1334 -17.2344 -15.0094 -10.598 -8.279 
-12.4805 -13.9382 -15.2443 -18.4221 -21.6153 -25.2833 -19.8048 -20.6984 -16.4399 -10.598 
