-4.759 
n/a 
n/a 
n/a 
n/a 
-4.759 
n/a 
n/a 
n/a 
n/a 
-4.759 
n/a 
n/a 
n/a 
n/a 
-4.759 
n/a 
n/a 
n/a 
n/a 
-6.0985 -2.264 -1.4985 -4.502 -1.7565 -4.489 -1.756 -4.621 -1.934 -5.256 -3.8275 
-8.113501 -2.9195 -5.415501 -5.475 -6.212 -6.2105 -6.6635 -6.839001 -7.201 -10.1765 
-8.452001 -7.058501 -5.821001 -9.986 -7.283 -7.7605 -8.0135 -12.6954 -13.1443 
-12.9092 -7.251501 -10.1675 -11.3318 -8.790501 -9.072001 -14.0713 -18.6387 
-13.1022 -11.7822 -11.7681 -12.8393 -10.2035 -15.2316 -20.0146 
-5.256 -5.2825 -1.4985 -4.401 -1.7565 -9.110001 
-9.992001 -6.092 -5.646501 -5.5075 -8.48 
-11.0545 -9.892 -5.8205 -10.9605 
-14.8545 -9.929001 -11.4692 
-14.8915 -15.7505 
-2.9805 -4.1085 -1.4985 -4.401 -1.7565 -9.110001 -1.934 -5.256 -3.8275 
-5.3915 -5.7445 -5.646501 -5.5075 -8.48 -8.975 -7.201 -10.1765 
-6.8235 -10.3615 -5.8205 -10.9605 -9.229501 -14.1589 -13.1443 
-11.6163 -10.5345 -11.4692 -12.4582 -15.0221 -20.4564 
-11.7893 -16.2898 -12.7033 -18.8912 -21.1878 
-5.256 -5.675 -1.4985 -4.401 -1.7565 -14.734 -1.934 -1.4985 -3.8275 0 
-10.0575 -6.7545 -5.646501 -5.5075 -17.4652 -17.6762 -2.6125 -4.726 -3.8275 
-10.0945 -9.2495 -5.8205 -21.0435 -19.701 -18.3547 -5.815001 -4.726 
-14.0007 -9.283501 -21.5522 -23.3477 -20.3795 -21.5572 -5.815001 
-14.0347 -25.1972 -23.5928 -24.0262 -23.582 -21.5572 
