-4.759 
n/a 
n/a 
n/a 
n/a 
-4.759 
n/a 
n/a 
n/a 
n/a 
-4.759 
n/a 
n/a 
n/a 
n/a 
-4.759 
n/a 
n/a 
n/a 
n/a 
-2.7835 -2.4265 -4.474 -1.934 -3.873 0 -3.873 -2.186 -5.3235 -1.756 -4.9125 0 
-4.1745 -6.977 -5.244 -5.96 -3.873 -3.873 -5.709 -6.8455 -6.4 -6.5215 -4.9125 
-9.486501 -8.146001 -9.5165 -5.96 -6.5605 -5.709 -10.9467 -7.79 -10.4265 -6.5215 
-10.4275 -12.6133 -9.5165 -8.904 -8.546 -10.9467 -11.8912 -12.0117 -10.4265 
-14.8948 -12.6133 -12.5515 -10.575 -13.9779 -11.8912 -16.1129 -12.0117 
-3.034 -4.4995 -1.934 -3.873 -1.4985 -3.995 -5.6565 -1.756 -3.882 -8.522 0 
-8.505501 -5.663 -5.96 -5.7185 -4.712 -8.114 -6.91 -5.047 -13.5764 -8.522 
-10.1475 -10.2755 -8.061501 -8.579 -8.2475 -9.0715 -9.712501 -15.4062 -13.5764 
-14.76 -12.377 -11.1308 -12.4793 -9.144 -12.1474 -20.3891 -15.4062 
-16.8615 -15.4463 -15.0311 -13.3758 -12.2719 -22.824 -20.3891 
-2.7835 -4.638 -1.934 -5.3155 -3.4425 -5.3155 -3.681 -2.4945 -4.5925 -4.9345 -1.756 -4.9125 
-7.9655 -5.472 -8.4165 -9.696501 -9.32 -9.8205 -5.112 -6.002501 -7.094 -6.248 -6.5215 
-8.6475 -12.4709 -13.1363 -15.761 -13.848 -10.5465 -8.436001 -8.649 -8.1905 -8.485001 
-16.2224 -17.1907 -19.2008 -20.289 -14.574 -14.6471 -11.3325 -9.576501 -10.5465 
-20.9422 -23.2552 -23.7288 -21.015 -18.6746 -17.5436 -12.26 -12.0179 
-2.7835 -2.4265 -4.066 -1.934 -3.873 -2.4265 -2.742 -3.5185 -4.285 -1.7695 -3.873 0 
-4.1745 -4.728 -5.226 -5.96 -6.274 -4.095 -5.4405 -8.4475 -5.118001 -5.5015 -3.873 
-6.476501 -6.3 -10.586 -8.6965 -7.7345 -6.614 -10.016 -9.1805 -8.248501 -5.5015 
-7.752501 -11.8788 -13.3225 -10.3605 -10.3475 -11.4237 -10.4395 -12.4462 -8.248501 
-13.7899 -14.6153 -14.9865 -12.9735 -15.1844 -11.8472 -13.7052 -12.4462 
