-4.759 
n/a 
n/a 
n/a 
n/a 
-4.759 
n/a 
n/a 
n/a 
n/a 
-4.759 
n/a 
n/a 
n/a 
n/a 
-4.759 
n/a 
n/a 
n/a 
n/a 
-5.3745 -4.891 -8.6555 -3.999 
-7.061501 -14.8113 -10.7335 
-18.374 -16.8893 
-20.452 
n/a 
-3.9155 -3.6215 -1.7565 -4.6805 -4.891 
-6.0065 -3.936 -5.852 -10.784 
-6.6665 -8.346001 -12.7673 
-11.6327 -16.5099 
-19.7966 
-4.248 -4.891 -3.9155 -3.999 0 
-10.533 -10.6095 -6.565001 -3.999 
-16.2515 -13.259 -6.565001 
-18.901 -13.259 
-18.901 
-5.3745 -4.5845 -2.229 -3.9155 -3.515 
-9.233001 -5.886001 -6.496 -6.453 
-10.5435 -11.2686 -7.943 
-15.9261 -12.7156 
-17.3731 
