-4.759 
n/a 
n/a 
n/a 
n/a 
-4.759 
n/a 
n/a 
n/a 
n/a 
-4.759 
n/a 
n/a 
n/a 
n/a 
-4.759 
n/a 
n/a 
n/a 
n/a 
-1.934 -1.4985 -3.158 -4.4245 0 -4.891 -3.251 -3.7555 -6.3195 -2.5195 -1.4985 -4.267 -4.2995 -1.756 -3.9535 -5.368 -1.4985 -3.499 -1.7565 -5.1845 -6.844 -4.2995 -3.1385 0 
-2.6125 -4.178 -6.678 -4.4245 -4.891 -7.578501 -6.323501 -8.763 -7.3485 -3.1695 -5.119 -7.484 -5.518 -5.4855 -7.748 -6.149 -4.967 -4.306 -6.580501 -6.9655 -9.83 -7.7385 -3.1385 
-5.265 -7.764501 -6.678 -9.64 -7.578501 -10.8922 -11.8086 -9.196 -7.7665 -6.757 -8.855 -8.403001 -9.116 -8.518001 -8.4405 -9.6665 -5.2225 -9.465 -7.1625 -10.022 -13.4006 -7.7385 
-8.179501 -7.764501 -12.3733 -12.3693 -10.8922 -16.3773 -12.2416 -9.864 -11.6656 -10.688 -9.892 -12.2872 -12.3551 -9.1785 -12.0402 -9.713 -10.597 -10.0744 -10.4268 -13.651 -13.4006 
-8.179501 -13.9488 -15.1026 -15.683 -16.3773 -16.8103 -12.9096 -13.9229 -15.5966 -11.725 -14.3276 -15.5263 -13.0156 -12.815 -12.0867 -15.3609 -11.2064 -13.3387 -14.0558 -13.651 
-1.934 -4.4245 -1.4985 -3.9375 -3.499 -3.0465 -3.8275 -1.7695 -1.4985 -5.1845 -4.437 0 
-5.6155 -5.9645 -7.464001 -8.09 -6.1115 -8.267 -5.9455 -2.7955 -6.5205 -10.7335 -4.437 
-6.6595 -12.1948 -12.0997 -11.1035 -12.302 -10.181 -6.8295 -7.821001 -12.7849 -10.7335 
-13.1378 -16.8305 -15.1132 -17.294 -14.216 -11.1958 -12.431 -14.2502 -12.7849 
-17.7735 -19.844 -21.3037 -19.208 -15.2308 -16.7973 -18.8602 -14.2502 
-1.934 -4.4245 0 -4.891 -4.794 -2.5195 -5.7505 -3.4075 -4.248 -3.9235 -1.756 -5.198 -3.499 -1.7565 -3.571 -3.6135 -5.7505 -7.59 -5.1845 -5.7505 -4.248 -3.9235 
-5.6155 -4.4245 -4.891 -10.1905 -5.6105 -8.5845 -9.618501 -7.528501 -8.2085 -5.2145 -6.6705 -8.765501 -4.306 -5.085001 -6.1925 -10.411 -13.8973 -13.4315 -12.2294 -10.5553 -8.2085 
-5.6155 -9.64 -10.1905 -11.177 -12.5067 -12.7087 -14.0235 -12.0978 -9.822001 -10.621 -9.923 -8.8035 -7.5965 -8.1 -13.6152 -19.0108 -19.7388 -20.4764 -17.0342 -14.5158 
-11.3692 -14.9813 -11.177 -18.0732 -16.6309 -17.1137 -18.5928 -13.7113 -15.2497 -13.8735 -9.942 -12.2322 -11.0321 -15.6549 -22.215 -24.8523 -26.7837 -25.2812 -20.9947 
-16.7105 -15.9678 -18.0732 -22.1974 -21.0359 -21.683 -20.2063 -19.139 -18.5022 -13.8925 -13.3337 -15.6678 -18.587 -24.2547 -28.0565 -31.8972 -31.5885 -29.2417 
-1.934 -4.4245 -5.3745 -4.891 -6.3195 -2.5195 -6.844 -3.4075 -7.2165 -2.3335 -2.95 -1.4985 -4.1735 -6.844 -4.5675 0 -3.091 -3.499 -2.4945 -5.198 
-5.6155 -10.004 -7.061501 -12.4753 -7.3485 -9.828501 -9.23 -9.607 -9.413501 -4.8245 -4.514 -4.445 -12.4173 -11.1355 -4.5675 -3.091 -7.204 -5.2055 -6.884 
-11.7332 -11.691 -16.038 -13.5043 -15.3167 -12.2145 -16.1696 -11.552 -9.507501 -5.870501 -7.650001 -12.834 -16.7088 -11.1355 -8.495001 -7.204 -8.543 -8.9785 
-13.4202 -20.6675 -17.067 -21.4725 -17.7027 -19.1541 -18.2561 -11.89 -10.2365 -8.416 -16.1448 -17.1255 -16.7088 -15.063 -12.7252 -8.543 -12.4538 
-22.3967 -21.6965 -25.0352 -23.8585 -24.6423 -21.2406 -18.4271 -12.505 -12.212 -16.9882 -20.4363 -17.1255 -20.6363 -19.2932 -14.0642 -12.4538 
