-4.759 
n/a 
n/a 
n/a 
n/a 
-4.759 
n/a 
n/a 
n/a 
n/a 
-4.759 
n/a 
n/a 
n/a 
n/a 
-4.759 
n/a 
n/a 
n/a 
n/a 
-3.5455 -4.8555 -4.9225 -4.3155 -2.3345 -1.4985 -4.065 -3.5435 -1.7695 -3.213 -1.934 -4.0685 -4.366 -4.0465 0 -4.7495 -5.418 0 -1.756 -2.985 -5.7305 -3.152 -3.849 -2.5045 -5.3745 -6.4735 0 
-9.0115 -10.523 -8.977 -5.9085 -3.233 -4.824 -6.1265 -5.157001 -4.1345 -4.4465 -7.065 -8.228001 -8.309501 -4.0465 -4.7495 -8.9175 -5.418 -1.756 -4.2025 -6.610001 -7.921 -5.9565 -6.305 -8.2145 -9.6175 -6.4735 
-14.8786 -14.5775 -10.8176 -6.477 -6.0125 -6.2165 -7.368 -7.412001 -5.2645 -9.7845 -11.9579 -12.9661 -8.309501 -9.127001 -8.9175 -8.9175 -6.318 -4.2025 -7.1775 -8.726501 -10.0855 -8.2095 -12.1186 -12.6649 -9.6175 
-18.9331 -16.4181 -11.3861 -8.9965 -7.1655 -7.4075 -9.6895 -8.578501 -10.8569 -14.994 -16.696 -12.9661 -13.557 -13.6758 -8.9175 -9.853001 -8.554 -7.1775 -9.1765 -10.76 -12.3385 -14.1591 -16.569 -12.6649 
-20.7737 -16.9866 -13.9056 -10.4505 -8.116 -9.721001 -10.9444 -14.4789 -16.0664 -19.7321 -16.696 -18.2136 -18.1058 -13.6758 -9.853001 -12.089 -11.65 -9.1765 -11.2676 -13.013 -18.2881 -18.6095 -16.569 
-1.934 -4.8555 -3.5455 -1.4985 -4.065 -5.866 0 -3.1385 -3.152 -5.7565 -2.3345 -1.4985 -4.065 -1.7695 -3.213 -1.934 -4.366 -1.756 -4.7495 -5.2765 -3.45 -3.1385 -2.4945 -3.849 -10.6925 -8.27 0 
-6.8655 -8.7925 -3.91 -4.824 -8.135 -5.866 -3.1385 -5.219 -7.6925 -8.019501 -3.233 -4.824 -7.098001 -4.1345 -4.4465 -6.847 -5.707 -6.177 -7.6105 -9.5915 -5.45 -4.588 -5.410501 -14.7021 -19.2163 -8.27 
-9.587501 -9.129001 -7.4805 -8.734 -8.135 -9.424 -5.219 -10.4809 -10.1345 -8.764 -6.0125 -7.293 -9.362 -5.2645 -9.509501 -7.988 -8.6485 -9.1115 -12.3687 -11.7337 -6.6845 -7.6235 -16.5572 -23.2259 -19.2163 
-9.889001 -12.7887 -9.927501 -8.734 -12.023 -11.8347 -10.4809 -12.9229 -10.628 -11.9085 -8.0185 -9.438001 -9.9285 -9.927 -10.635 -10.0505 -9.956 -13.9477 -14.5109 -12.9682 -9.0085 -18.9816 -25.081 -23.2259 
-13.6057 -15.2357 -9.927501 -13.0798 -14.4337 -17.0966 -12.9229 -13.4164 -13.7725 -13.9145 -9.509001 -9.9575 -10.7545 -11.1675 -12.6975 -11.4042 -14.9444 -16.0899 -15.7454 -15.2922 -20.3976 -27.5054 -25.081 
-1.934 -1.4985 -5.9905 0 -6.4735 -3.152 -4.3155 -1.7695 -4.628 -4.743 -1.7695 -3.213 -1.934 -1.4985 -4.366 -1.756 -4.7495 -5.7765 0 -2.3345 -1.4985 -4.065 -3.5435 -2.985 -5.4975 -2.4945 -3.8245 -1.934 -1.4985 -6.175 -3.892 -1.7565 -3.502 -4.628 -4.743 0 
-2.6125 -6.5425 -5.9905 -6.4735 -8.1625 -6.024 -4.928 -6.618001 -4.7515 -7.046 -4.1345 -4.4465 -2.6125 -5.523001 -5.707 -6.177 -7.669001 -5.7765 -2.3345 -3.233 -4.824 -6.1265 -7.370501 -6.622 -7.3345 -5.751 -4.7245 -2.6125 -7.061501 -8.009001 -5.131001 -4.9855 -8.626 -4.7515 -4.743 
-6.856 -6.5425 -13.0992 -8.1625 -10.0375 -6.5845 -8.771501 -6.7625 -7.0655 -9.3315 -5.2645 -5.06 -6.8715 -7.381001 -8.6485 -8.3985 -7.669001 -7.9715 -3.233 -6.0125 -6.2165 -9.2635 -11.2455 -7.910501 -9.3275 -6.158 -5.4215 -7.628 -8.566501 -8.6575 -7.1195 -10.2535 -8.683001 -4.7515 
-6.856 -13.9264 -14.7882 -10.0375 -10.58 -9.8915 -8.787001 -8.145 -9.344501 -10.148 -5.901 -9.3385 -8.649 -9.646001 -9.2235 -8.3985 -9.9305 -8.794001 -6.0125 -7.1655 -9.2755 -13.4391 -12.534 -9.85 -9.664501 -6.855 -9.701 -8.9135 -9.036 -10.66 -13.2599 -10.2785 -8.683001 
-14.3237 -15.6154 -16.6632 -10.58 -10.757 -9.981001 -10.8633 -9.759501 -10.186 -10.63 -9.635 -10.598 -10.0645 -9.979501 -9.2235 -10.7118 -10.722 -10.476 -7.1655 -10.194 -13.4635 -14.7276 -14.4735 -10.2465 -10.2215 -11.4869 -10.735 -9.2865 -11.0047 -16.8004 -13.2849 -10.2785 
-3.5455 -1.4985 -3.158 -4.8555 -5.1845 -3.1385 -3.152 -3.9595 -1.7695 -6.6585 -1.7695 -1.934 -1.4985 -4.366 -4.995 -1.756 -4.7495 -5.7765 -1.756 -2.925 -3.152 -3.849 -2.5045 -4.938 -6.4735 0 
-3.91 -4.178 -7.659 -10.9575 -7.4095 -5.219 -5.4355 -4.9785 -8.6355 -9.160501 -4.9225 -2.6125 -5.523001 -7.6945 -6.2995 -6.177 -7.669001 -6.784 -4.2585 -4.203 -5.9565 -6.305 -7.530001 -12.7717 -6.4735 
-5.429 -7.851 -14.214 -13.1825 -9.253 -7.554501 -6.3615 -12.5687 -10.1465 -12.4085 -5.7225 -6.8715 -8.547001 -8.774501 -10.702 -8.3985 -8.5425 -9.289001 -5.539 -6.750501 -8.2095 -11.4341 -15.6307 -12.7717 
-10.0155 -14.5796 -16.439 -15.026 -11.6791 -7.8325 -13.9249 -14.0797 -13.3945 -13.2085 -10.442 -9.2395 -9.547501 -13.3252 -12.9235 -9.4195 -11.2339 -10.598 -8.2685 -9.1555 -13.4746 -19.5348 -15.6307 
-16.9039 -16.8046 -18.2825 -17.4521 -11.9571 -15.9729 -15.4359 -17.3277 -14.1945 -17.928 -12.81 -10.3045 -14.1426 -15.5467 -13.9445 -12.1879 -12.5429 -13.3275 -10.503 -14.3856 -21.5753 -19.5348 
