-4.759 
n/a 
n/a 
n/a 
n/a 
-4.759 
n/a 
n/a 
n/a 
n/a 
-4.759 
n/a 
n/a 
n/a 
n/a 
-4.759 
n/a 
n/a 
n/a 
n/a 
-1.934 -3.801 -2.7295 -2.742 -4.1995 -2.7455 -1.4985 -4.0035 -3.0695 -4.899 -3.3255 -3.514 
-6.1505 -6.751 -4.076 -5.519 -6.561501 -3.637 -5.609 -6.592 -6.87 -7.6195 -7.187 
-8.897501 -8.436501 -6.157 -7.975 -6.988 -7.688 -7.825001 -10.1765 -9.500501 -12.0462 
-10.4425 -9.904 -8.309501 -8.4775 -11.7094 -9.837501 -11.7109 -12.9692 -14.103 
-12.2266 -12.3521 -8.7865 -13.3131 -13.8589 -13.7234 -14.5036 -17.5717 
-1.934 -1.4985 -3.801 -4.558 -3.815 -4.1575 -2.5195 -1.4985 -3.324 -9.445001 -9.7735 
-2.6125 -5.1485 -8.098001 -7.8755 -6.273001 -6.918 -3.1695 -4.304501 -13.7924 -10.821 
-6.6845 -9.147 -11.8711 -9.691 -8.158001 -7.461 -6.1085 -15.3875 -15.1684 
-10.3745 -12.9257 -13.6866 -11.7868 -9.0845 -11.0202 -17.5457 -16.7635 
-14.1532 -14.7412 -15.7824 -12.7133 -12.7647 -22.4574 -18.9217 
-3.514 -3.3755 -4.7895 -1.934 -3.801 
-8.5635 -7.592 -6.325 -6.1505 
-13.223 -9.3435 -9.286 
-14.9745 -12.5125 
-18.1435 
-4.558 -1.934 -3.801 -3.815 -3.514 -2.5195 -9.445001 -9.7735 -4.2675 
-6.273 -6.1505 -7.503 -6.184 -6.2095 -12.6381 -10.821 -14.1602 
-11.1687 -10.1945 -10.071 -8.354 -16.9585 -14.0141 -15.2077 
-15.2127 -13.0849 -12.241 -19.435 -18.3345 -18.4008 
-18.1031 -15.2549 -23.322 -20.811 -22.7212 
