-4.759 
n/a 
n/a 
n/a 
n/a 
-4.759 
n/a 
n/a 
n/a 
n/a 
-4.759 
n/a 
n/a 
n/a 
n/a 
-4.759 
n/a 
n/a 
n/a 
n/a 
-2.3615 -3.685 -2.5045 -1.8085 -5.262 -2.0935 -2.985 -3.9655 -4.931 0 
-4.9725 -5.0275 -3.3625 -6.8695 -7.1055 -4.3315 -6.0915 -7.2765 -4.931 
-6.7755 -5.5675 -7.667 -9.219501 -8.9635 -7.3885 -9.5635 -7.2765 
-7.624 -9.798501 -10.1265 -11.2837 -10.718 -11.1855 -9.5635 
-12.511 -12.2728 -12.3447 -13.0382 -14.515 -11.1855 
-3.1495 -3.7805 -2.4945 -3.2955 -2.3345 -6.293 -3.6825 -2.0935 -4.519 0 
-6.506001 -6.093 -4.6305 -4.534 -9.0325 -9.3745 -5.525 -6.731 -4.519 
-7.397 -9.081 -5.836 -11.9932 -12.3546 -11.3202 -9.781 -6.731 
-10.304 -10.7335 -13.724 -15.3153 -14.3003 -15.5762 -9.781 
-11.9565 -18.6215 -17.0461 -17.261 -18.5563 -15.5762 
-2.3615 -3.9515 -3.152 -4.1205 -2.5045 -4.823 -2.0935 -3.091 -3.9655 -3.6825 0 
-7.3915 -6.4605 -5.803 -5.3175 -7.4445 -6.851501 -4.5345 -6.0905 -5.6945 -3.6825 
-9.3195 -9.748501 -7.0725 -10.8167 -9.144 -8.831501 -7.3125 -7.816 -5.6945 
-12.8043 -10.736 -12.5805 -12.5162 -10.108 -11.7495 -9.190001 -7.816 
-13.7918 -16.244 -14.28 -13.4802 -13.026 -13.627 -9.190001 
-3.1495 -4.3225 -5.227 -2.5045 -1.4985 -4.3035 -1.7565 -1.4985 -6.9985 -3.97 
-6.4915 -9.4405 -5.9 -3.583 -5.152 -5.7185 -2.4195 -7.8605 -9.333 
-10.688 -10.182 -6.904 -6.729 -6.3525 -6.251 -8.442 -10.757 
-11.4295 -11.186 -10.185 -7.639 -6.707 -13.0365 -11.5493 
-12.4335 -14.467 -10.458 -8.393001 -13.8263 -16.1438 
