-4.759 
n/a 
n/a 
n/a 
n/a 
-4.759 
n/a 
n/a 
n/a 
n/a 
-4.759 
n/a 
n/a 
n/a 
n/a 
-4.759 
n/a 
n/a 
n/a 
n/a 
-4.432 -4.328 -2.186 -1.4985 -3.8385 -1.7565 -4.2085 -3.5435 0 
-4.899 -6.1995 -3.339 -4.778501 -4.716001 -5.6585 -6.275001 -3.5435 
-6.8605 -7.622 -6.4125 -5.202 -8.3035 -8.040501 -6.275001 
-8.032001 -8.5165 -6.582 -8.809501 -10.7175 -8.040501 
-8.5745 -8.525001 -10.4239 -11.9417 -10.7175 
-1.4985 -3.8385 -1.7565 -1.4985 -4.2085 -3.5435 -2.186 -1.4985 -4.432 -4.328 
-4.778501 -4.716001 -2.4195 -4.987 -6.275001 -5.2365 -3.339 -5.268001 -4.899 
-5.202 -5.204 -5.748001 -6.4715 -7.757001 -6.643001 -6.747 -5.504 
-5.5205 -8.187 -7.5755 -7.787 -9.661001 -8.675501 -7.657001 
-8.561501 -10.057 -9.364 -9.73 -11.7827 -8.716001 
-4.432 -4.328 -2.742 -2.489 -1.4985 -3.691 -4.2245 
-4.899 -6.6955 -3.301 -3.9675 -5.8135 -8.599501 
-7.3715 -7.464 -4.8715 -9.397 -12.0378 
-8.089001 -8.923 -9.986 -15.6339 
-9.342 -14.2497 -16.2229 
-4.432 -4.328 -2.186 -1.4985 -4.2245 -1.7565 -3.691 0 
-4.899 -6.1995 -3.339 -5.2345 -5.277 -4.930501 -3.691 
-6.8605 -7.622 -6.2205 -5.753 -8.572001 -4.930501 
-8.032001 -9.0205 -6.864 -9.0045 -8.572001 
-9.053 -9.035 -9.9245 -9.0045 
