-4.759 
n/a 
n/a 
n/a 
n/a 
-4.759 
n/a 
n/a 
n/a 
n/a 
-4.759 
n/a 
n/a 
n/a 
n/a 
-4.759 
n/a 
n/a 
n/a 
n/a 
-3.7375 -4.1145 -4.584 -1.756 -3.7375 -4.346 
-8.4875 -9.8485 -5.525 -6.0675 -7.4805 
-15.1083 -10.8567 -10.598 -9.7865 
-16.1165 -15.9297 -14.317 
-21.1895 -19.6487 
-2.0935 -4.015 -4.346 -1.7565 -6.396 -2.229 -4.928 -2.4945 -4.2175 -1.4985 -4.936 -1.7695 -3.3165 
-6.0345 -8.127501 -4.81 -8.507 -8.0845 -6.947001 -6.916 -5.2625 -5.5915 -6.654 -6.3985 -4.0585 
-9.405001 -8.285501 -12.2619 -9.557 -13.1157 -8.488501 -10.564 -7.122 -10.5745 -8.3415 -8.9455 
-9.521001 -15.8608 -13.3119 -14.62 -14.6572 -12.2059 -12.4235 -12.485 -10.7755 -10.3405 
-17.1961 -16.9108 -18.3749 -16.1615 -18.3746 -14.0654 -17.7865 -12.686 -12.7745 
-3.7375 -4.1145 -5.322 -3.013 -2.6165 -3.9915 -1.4985 -4.015 -4.346 
-8.4875 -8.583 -8.495 -3.724 -5.161 -4.907 -5.216001 -8.127501 
-13.8428 -13.8192 -8.775001 -5.5865 -5.9015 -8.973001 -9.23 
-19.079 -14.0992 -10.7593 -6.182 -10.204 -13.2154 
-19.359 -16.0835 -11.3548 -10.749 -14.4464 
-3.135 -1.7565 -4.1145 -4.867 -2.186 -4.6515 -4.3235 -3.4715 -3.2945 0 
-3.9195 -6.695001 -9.665001 -6.5645 -5.5395 -9.213 -9.4875 -7.2665 -3.2945 
-10.1555 -13.2073 -11.3697 -10.718 -10.096 -14.8246 -13.5719 -7.2665 
-16.7838 -14.912 -15.5232 -15.2745 -15.73 -18.909 -13.5719 
-18.4885 -19.0655 -20.0797 -20.9085 -19.8144 -18.909 
