-4.759 
n/a 
n/a 
n/a 
n/a 
-4.759 
n/a 
n/a 
n/a 
n/a 
-4.759 
n/a 
n/a 
n/a 
n/a 
-4.759 
n/a 
n/a 
n/a 
n/a 
-6.864 -4.0965 -3.9535 -1.7695 -5.843 
-8.968 -8.774 -5.098001 -8.4405 
-13.8389 -9.666 -13.0044 
-14.7309 -17.5724 
-22.6373 
-1.4985 -3.826 -4.126 -1.7565 -10.4705 
-4.4325 -6.2925 -5.221001 -13.1762 
-6.541 -6.695 -17.4101 
-6.798501 -19.0463 
-19.2432 
-2.4265 -3.7905 -1.7695 -6.864 -3.5435 -4.5105 -3.539 -2.264 -1.4985 -6.444 0 
-6.357 -6.848001 -9.3815 -10.089 -8.209001 -8.7475 -5.0015 -2.9195 -7.335 -6.444 
-8.8535 -14.7568 -12.6535 -15.4139 -12.919 -10.634 -5.4835 -9.509501 -7.335 
-16.7763 -18.0288 -17.9784 -20.1239 -14.8055 -11.116 -12.5753 -9.509501 
-20.0483 -23.3537 -22.6884 -22.0104 -15.2875 -18.2078 -12.5753 
-8.164001 -3.5435 -2.8645 -2.6165 -7.367001 
-12.2311 -5.259501 -4.475 -9.216001 
-13.9471 -6.7365 -12.6087 
-15.4241 -15.1708 
-23.8584 
