-4.759 
n/a 
n/a 
n/a 
n/a 
-4.759 
n/a 
n/a 
n/a 
n/a 
-4.759 
n/a 
n/a 
n/a 
n/a 
-4.759 
n/a 
n/a 
n/a 
n/a 
-2.3615 -5.011 -1.8085 -3.319 -4.414 -4.0555 -1.7695 -3.3435 -2.3345 -1.4985 -3.6615 -4.4825 -1.934 -1.4985 -4.7335 -1.7565 -1.4985 -5.5705 -1.7565 -5.1745 -5.2465 -4.414 0 
-8.157001 -5.936 -5.18 -7.222 -8.211 -4.7475 -5.041 -5.503 -3.233 -4.9455 -7.941 -5.5625 -2.6125 -6.066501 -6.5015 -2.4195 -6.6125 -6.354001 -7.358 -8.0045 -9.015 -4.414 
-9.452001 -9.206 -8.9175 -11.6528 -9.148001 -6.948 -6.6695 -6.735001 -7.035 -8.895 -8.588 -6.0375 -7.1375 -7.208 -7.144 -7.498001 -7.234 -10.6465 -9.424 -9.210001 -9.015 
-13.0904 -9.8345 -13.8291 -12.5898 -11.6071 -8.9755 -7.629001 -10.9854 -11.1513 -9.5865 -8.975 -11.1065 -8.227 -7.784 -12.6297 -8.4965 -11.5993 -12.7125 -10.7959 -9.210001 
-13.7189 -14.8753 -14.7661 -15.0489 -13.6346 -10.1945 -12.0756 -15.1017 -11.8428 -9.8625 -14.0152 -12.196 -8.816 -13.3887 -13.6282 -12.902 -13.6653 -14.0844 -10.7959 
-2.4265 -2.186 -5.011 -1.8085 -3.319 -4.9835 -5.111 -2.186 -3.999 -1.7565 -2.3615 -3.319 -4.414 -3.7825 -3.6615 -4.474 
-3.292 -8.0235 -5.936 -5.18 -8.201 -8.7985 -7.3715 -7.394501 -4.5785 -3.523 -4.9575 -7.222 -8.783001 -7.7215 -6.551001 
-9.555 -8.7865 -9.206 -9.945001 -12.1656 -9.844501 -13.1464 -7.716001 -7.614501 -5.678 -10.634 -12.2248 -13.0038 -11.0686 
-10.22 -12.1823 -10.293 -13.9682 -13.2116 -15.9878 -13.4679 -11.6044 -10.5225 -11.4765 -15.6368 -16.4456 -16.3509 
-13.8146 -13.2693 -14.3162 -15.0142 -19.3549 -16.3093 -17.3563 -14.5124 -16.321 -16.4793 -19.8576 -19.7927 
-1.934 -4.4525 -1.8085 -3.4715 -1.7565 -5.1745 -1.756 -5.2465 -3.074 -3.5185 -1.4985 -3.4625 -1.7695 -6.2775 0 
-7.2765 -6.534 -5.492001 -4.173 -7.358 -7.010001 -7.6375 -9.1495 -6.0145 -4.9765 -4.940001 -5.0775 -8.7535 -6.2775 
-9.511001 -10.7627 -5.806 -10.2085 -8.386 -9.569 -11.8965 -12.2102 -7.5235 -8.095 -6.3085 -12.3915 -8.7535 
-13.7511 -11.0767 -12.0297 -11.2365 -11.2964 -13.9446 -14.9572 -13.7192 -10.3095 -10.2135 -13.9041 -12.3915 
-14.0651 -17.3004 -13.0577 -14.1469 -15.672 -17.0053 -16.4662 -16.5052 -13.8546 -17.8091 -13.9041 
-2.3615 -12.16972 -1.8085 -3.2795 -4.414 -10.707 -1.7565 -5.111 -3.6615 -2.0935 -3.188 -4.9835 -3.0415 -2.3615 -4.6205 
-15.81942 -13.97822 -4.5305 -8.593 -16.1996 -12.7559 -6.5825 -9.734 -5.47 -5.7145 -9.323501 -7.5025 -5.189 -6.0985 
-17.62792 -16.70022 -11.066 -20.6752 -18.2485 -17.5819 -11.8763 -11.8061 -8.9835 -12.8978 -11.9863 -9.5865 -8.676001 
-20.34992 -23.23572 -23.1482 -22.7241 -23.0745 -22.8757 -13.9484 -15.3196 -17.0568 -15.5606 -14.0703 -13.1193 
-26.88542 -35.31792 -25.1971 -27.5501 -28.3683 -24.9478 -17.4619 -23.3929 -19.7196 -17.6446 -17.6031 
