-4.759 
n/a 
n/a 
n/a 
n/a 
-4.759 
n/a 
n/a 
n/a 
n/a 
-4.759 
n/a 
n/a 
n/a 
n/a 
-4.759 
n/a 
n/a 
n/a 
n/a 
-2.5195 -4.805 -3.9055 -1.7695 -4.8555 -3.9055 0 -2.186 -3.849 -3.9785 -4.4915 
-7.314 -7.995501 -6.068 -6.290501 -8.259501 -3.9055 -2.186 -4.8565 -7.717 -5.7 
-9.755501 -9.617001 -9.731001 -9.214001 -8.259501 -6.0895 -4.8565 -8.905001 -9.536501 
-10.1885 -13.406 -9.906 -9.214001 -10.5135 -8.7285 -8.905001 -11.0037 
-13.9775 -13.581 -9.906 -11.5612 -13.1525 -12.971 -11.0037 
-4.805 -3.9055 0 -4.8555 -3.9055 -2.186 -3.9205 -2.5045 -3.9785 -3.8405 
-7.995501 -3.9055 -4.8555 -8.259501 -6.0895 -4.9645 -4.449 -6.999001 -7.447001 
-7.995501 -8.311501 -8.259501 -10.5135 -9.38 -5.539 -8.4685 -10.7575 
-10.0285 -8.88 -10.5135 -13.804 -9.656501 -9.519 -12.2252 
-10.0335 -11.8674 -13.804 -14.0805 -13.9461 -13.3229 
-28.8435 -2.3615 -2.95 -4.5875 -3.9785 -3.7515 
-30.8055 -4.4645 -8.2865 -9.676001 -6.294 
-33.91 -9.896501 -13.5266 -11.9787 
-39.342 -15.1558 -15.8293 
-44.6013 -17.4585 
-1.4985 -7.143 -1.7565 -4.805 -3.9055 -1.7695 -4.8555 -3.9055 -2.186 -4.5085 -1.7695 -2.5045 -1.4985 -4.87 -3.8405 0 
-7.738001 -8.498 -6.813001 -7.995501 -6.068 -6.290501 -8.259501 -6.0895 -5.704 -4.58 -4.8865 -3.583 -5.655001 -6.6495 -3.8405 
-9.040001 -13.7635 -10.2035 -9.617001 -9.731001 -9.214001 -10.5135 -10.089 -5.734 -5.027 -5.532 -7.278 -6.988501 -6.6495 
-14.4733 -17.154 -11.825 -13.406 -9.906 -11.5612 -14.513 -10.1655 -5.9255 -5.5875 -9.0985 -9.603001 -6.988501 
-17.8638 -18.7755 -15.614 -13.581 -12.2532 -15.5607 -14.5895 -10.432 -6.4625 -9.1095 -10.2045 -9.603001 
