-4.759 
n/a 
n/a 
n/a 
n/a 
-4.759 
n/a 
n/a 
n/a 
n/a 
-4.759 
n/a 
n/a 
n/a 
n/a 
-4.759 
n/a 
n/a 
n/a 
n/a 
-2.4265 -2.186 -2.6165 -5.2655 -4.3655 -4.881 -3.602 -3.8825 -3.522 -1.934 -3.6065 -4.2915 -2.4945 -8.9455 -3.3255 -6.665 0 0 
-3.292 -3.5105 -7.4115 -8.938 -9.637501 -9.7505 -7.196 -7.3385 -5.1765 -4.9755 -6.0305 -6.186 -9.5445 -9.482 -10.4595 -6.665 0 
-4.443 -8.477 -11.421 -14.4102 -14.6104 -13.4365 -12.4976 -8.650001 -9.004001 -6.6245 -7.755 -11.472 -9.948501 -16.7234 -10.4595 -6.665 
-9.6495 -12.8327 -16.8932 -19.3831 -18.2964 -18.7381 -13.8091 -12.7129 -10.244 -8.606001 -13.507 -12.8625 -17.2417 -16.8412 -10.4595 
-14.5466 -18.3049 -21.8661 -23.0691 -23.598 -20.0496 -17.872 -13.9529 -12.2255 -14.534 -14.8975 -20.7963 -17.3983 -16.8412 
-2.871 -3.9035 -1.7565 -4.824 -1.7695 -3.013 -5.651501 -4.2175 -8.9525 -4.1145 -4.267 -1.7695 -4.96 0 
-7.709001 -4.616 -8.0745 -6.0705 -3.7215 -8.529501 -8.366001 -14.2066 -13.1936 -8.887501 -6.9425 -7.723001 -4.96 
-8.975 -11.7948 -9.632001 -9.5105 -9.071501 -12.642 -20.5956 -18.4477 -17.9666 -11.7654 -13.3976 -7.723001 
-16.2684 -13.3523 -13.3576 -16.1231 -15.0264 -23.5837 -24.6879 -23.2207 -20.8445 -18.2205 -13.3976 
-17.8259 -17.0779 -19.9702 -21.239 -25.7377 -27.8248 -29.4609 -26.0986 -27.2996 -18.2205 
-1.934 -2.871 -3.32 0 -6.687 -2.4945 -2.6165 -7.114 -3.6885 -4.928 -2.4945 -3.557 -1.934 -4.698 -4.1145 -2.9705 -2.186 -3.672 -1.934 -4.39 -2.356 -2.8965 -4.1395 -2.229 -4.928 
-4.2805 -6.3585 -3.32 -6.687 -8.535 -3.8065 -8.2775 -10.6135 -8.554501 -6.916 -5.304 -4.4175 -6.7225 -10.3425 -7.2135 -3.89 -4.538 -4.818 -5.3235 -5.401 -4.4085 -6.7245 -6.4815 -6.947001 
-7.2405 -6.3585 -11.287 -8.535 -9.684501 -8.968 -12.1703 -16.6087 -10.419 -9.8015 -5.732501 -8.466001 -12.9488 -13.4415 -7.685 -6.5425 -5.7565 -8.389501 -5.4405 -6.4205 -9.8465 -8.8825 -11.9577 
-7.2405 -14.8615 -13.135 -9.684501 -15.0997 -12.923 -17.9779 -18.4732 -13.3045 -10.096 -9.937501 -15.3067 -16.0478 -13.913 -11.1693 -7.5695 -9.085 -8.5585 -6.4395 -12.5207 -12.0045 -14.7591 
-15.9039 -16.7095 -14.2845 -15.0997 -19.156 -18.6262 -19.8424 -21.3587 -13.599 -14.301 -16.7424 -18.4057 -16.5193 -17.3973 -12.1963 -11.265 -9.113501 -9.6525 -12.5571 -14.6787 -17.8811 
-3.17 -5.0835 0 -3.034 -3.6615 -1.7695 -2.664 -3.522 -2.4945 -3.43 0 -2.925 -3.7905 -3.333 -4.302 -3.436 -5.4465 -2.9995 -3.396 0 -2.847 -4.0505 -2.7835 -2.925 -4.3185 -2.664 -3.731 0 -2.4945 -4.936 -5.7195 0 -2.4285 -3.4765 -4.308 -5.3115 0 
-5.4675 -5.0835 -3.034 -6.535 -4.667 -4.185 -4.9235 -6.184 -4.758 -3.43 -2.925 -5.532001 -5.6385 -6.456 -5.849 -7.384501 -7.706 -6.7005 -3.396 -2.847 -4.7785 -5.7465 -4.2715 -5.9875 -6.0205 -4.6365 -3.731 -2.4945 -6.548 -9.416 -5.7195 -2.4285 -4.719501 -8.635501 -7.899 -5.3115 
-5.4675 -7.3655 -6.535 -7.8065 -6.965 -6.2555 -8.281 -9.0845 -4.758 -6.7315 -5.532001 -6.164001 -8.9385 -9.2215 -9.838 -8.408 -10.0675 -6.7005 -6.1845 -4.7785 -6.4865 -6.975 -7.0115 -7.8715 -7.5955 -4.6365 -6.84 -6.548 -9.874001 -9.416 -7.781 -4.719501 -9.4025 -10.0745 -7.899 
-7.846001 -10.061 -7.8065 -9.4075 -8.977 -9.418501 -9.9975 -9.0845 -7.576 -9.363501 -6.164001 -9.967001 -9.9805 -10.0925 -10.092 -10.092 -10.0675 -9.7825 -7.406 -6.4865 -7.567 -9.804501 -8.757501 -9.653501 -7.5955 -7.9595 -10.031 -9.874001 -9.874001 -9.934 -8.891 -9.4025 -10.0935 -10.0745 
-10.0885 -10.098 -9.4075 -10.09 -10.064 -10.075 -9.9975 -10.0855 -9.708 -10.069 -9.967001 -10.097 -10.097 -10.0985 -10.1015 -10.092 -10.098 -9.9945 -9.896501 -7.567 -9.9195 -10.095 -9.84 -9.653501 -10.054 -10.081 -10.097 -9.874001 -10.035 -10.098 -10.0925 -10.0935 -10.0935 
