-4.759 
n/a 
n/a 
n/a 
n/a 
-4.759 
n/a 
n/a 
n/a 
n/a 
-4.759 
n/a 
n/a 
n/a 
n/a 
-4.759 
n/a 
n/a 
n/a 
n/a 
-3.013 -2.5235 -4.384 -2.5045 -2.5235 -4.384 
-5.346001 -6.666 -6.346001 -4.9075 -6.666 
-7.541501 -7.848001 -8.878 -9.012501 
-8.824501 -10.459 -13.1394 
-11.3433 -14.7204 
-4.384 -3.3875 -2.489 -3.8535 -3.115 -4.384 
-7.4385 -3.7975 -4.6325 -6.9255 -8.463 
-7.592 -5.927 -7.5815 -12.6091 
-9.523001 -9.331 -13.4269 
-13.0032 -15.211 
-2.9805 -6.816 -2.5045 -4.384 -2.5045 -4.384 
-8.664001 -10.533 -7.5955 -6.346001 -7.5955 
-12.631 -15.624 -10.016 -9.85 
-17.722 -18.0445 -13.4454 
-20.1425 -21.4739 
-4.384 -1.7695 -2.489 -4.3665 -2.5045 -4.384 -3.098 
-5.398 -3.1405 -5.175 -6.078501 -7.5955 -7.710001 
-7.2155 -5.7455 -6.8595 -10.1425 -10.7495 
-8.705501 -7.622 -11.1941 -13.6689 
-10.575 -12.006 -14.7205 
