-4.759 
n/a 
n/a 
n/a 
n/a 
-4.759 
n/a 
n/a 
n/a 
n/a 
-4.759 
n/a 
n/a 
n/a 
n/a 
-4.759 
n/a 
n/a 
n/a 
n/a 
-3.2615 -2.3615 -4.896 -1.4985 -3.9675 -3.6825 -5.2285 -3.5445 -4.67 0 
-5.276 -8.877501 -6.111501 -5.1285 -7.797501 -7.429501 -7.172 -5.226 -4.67 
-12.0426 -9.981 -10.147 -8.113501 -11.8781 -9.519501 -7.443501 -5.226 
-13.1461 -14.0165 -13.132 -12.3397 -13.9681 -9.8255 -7.443501 
-17.1816 -17.0015 -17.3582 -14.4297 -14.2741 -9.8255 
-3.2615 -2.3615 0 -3.986 -3.9535 -1.7695 -4.866 -3.7015 -3.9675 -3.6825 -4.433 0 -3.5445 -4.67 0 
-5.276 -2.3615 -3.986 -7.7565 -5.098001 -5.2455 -6.205 -8.713 -7.797501 -6.437 -4.433 -3.5445 -5.226 -4.67 
-5.276 -7.073501 -7.7565 -8.883 -8.4065 -6.6005 -11.9549 -12.884 -10.459 -6.437 -6.725 -5.226 -5.226 
-9.637 -9.456 -8.883 -12.3967 -9.983001 -12.3848 -16.1259 -15.5455 -10.459 -8.889 -7.192 -5.226 
-12.1235 -11.4393 -12.3967 -13.9732 -15.9067 -16.5558 -18.7874 -15.5455 -12.911 -9.857 -7.192 
-3.321 -3.986 -3.9675 -3.6825 -4.896 -3.5445 -9.049001 
-7.299 -9.318001 -7.797501 -7.9645 -8.9525 -13.5179 
-13.1708 -13.5364 -12.4131 -11.9706 -19.1183 
-17.3892 -18.152 -16.4192 -22.1364 
-22.0048 -22.1581 -26.585 
-3.2615 -2.3615 -3.986 -3.9535 -9.561001 -3.7015 -4.4225 -4.433 -3.5445 -8.8245 
-5.276 -7.073501 -7.7565 -14.806 -10.9375 -7.51 -6.5315 -6.725 -13.2934 
-9.637 -9.456 -19.1788 -16.4071 -15.2614 -9.1125 -8.335501 -17.0749 
-12.1235 -21.7351 -20.7267 -20.5656 -16.8639 -10.244 -19.2504 
-24.4026 -23.283 -24.8852 -22.1681 -17.9954 -21.4447 
