-4.759 
n/a 
n/a 
n/a 
n/a 
-4.759 
n/a 
n/a 
n/a 
n/a 
-4.759 
n/a 
n/a 
n/a 
n/a 
-4.759 
n/a 
n/a 
n/a 
n/a 

n/a 
n/a 
n/a 
n/a 
-1.4985 -4.352 
-4.71 
n/a 
n/a 
n/a 
-2.985 -3.399 -5.3315 -2.186 -3.325 -1.4985 -5.116 -1.7565 -5.762 
-6.0185 -8.814001 -7.2225 -5.2405 -3.898 -5.823501 -6.531 -8.423 
-12.0707 -10.361 -9.9665 -6.0125 -9.021 -6.805 -13.8161 
-13.6177 -13.105 -10.2685 -11.6455 -10.6345 -14.1893 
-16.3617 -13.407 -15.9015 -13.259 -18.0188 
-3.7435 -1.7695 -2.489 -4.992 -2.186 -3.8825 -1.934 -1.4985 -4.1365 -4.1375 0 
-5.539001 -3.1405 -6.319 -8.057501 -5.3085 -4.9695 -2.6125 -4.6595 -5.6385 -4.1375 
-6.786 -6.6635 -9.198 -11.3762 -5.859 -5.375 -5.95 -6.0435 -5.6385 
-8.506001 -9.395 -12.5703 -11.9267 -6.2535 -8.688001 -7.237 -6.0435 
-11.5287 -12.7847 -13.1208 -12.3212 -9.688001 -10.2876 -7.237 
