-4.759 
n/a 
n/a 
n/a 
n/a 
-4.759 
n/a 
n/a 
n/a 
n/a 
-4.759 
n/a 
n/a 
n/a 
n/a 
-4.759 
n/a 
n/a 
n/a 
n/a 
-3.45 -2.4945 -4.031 0 -4.887 0 -4.5095 -3.991 0 -1.756 -5.564 
-5.354 -8.1745 -4.031 -4.887 -4.887 -4.5095 -8.2645 -3.991 -1.756 -7.147501 
-11.4216 -8.1745 -9.726501 -4.887 -9.7125 -8.2645 -8.2645 -5.0735 -7.147501 
-11.4216 -14.2422 -9.726501 -9.7125 -13.6547 -8.2645 -9.440001 -11.6072 
-17.4893 -14.2422 -14.798 -13.6547 -13.6547 -9.440001 -16.0915 
-2.5195 -1.4985 -3.177 -1.756 -4.142 -1.4985 -4.6045 -2.4945 -3.43 
-3.1695 -4.0915 -5.392 -5.724 -6.291 -6.428 -6.695001 -4.758 
-5.4125 -5.755 -5.944 -7.6805 -11.4293 -7.869 -7.651 
-7.1085 -6.237 -7.854 -12.9688 -12.8703 -8.762 
-7.8605 -8.213 -13.1923 -14.4098 -13.7633 
-3.45 -2.4945 -4.1355 0 -5.5985 -3.333 0 -5.512 -3.333 0 -3.766 -4.1545 0 
-5.354 -8.030001 -4.1355 -5.5985 -8.634501 -3.333 -5.512 -9.276501 -3.333 -3.766 -6.373 -4.1545 
-10.6215 -8.030001 -10.9575 -8.634501 -8.634501 -8.6835 -9.276501 -9.276501 -7.7165 -6.373 -6.373 
-10.6215 -15.187 -13.9935 -8.634501 -14.7694 -10.223 -9.276501 -13.8714 -10.7067 -6.373 
-17.7785 -18.223 -13.9935 -14.7694 -16.3089 -10.223 -13.8714 -16.8616 -10.7067 
-2.3335 0 -3.473 0 -3.498 0 -4.7615 -3.7075 0 -3.737 -3.7075 -3.074 0 
-2.3335 -3.473 -3.473 -3.498 -3.498 -4.7615 -9.9925 -3.7075 -3.737 -7.678 -6.724501 -3.074 
-6.9445 -3.473 -7.160501 -3.498 -9.601501 -9.9925 -9.9925 -7.8575 -7.678 -10.9118 -6.724501 
-6.9445 -7.160501 -7.160501 -9.601501 -14.7465 -9.9925 -14.1425 -12.3365 -10.9118 -10.9118 
-11.2174 -7.160501 -13.7342 -14.7465 -14.7465 -14.1425 -18.6215 -15.5703 -10.9118 
