-4.759 
n/a 
n/a 
n/a 
n/a 
-4.759 
n/a 
n/a 
n/a 
n/a 
-4.759 
n/a 
n/a 
n/a 
n/a 
-4.759 
n/a 
n/a 
n/a 
n/a 
-3.5025 -3.777 0 -5.0125 -4.1145 -8.664001 -2.356 -5.31 -1.756 -5.032 -1.4985 -3.5495 -1.756 -4.0705 -4.2325 0 
-7.437 -3.777 -5.0125 -11.046 -13.2983 -9.729501 -7.898001 -7.0645 -5.9055 -5.92 -4.612 -5.1075 -5.5905 -6.858001 -4.2325 
-7.437 -8.4125 -11.046 -20.2298 -14.3638 -16.2711 -9.061501 -11.7838 -6.7215 -9.068001 -5.968 -9.106001 -7.799 -6.858001 
-12.5811 -15.1614 -20.2298 -21.2953 -20.9054 -17.4346 -13.9196 -12.5998 -9.538001 -9.89 -9.755 -11.6093 -7.799 
-19.33 -24.3452 -21.2953 -27.8369 -22.0689 -22.2927 -14.7356 -15.4163 -10.6615 -13.8192 -12.4047 -11.6093 
-3.16 -3.9885 -3.7495 -2.742 -2.489 -4.107 -2.0935 -4.7155 -4.1145 -2.229 -5.31 -1.756 -3.16 -3.5495 0 
-4.5575 -6.3235 -5.816501 -3.301 -5.12 -4.239501 -5.7005 -9.913501 -6.818501 -7.4745 -7.0645 -4.9715 -5.0605 -3.5495 
-6.6955 -8.2365 -6.551001 -5.614 -5.184 -6.2355 -11.2563 -12.7775 -12.754 -8.7115 -10.8498 -7.014 -5.0605 
-8.677 -9.393001 -8.914001 -5.640501 -7.229 -12.4163 -14.1203 -18.713 -13.991 -13.3242 -12.8923 -7.014 
-9.8345 -11.9554 -8.943001 -7.6285 -13.4798 -15.2803 -20.0558 -19.95 -18.6037 -15.3667 -12.8923 
-3.432 -3.213 -4.285 -4.1445 0 -4.1145 -3.974 -3.432 -3.5495 -1.7695 -4.1225 -3.8385 0 
-6.553 -7.575 -6.249001 -4.1445 -4.1145 -7.094501 -8.088 -6.733 -5.312 -6.488 -8.1075 -3.8385 
-11.1 -10.4358 -6.249001 -9.4795 -7.094501 -12.2033 -10.0315 -9.067 -10.4425 -10.9556 -8.1075 
-13.9608 -10.4358 -11.9798 -12.6327 -12.2033 -14.1468 -12.5139 -14.2445 -15.4229 -10.9556 
-13.9608 -16.1666 -15.133 -17.7415 -14.1468 -16.6292 -17.6914 -19.2249 -15.4229 
-3.16 -2.9775 -3.777 0 -4.1145 -3.974 -1.756 -3.16 -2.9775 -3.5495 -7.2715 -1.756 -4.892 -3.429 -4.2325 0 
-4.6715 -7.0105 -3.777 -4.1145 -7.094501 -5.3655 -4.9715 -4.6715 -6.8055 -10.9855 -9.6315 -6.019 -8.194 -5.858 -4.2325 
-8.1125 -7.0105 -8.036 -7.094501 -8.84 -7.7625 -7.026 -7.002501 -15.3233 -13.3455 -13.9409 -9.611 -11.0402 -5.858 
-8.1125 -11.9183 -11.743 -8.84 -11.7218 -10.4115 -10.494 -16.7985 -17.6833 -17.6549 -17.5329 -12.645 -11.0402 
-13.6631 -15.6253 -13.4885 -11.7218 -14.3708 -13.8795 -20.29 -19.1585 -21.9927 -21.2469 -20.5669 -12.645 
