-4.759 
n/a 
n/a 
n/a 
n/a 
-4.759 
n/a 
n/a 
n/a 
n/a 
-4.759 
n/a 
n/a 
n/a 
n/a 
-4.759 
n/a 
n/a 
n/a 
n/a 
-5.1765 -2.264 -2.4265 -3.043 -2.4265 -4.4275 
-5.521 -4.561 -5.627 -4.6235 -6.334001 
-7.85 -7.175 -7.072001 -8.135 
-10.7418 -9.2395 -10.8937 
-12.8063 -12.9098 
-3.321 -3.7825 -3.043 -2.4265 -3.8125 
-6.6475 -6.3765 -4.6235 -4.7235 
-8.4715 -7.8205 -5.0845 
-9.734 -8.465 
-10.5339 
-3.2615 -2.3335 -3.803 -3.043 -2.4265 -3.8125 0 
-5.0495 -6.558001 -6.1145 -4.6235 -4.7235 -3.8125 
-8.6675 -8.948501 -7.666 -5.0845 -4.7235 
-11.5382 -10.5975 -9.438001 -5.0845 
-13.1872 -12.3695 -9.438001 
-5.0185 -3.043 -2.4265 -5.75 0 
-6.776 -4.6235 -7.206 -5.75 
-8.423 -8.005001 -7.206 
-10.31 -8.005001 
-10.31 
