-4.759 
n/a 
n/a 
n/a 
n/a 
-4.759 
n/a 
n/a 
n/a 
n/a 
-4.759 
n/a 
n/a 
n/a 
n/a 
-4.759 
n/a 
n/a 
n/a 
n/a 
-3.7375 -3.402 -4.463 -3.9285 -3.3035 -4.2705 -4.8915 -3.38 -3.557 -1.756 -5.501 -4.156 -3.9515 -3.4425 -3.5445 -9.162001 -3.264 -7.6355 -3.989 -4.4105 -1.4985 -4.4665 -4.463 -3.874 -1.934 -3.5125 0 
-6.502501 -8.486501 -7.9875 -7.51 -7.8145 -8.6595 -8.302 -8.0595 -5.749001 -7.503 -10.5535 -4.934 -5.8055 -7.2405 -11.4445 -11.6975 -10.396 -12.8533 -8.235001 -5.939 -4.729 -9.371 -8.444 -5.929 -5.129 -3.5125 
-12.2842 -12.379 -12.2534 -13.1338 -12.4995 -12.8272 -13.7615 -10.6119 -12.4092 -12.8369 -10.775 -7.324 -9.6385 -15.3003 -15.5295 -19.9083 -16.1472 -17.0993 -9.938001 -8.048 -9.582001 -10.336 -10.3675 -7.9795 -5.129 
-16.1767 -16.6449 -17.8772 -17.8188 -16.6672 -18.2867 -16.3139 -17.2721 -17.7431 -13.0584 -14.5162 -10.1985 -17.7323 -19.0955 -22.9831 -25.6595 -20.3932 -18.8023 -12.4434 -13.8062 -10.599 -12.2595 -10.771 -7.9795 
-20.4426 -22.2687 -22.5622 -21.9865 -22.1267 -20.8391 -22.9741 -22.606 -17.9646 -16.7996 -17.3907 -18.3955 -21.5275 -26.5491 -28.7343 -29.9055 -22.0962 -21.3077 -18.2016 -14.8232 -12.5225 -12.663 -10.771 
-2.3345 -1.4985 -4.3285 -1.7565 -3.5445 -12.16972 -3.8385 -1.7565 -1.4985 -3.6215 -1.7565 -12.16972 -3.38 -2.5045 -12.16972 -3.402 -3.7375 0 -2.688 -2.743 -5.181 -3.989 -2.8645 -3.6845 -2.645 -4.4665 -4.0305 -1.934 -3.5125 -1.7565 -4.417 0 
-3.233 -5.6765 -6.2225 -5.246 -16.63862 -16.00822 -4.716001 -2.4195 -4.3415 -3.936 -14.87542 -15.54972 -6.764501 -15.59162 -15.57172 -8.2845 -3.7375 -2.688 -6.2535 -6.565001 -9.649 -6.359 -7.8685 -5.862 -7.7065 -8.8295 -5.958001 -5.129 -4.312 -6.217501 -4.417 
-7.524001 -6.7245 -8.693001 -18.76452 -20.47712 -16.88572 -5.204 -5.1855 -4.621 -18.73592 -18.25542 -18.93422 -20.40042 -18.99362 -20.45422 -8.2845 -6.719501 -6.2535 -7.627001 -12.1816 -12.862 -11.8922 -9.863 -11.8541 -12.7873 -10.419 -9.7075 -6.7605 -9.289001 -6.217501 
-8.697001 -9.3415 -22.56872 -22.60302 -21.35462 -17.37372 -6.5395 -5.396 -19.88892 -22.11592 -21.63992 -32.57014 -23.80242 -23.87612 -20.45422 -11.6833 -11.385 -7.627001 -14.144 -15.3946 -18.3952 -13.8867 -16.1489 -16.9349 -14.3768 -14.1685 -10.2205 -12.2793 -9.289001 
-11.472 -23.33722 -26.40722 -23.48052 -21.84262 -18.70922 -6.7995 -20.76352 -23.26892 -25.50042 -35.27584 -35.97214 -28.68492 -23.87612 -23.85302 -16.3488 -12.7585 -14.144 -17.357 -20.9278 -20.3897 -20.1726 -21.2297 -18.5244 -18.1263 -14.6815 -16.0673 -12.2793 
-1.8085 -3.3825 -2.264 -1.4985 -3.7285 -4.037 -3.2 -2.186 -1.7695 -2.674 -7.3195 -4.519 0 -2.4285 -4.467 -11.671 -3.6705 0 -1.4985 -4.497 -3.3875 -3.973 -2.3345 -3.304 0 -3.8725 -2.871 0 -3.849 -1.8085 -3.8935 -4.4285 -2.7835 -4.668 -4.1855 -3.3875 -2.489 -3.2955 0 -3.908 -1.8085 -4.433 0 -1.4985 -2.871 -2.356 -1.4985 -6.2435 -4.1855 -2.4285 -3.9555 -3.0695 -4.331 -1.7695 -3.952 -2.985 -3.2015 -1.7695 -3.571 -4.433 0 -2.186 -4.226 -2.5195 -1.4985 -5.0185 0 
-5.643 -5.857 -2.9195 -5.0645 -7.094 -7.515 -4.7335 -3.8745 -3.8225 -8.842501 -11.364 -4.519 -2.4285 -6.705 -16.54 -15.509 -3.6705 -1.4985 -5.259 -7.1875 -6.527 -6.1315 -5.852 -3.304 -3.8725 -6.028501 -2.871 -3.849 -5.169 -4.6045 -6.5225 -7.2375 -7.433001 -8.824 -7.4795 -3.7975 -3.979 -3.2955 -3.908 -5.6785 -5.3985 -4.433 -1.4985 -4.316 -5.108 -3.1615 -6.4525 -7.9145 -6.9335 -5.6745 -4.922 -5.337 -4.593 -4.6075 -6.429501 -5.657001 -4.977 -4.6785 -6.9865 -4.433 -2.186 -5.554 -4.796 -3.1695 -5.674001 -5.0185 
-8.1075 -6.419001 -6.7045 -8.773001 -9.705 -8.9525 -6.3305 -5.5955 -10.199 -11.67 -9.463501 -7.0465 -6.705 -16.8635 -17.8125 -12.3475 -4.5585 -5.259 -7.737 -9.6385 -8.294001 -9.001501 -5.852 -6.331 -6.028501 -6.028501 -6.353 -5.169 -8.2825 -6.659 -8.803 -12.297 -12.024 -12.4138 -7.7135 -5.686 -3.979 -6.98 -5.6785 -9.26 -5.3985 -6.419 -4.316 -5.896 -5.8055 -7.052 -7.939001 -10.396 -10.038 -6.7435 -6.0645 -5.460001 -6.8745 -6.7295 -9.724501 -6.896 -8.27 -8.146501 -6.9865 -6.0815 -5.554 -6.024 -5.2695 -7.3675 -5.674001 
-8.522 -10.3035 -10.5035 -10.494 -11.2165 -10.6225 -8.295501 -12.022 -13.3622 -11.8962 -12.53 -10.6465 -15.0125 -17.5945 -15.1875 -10.6535 -8.653501 -7.737 -9.75 -10.0665 -10.647 -9.001501 -8.9565 -7.98 -6.028501 -9.989 -8.1705 -8.2825 -10.119 -8.983001 -13.8453 -16.888 -15.6138 -12.6478 -10.31 -5.686 -7.929501 -9.08 -9.26 -9.26 -7.4735 -8.681 -5.896 -6.127 -8.633 -8.5245 -10.4105 -13.5005 -11.5214 -7.7405 -6.1625 -8.040001 -9.092001 -9.972 -10.188 -9.637001 -9.731001 -8.146501 -8.497001 -9.091001 -6.024 -6.2535 -8.2445 -7.3675 
-12.5323 -14.1025 -12.2245 -12.0055 -12.8865 -12.5875 -14.21 -14.9362 -13.3622 -14.9627 -16.13 -18.954 -18.08 -18.08 -16.6535 -15.4573 -9.961 -9.75 -10.149 -12.8209 -10.647 -10.1305 -9.7795 -7.98 -9.989 -11.8065 -9.8855 -10.119 -12.443 -14.0117 -18.4363 -20.4778 -15.8478 -15.2443 -10.31 -9.604 -9.808001 -12.7865 -9.26 -11.4516 -9.98 -9.5295 -6.127 -8.681001 -10.142 -10.7175 -13.515 -14.9839 -12.5184 -7.8825 -8.960501 -9.742001 -12.4621 -10.379 -12.929 -10.0595 -9.731001 -9.972 -11.6247 -9.39 -6.2535 -9.697001 -8.2445 
-1.4985 -3.8825 -5.594501 -4.6865 -3.9515 -3.4425 -10.438 -12.16972 -1.7565 -5.8355 -3.002 -3.38 -2.9705 -2.186 -1.8085 -3.992 -6.670001 -3.922 -2.9705 -2.8645 -3.4425 -2.5045 -3.7375 -3.644 -2.688 -2.743 -5.181 -3.989 -2.8645 -3.8535 -1.8085 -3.383 -3.6135 -3.992 -5.258 -2.9705 -2.186 -2.6165 -3.8535 -3.436 -1.934 -1.4985 -3.5125 
-4.569 -9.006001 -10.1355 -7.939 -5.8055 -12.2555 -21.86652 -13.92622 -7.9245 -8.609 -6.736 -6.9935 -3.89 -3.164 -7.528 -10.4855 -11.2374 -6.395 -4.6335 -7.697001 -5.4165 -6.0125 -7.456 -6.441501 -6.2535 -6.565001 -9.649 -6.359 -5.189 -5.448 -4.1695 -5.8785 -8.925501 -7.0365 -8.152 -3.89 -3.5105 -5.685 -5.892 -5.8855 -2.6125 -4.7015 
-9.982 -15.01 -13.8275 -10.7568 -14.8859 -25.42402 -23.94262 -20.09422 -11.0668 -13.1934 -11.0447 -7.7455 -4.9965 -8.811001 -14.4695 -15.0529 -13.7104 -7.607 -9.4075 -9.9405 -8.612 -10.0185 -10.4425 -10.7175 -7.627001 -12.1816 -12.862 -8.534 -6.12 -7.1085 -6.1985 -10.5635 -12.2944 -9.742001 -8.958501 -5.319 -6.5055 -7.809 -7.552 -6.5755 -5.4205 
-15.6593 -18.3688 -17.0865 -19.956 -28.05682 -27.18052 -30.11062 -23.23652 -15.6512 -17.5021 -11.7967 -8.6035 -10.7595 -16.2411 -19.0369 -17.5259 -14.9224 -12.615 -11.917 -13.2326 -12.7508 -13.0372 -14.7185 -12.091 -14.144 -15.3946 -15.037 -9.7325 -7.5655 -9.753 -10.609 -14.249 -14.9999 -10.6765 -10.419 -8.3015 -9.007 -9.403501 -8.231 -7.6145 
-18.9227 -21.6278 -26.2857 -33.00812 -29.81332 -33.34852 -33.25292 -27.82092 -19.9599 -18.2541 -12.6547 -14.6155 -18.1896 -20.8085 -21.5099 -18.7379 -19.9304 -15.1245 -15.2091 -17.3714 -15.7695 -17.3132 -16.092 -18.608 -17.357 -17.5696 -16.2355 -11.234 -10.513 -14.3777 -14.2945 -16.9545 -15.9344 -12.137 -13.4015 -11.2964 -10.8135 -9.921 -9.2165 
