-4.759 
n/a 
n/a 
n/a 
n/a 
-4.759 
n/a 
n/a 
n/a 
n/a 
-4.759 
n/a 
n/a 
n/a 
n/a 
-4.759 
n/a 
n/a 
n/a 
n/a 
-2.3615 -4.434 -1.4985 -4.1 -1.7565 -3.926 -7.43 -1.7565 -9.2985 -6.864 -3.0695 -4.673 -1.4985 -4.1 -1.7565 -6.864 -5.0155 0 
-7.2515 -5.8565 -5.0695 -5.164001 -5.602 -9.2255 -7.741 -10.281 -9.762 -9.569 -6.485001 -5.842 -5.0695 -5.164001 -8.661 -12.6673 -5.0155 
-8.139501 -8.8245 -5.5715 -9.371 -11.5219 -9.3585 -16.6057 -10.7445 -12.687 -13.1777 -6.826 -9.9805 -5.5715 -13.1273 -14.7425 -12.6673 
-11.1805 -8.857 -9.903 -15.5293 -11.6549 -18.468 -17.0692 -13.6695 -16.2957 -13.5187 -11.1635 -10.181 -13.8336 -19.2088 -14.7425 
-11.213 -13.2951 -16.1619 -15.6623 -20.7644 -18.9315 -19.9942 -17.2782 -16.6367 -17.8562 -11.364 -18.3267 -19.9151 -19.2088 
-2.3615 0 -5.129 -1.7695 -3.251 -2.95 -12.16972 -4.799 
-2.3615 -5.129 -7.109 -5.2 -6.6755 -16.05332 -16.96872 
-9.024 -7.109 -10.4345 -9.041 -20.29942 -20.85232 
-11.1134 -10.4345 -14.2755 -22.95792 -25.09842 
-14.4389 -14.2755 -28.19242 -27.75692 
-2.3615 -4.3155 -2.664 -3.498 -1.7695 -1.4985 -3.882 -6.864 -4.6805 -3.115 -6.7145 -12.16972 -3.683 -5.753 0 
-6.848001 -6.583 -5.1155 -5.0505 -2.7955 -5.587 -9.551001 -8.916 -8.121 -9.7845 -19.64642 -15.85272 -7.8225 -5.753 
-8.723001 -7.396501 -5.5875 -5.871 -7.0315 -9.774 -10.4055 -12.5551 -14.8613 -22.76462 -23.32942 -19.99222 -7.8225 
-9.171 -7.406001 -6.119 -10.5896 -11.2693 -10.5065 -14.0446 -19.2954 -27.84142 -26.44762 -27.46892 -19.99222 
-9.198501 -7.767001 -11.0968 -14.8274 -12.0018 -14.1456 -20.7849 -32.27552 -31.52442 -30.58712 -27.46892 
-2.3615 -3.8055 -1.8085 -3.3365 -3.935 -2.0935 -1.4985 -5.362 -1.7565 -3.6185 -1.7565 -1.4985 -4.2085 -1.7565 -4.947 -7.4885 0 
-6.778501 -5.0005 -4.4295 -6.449 -5.8685 -2.9725 -6.038501 -5.843 -5.791 -5.093 -2.4195 -5.597 -4.991 -6.4835 -9.692 -7.4885 
-7.853001 -7.773 -7.066 -8.432 -6.9225 -8.106501 -6.073501 -10.8253 -6.624001 -6.048501 -6.7935 -5.8095 -10.1855 -11.6989 -9.692 
-10.9051 -8.538 -8.767 -9.284 -12.4419 -8.2145 -11.2096 -11.6583 -7.872 -10.6639 -7.369 -11.509 -15.4009 -11.6989 
-11.6701 -10.451 -9.7565 -14.9902 -12.5499 -13.5568 -12.0426 -12.9063 -13.0158 -11.2394 -13.2665 -16.7244 -15.4009 
