-4.759 
n/a 
n/a 
n/a 
n/a 
-4.759 
n/a 
n/a 
n/a 
n/a 
-4.759 
n/a 
n/a 
n/a 
n/a 
-4.759 
n/a 
n/a 
n/a 
n/a 
-3.693 -7.2175 -3.644 -3.135 -6.248 -1.7695 -8.267 0 
-10.884 -10.048 -6.5505 -7.7555 -7.612 -11.1415 -8.267 
-13.7145 -12.9545 -11.5508 -8.8295 -17.3638 -11.1415 
-16.621 -17.9548 -12.6248 -18.7605 -17.3638 
-21.6213 -19.0288 -22.5558 -18.7605 
-4.8315 -7.692 -4.8275 -3.595 
-13.1845 -13.1401 -6.848001 
-18.6326 -15.1606 
-20.6531 
n/a 
-3.074 0 -7.3025 -4.1585 -3.135 -6.248 -1.7695 -6.705 -5.171 
-3.074 -7.3025 -12.4488 -7.1445 -7.7555 -7.612 -9.1025 -7.959001 
-10.9855 -12.4488 -15.4348 -12.2568 -8.8295 -15.3248 -10.2755 
-16.1318 -15.4348 -20.5471 -13.3308 -16.7215 -16.4978 
-19.1178 -20.5471 -21.6211 -21.2228 -17.8945 
-3.321 0 -7.1705 -3.135 -7.4075 -1.7695 -8.267 
-3.321 -7.1705 -11.2189 -10.1555 -7.9165 -11.1415 
-11.08 -11.2189 -18.2394 -10.8715 -17.8729 
-15.1284 -18.2394 -18.9554 -20.8279 
-22.1489 -18.9554 -28.9118 
