-4.759 
n/a 
n/a 
n/a 
n/a 
-4.759 
n/a 
n/a 
n/a 
n/a 
-4.759 
n/a 
n/a 
n/a 
n/a 
-4.759 
n/a 
n/a 
n/a 
n/a 
-5.974 -3.401 -4.915 -4.834 -3.7465 -12.3885 -2.3615 -4.9405 -4.3915 -1.7695 -4.0035 -3.482 -2.5045 -3.7465 
-9.6595 -8.6855 -10.9242 -9.654 -12.8335 -11.106 -7.628 -9.948501 -5.3125 -5.920001 -6.4585 -5.9705 -5.0585 
-15.3958 -14.9945 -15.7442 -18.8184 -15.8742 -17.1507 -13.0846 -10.112 -11.0262 -8.498501 -7.8905 -8.511001 
-21.7048 -19.8145 -24.9086 -21.8591 -21.4667 -22.6073 -13.2481 -16.7641 -13.6047 -9.85 -9.245501 
-26.5248 -28.9789 -27.9493 -27.4516 -26.9233 -22.7708 -19.9002 -19.3426 -14.9562 -10.1495 
-1.8085 -3.997 -1.7565 -1.4985 -3.995 -2.229 -4.606 -1.934 -3.7465 
-5.029 -4.925 -2.4195 -4.712 -5.324 -6.2 -5.863 -6.7045 
-5.4325 -5.446 -5.2205 -5.586 -9.457001 -7.2575 -9.772 
-6.097 -8.171 -6.115 -10.1805 -10.9213 -11.3547 
-8.630001 -8.989 -10.8705 -11.6448 -15.0185 
-9.56 -2.229 -3.7465 -4.606 -2.186 -1.8085 -3.2795 -1.7565 -12.3885 -2.229 -3.682 0 
-12.0456 -5.891 -8.324 -6.435 -3.164 -4.5305 -4.4575 -10.4245 -11.26 -5.963 -3.682 
-15.7076 -11.0031 -10.3675 -7.670501 -5.9165 -4.854 -11.232 -12.7362 -15.5746 -5.963 
-20.8197 -13.0466 -11.603 -10.7556 -6.1445 -13.2337 -16.0695 -16.837 -15.5746 
-22.8632 -14.2821 -14.6881 -10.9836 -14.84 -16.6668 -19.9319 -16.837 
-2.6165 -4.403 
-5.794001 
n/a 
n/a 
n/a 
