-4.759 
n/a 
n/a 
n/a 
n/a 
-4.759 
n/a 
n/a 
n/a 
n/a 
-4.759 
n/a 
n/a 
n/a 
n/a 
-4.759 
n/a 
n/a 
n/a 
n/a 
-4.628 -4.743 -3.4005 -3.6045 -4.09 -4.4275 0 
-4.7515 -8.518 -6.718 -8.309 -9.6625 -4.4275 
-8.564 -12.3077 -12.2673 -14.1257 -9.6625 
-12.3813 -17.857 -18.084 -14.1257 
-17.9306 -23.6737 -18.084 
-3.3825 -1.7565 -6.899 -3.5435 -3.5035 
-4.3095 -8.5275 -8.7615 -6.2355 
-11.6715 -10.254 -11.6405 
-13.398 -13.133 
-16.277 
-4.628 -5.939 -3.4005 -4.0515 -4.4275 
-5.9615 -9.29 -7.247 -9.723001 
-9.372001 -13.5163 -13.4085 
-13.6447 -19.6778 
-19.8062 
-4.628 -5.939 -3.4005 -3.2 -4.814 -4.4275 
-5.9615 -9.29 -5.781 -7.5465 -9.8655 
-9.372001 -9.7445 -10.553 -12.8924 
-9.789001 -14.5425 -16.2749 
-14.587 -20.2644 
