-4.759 
n/a 
n/a 
n/a 
n/a 
-4.759 
n/a 
n/a 
n/a 
n/a 
-4.759 
n/a 
n/a 
n/a 
n/a 
-4.759 
n/a 
n/a 
n/a 
n/a 
-2.925 -4.5715 -1.4985 -4.811 -1.7565 -3.9745 -1.7565 -4.2655 
-7.179501 -5.9335 -6.2165 -6.440001 -5.221 -4.5865 -5.3855 
-8.065001 -11.2647 -6.771 -9.56 -7.403 -7.896501 
-13.4586 -11.8192 -10.388 -11.846 -10.66 
-14.0131 -15.4362 -12.674 -15.103 
-3.1495 -3.1385 -3.251 -4.6505 -2.7455 -1.4985 -4.994 -1.7565 -4.3705 -4.862 0 
-5.148 -5.812 -7.1755 -7.1545 -3.637 -6.661 -5.842501 -5.572001 -7.78 -4.862 
-7.1835 -10.316 -9.181001 -7.587 -8.618001 -7.560501 -10.3745 -9.118501 -7.78 
-11.8359 -12.3215 -9.683001 -12.7854 -9.037001 -12.4323 -13.921 -9.118501 
-13.8414 -12.8235 -14.9682 -13.2044 -14.1142 -15.9788 -13.921 

n/a 
n/a 
n/a 
n/a 
-2.925 -4.8905 -2.9905 -1.4985 -5.717 -1.756 -5.352 -1.4985 -4.385 -1.7565 -4.2655 -1.756 -4.1005 0 
-6.9835 -5.1545 -4.143 -6.8485 -6.651 -6.66 -6.15 -5.214 -4.933 -5.3855 -5.291 -5.3875 -4.1005 
-7.206 -6.1955 -8.732501 -8.2805 -12.491 -7.5005 -9.8125 -5.458 -8.137501 -6.265501 -9.889501 -5.3875 
-8.227501 -9.56 -9.793001 -13.7401 -13.3315 -11.2552 -10.007 -8.4635 -8.724501 -11.0066 -9.889501 
-11.6938 -10.6755 -15.3016 -14.5806 -17.0862 -11.4497 -13.3595 -9.0245 -13.823 -11.0066 
