-4.759 
n/a 
n/a 
n/a 
n/a 
-4.759 
n/a 
n/a 
n/a 
n/a 
-4.759 
n/a 
n/a 
n/a 
n/a 
-4.759 
n/a 
n/a 
n/a 
n/a 
-3.2615 -4.0225 -2.4945 -3.815 -3.098 0 
-6.504 -7.3305 -6.049 -7.511001 -3.098 
-11.1592 -11.6296 -9.231501 -7.511001 
-15.4583 -14.8121 -9.231501 
-18.6408 -14.8121 
-3.8985 -1.7565 -1.4985 -3.4635 
-4.74 -2.4195 -3.6265 
-5.3205 -4.594 
-8.370501 
n/a 
-4.3895 -2.186 -3.815 -3.397 -3.098 0 
-7.234 -5.8735 -6.8365 -5.008 -3.098 
-11.3859 -9.5985 -8.9595 -5.008 
-15.1109 -11.9669 -8.9595 
-17.4793 -11.9669 
-1.4985 -3.4635 -2.4945 -1.4985 -3.815 0 
-3.6265 -5.381001 -3.9315 -5.0275 -3.815 
-5.461 -6.125 -7.5395 -5.0275 
-6.259501 -9.5135 -7.5395 
-9.6 -9.5135 
