-4.759 
n/a 
n/a 
n/a 
n/a 
-4.759 
n/a 
n/a 
n/a 
n/a 
-4.759 
n/a 
n/a 
n/a 
n/a 
-4.759 
n/a 
n/a 
n/a 
n/a 
-8.512501 -2.7415 -1.8085 -3.301 -4.3285 -5.702 -1.756 -3.074 -1.8085 -4.698 -3.4185 -3.0695 -3.152 -8.445001 -2.7415 -3.9595 -2.5045 -3.091 -4.2245 0 
-10.7025 -3.891 -4.019 -7.279 -9.755501 -7.094 -4.566 -4.639 -6.8645 -7.448001 -5.832 -4.8015 -12.9068 -11.117 -5.2105 -5.597 -5.2025 -7.4385 -4.2245 
-11.852 -5.529 -7.575 -13.1342 -11.1795 -9.658 -6.037 -9.972501 -8.7215 -9.135501 -9.0445 -15.2213 -15.5788 -13.586 -6.9115 -8.5915 -8.758 -7.4385 
-13.49 -8.435 -13.63 -14.5582 -13.7435 -11.2048 -11.4171 -10.6515 -9.6215 -12.533 -19.5345 -17.8933 -18.0478 -15.287 -10.0095 -12.3322 -8.758 
-16.396 -14.7748 -15.054 -17.1222 -15.2903 -16.5849 -12.0961 -11.5515 -13.2738 -23.023 -22.2065 -20.3623 -19.7488 -18.385 -13.7502 -12.3322 
-7.5605 -2.229 -3.9655 -4.9 -1.756 -4.789 -2.7415 -2.229 -8.4665 0 -6.4655 -1.756 -6.5385 0 
-9.4475 -5.5855 -8.0425 -6.691 -5.9885 -7.323 -7.0135 -9.734501 -8.4665 -6.4655 -7.435 -8.0015 -6.5385 
-12.8492 -8.9315 -9.500501 -10.3675 -8.9005 -11.9102 -14.951 -9.734501 -15.4818 -7.435 -10.426 -8.0015 
-16.1952 -10.209 -13.204 -13.2795 -13.5073 -19.8477 -14.951 -16.8266 -16.4513 -10.426 -10.426 
-17.4727 -13.9125 -16.116 -17.8863 -21.4448 -19.8477 -22.0431 -17.7961 -19.4423 -10.426 
-1.4985 -12.16972 -4.9 -2.186 -8.512501 
-14.76202 -17.06972 -6.961 -11.9089 
-19.66202 -19.13072 -17.1941 
-21.72302 -29.36382 
-31.95612 
-8.512501 -3.0695 -2.7415 -1.4985 -3.2825 -4.126 -6.4655 -2.5045 -3.3235 -2.5045 -1.8085 -3.2825 -4.698 -3.4185 -1.7695 -4.4685 -8.445001 -4.3895 -2.5045 -1.8085 -5.4135 -4.9 0 
-11.1415 -4.6395 -4.063 -3.712 -7.796 -11.5211 -8.472501 -3.7105 -3.8485 -3.3625 -5.5105 -9.492001 -7.448001 -5.495 -5.2225 -13.9443 -13.5663 -6.761 -3.3625 -6.113 -10.647 -4.9 
-12.7115 -5.8275 -5.6455 -8.1105 -15.7107 -13.5281 -9.3865 -3.8545 -5.0445 -6.359 -12.6376 -12.4946 -9.0725 -7.663501 -15.2177 -19.0656 -15.9378 -7.667 -7.186 -11.8817 -10.647 
-13.8995 -7.4995 -9.878 -16.16 -17.7177 -14.4421 -9.458 -5.06 -8.388 -14.3371 -15.6402 -14.1191 -12.0602 -18.5533 -20.339 -21.4371 -16.8438 -11.8553 -13.0957 -11.8817 
-15.5715 -12.1288 -17.9275 -18.167 -18.6317 -14.5136 -9.932501 -8.396501 -17.0047 -17.3397 -17.2647 -17.1068 -22.95 -23.6746 -22.7105 -22.3431 -21.0321 -17.765 -13.0957 
