-4.759 
n/a 
n/a 
n/a 
n/a 
-4.759 
n/a 
n/a 
n/a 
n/a 
-4.759 
n/a 
n/a 
n/a 
n/a 
-4.759 
n/a 
n/a 
n/a 
n/a 
-2.5195 -2.3335 0 -2.9805 -4.803 -3.6055 -4.8625 -1.7695 -3.7905 -1.8085 -4.972 -1.756 -1.7695 -4.866 -2.0935 -2.985 -4.248 0 
-4.9535 -2.3335 -2.9805 -6.782001 -8.324 -8.9895 -6.746 -4.482 -4.255 -6.695001 -6.084 -3.963 -6.125501 -5.726 -4.3315 -6.4445 -4.248 
-4.9535 -4.1515 -6.782001 -9.718 -13.9152 -11.3458 -9.013 -4.959 -9.146501 -8.0915 -8.040501 -8.317 -7.222001 -7.79 -7.515 -6.4445 
-7.5485 -8.27 -9.718 -15.3364 -16.2715 -13.6128 -10.204 -9.727501 -10.622 -9.831501 -12.5257 -9.042 -8.232 -9.3435 -7.515 
-11.7456 -11.2492 -15.3364 -17.6927 -18.5385 -14.8038 -14.9725 -11.4118 -12.362 -14.4491 -13.2507 -10.4185 -9.93 -9.3435 
-3.321 -2.9805 -3.2345 -4.4755 -1.7695 -2.5685 -4.8625 -2.5195 -2.3615 -3.6825 0 
-5.175 -6.6905 -8.6645 -6.321 -4.2305 -7.3575 -7.1285 -4.4095 -6.2875 -3.6825 
-9.554001 -12.5293 -9.992001 -8.349 -8.3865 -9.3535 -9.217501 -8.248501 -6.2875 
-15.4108 -13.8568 -12.0098 -12.7466 -10.4105 -10.4605 -13.2901 -8.248501 
-16.7383 -15.8746 -16.4074 -14.7706 -11.5175 -14.5331 -13.2901 
-2.5195 -2.3615 -2.9805 -3.849 -2.264 -2.5685 -1.4985 -4.8625 -3.0365 -1.756 -5.787 -3.277 -1.7695 -4.3855 -2.985 -4.0695 -2.0935 -2.985 -3.2895 0 
-4.4095 -5.7 -5.641 -5.616 -4.5375 -3.7015 -5.7415 -7.73 -4.927 -7.2165 -8.8715 -4.261 -5.4125 -8.219001 -6.4145 -5.902 -4.3315 -5.671 -3.2895 
-7.534 -8.272501 -7.021501 -7.232 -5.618501 -7.832 -8.2565 -9.4305 -11.4617 -9.863001 -9.415501 -7.757501 -8.8325 -10.238 -8.3085 -8.212 -7.0045 -5.671 
-10.3707 -9.878501 -8.3205 -8.472 -10.286 -10.31 -9.953 -16.0166 -14.1082 -10.5465 -13.1758 -10.718 -10.523 -12.2792 -9.7585 -9.903501 -7.0045 
-11.9767 -11.1547 -9.439501 -13.3107 -12.764 -12.0065 -16.5391 -18.6631 -14.7917 -14.3068 -16.1363 -12.4085 -12.5642 -13.7292 -10.5065 -9.903501 
-5.5785 -3.4225 -4.8625 -1.756 -2.9805 -3.5185 -7.166 -1.756 -4.3855 -4.0695 -2.0935 -4.8625 -3.0465 -3.091 -3.2895 0 
-9.0555 -8.411 -6.1675 -4.3555 -7.6775 -9.3465 -8.382 -6.4005 -9.4545 -5.902 -6.978 -8.0105 -5.712501 -6.447001 -3.2895 
-14.3364 -10.533 -8.657001 -9.755001 -13.9437 -10.534 -13.2679 -12.1199 -11.6094 -10.7025 -9.749001 -10.477 -9.097 -6.447001 
-16.4584 -13.0225 -14.0841 -16.0558 -15.1312 -15.4199 -18.9873 -14.2748 -16.4099 -13.4735 -12.9785 -15.1325 -9.097 
-18.9479 -18.4496 -20.3849 -17.2433 -20.0171 -21.1393 -21.1422 -19.0753 -19.1809 -16.703 -17.634 -15.1325 
