-4.759 
n/a 
n/a 
n/a 
n/a 
-4.759 
n/a 
n/a 
n/a 
n/a 
-4.759 
n/a 
n/a 
n/a 
n/a 
-4.759 
n/a 
n/a 
n/a 
n/a 
-2.5685 -5.2755 -5.116 -2.8645 -3.1125 -6.532001 
-8.112 -8.859501 -7.8885 -3.5345 -7.969 
-12.0598 -11.956 -8.495 -8.297 
-15.1563 -12.5625 -13.4275 
-15.7628 -17.495 
-2.7295 -2.7765 -3.7085 -2.264 -4.449 -1.4985 -4.8255 -2.9705 -4.7595 -2.7455 -3.948 -4.841 -4.982 0 
-4.065 -5.4505 -5.496 -7.645 -5.367001 -5.955501 -7.1305 -6.3065 -7.3345 -6.3275 -7.719 -7.204 -4.982 
-6.407 -7.234 -11.929 -9.278 -10.4338 -8.132 -11.0493 -8.7825 -10.013 -9.865001 -9.6715 -7.204 
-8.179501 -13.9398 -13.562 -14.5184 -12.6103 -12.1578 -13.5253 -11.6094 -13.5505 -11.9477 -9.6715 
-15.0613 -15.5728 -18.8024 -16.6949 -16.6361 -14.6338 -16.3522 -15.1469 -15.6332 -11.9477 
-4.347 -2.5685 -12.16972 -2.7455 -4.8915 -5.189 -1.8085 -4.3615 -2.6165 -5.181 -3.1435 -3.3165 -4.4295 0 
-8.3645 -15.69382 -14.91522 -7.922 -10.2815 -6.5375 -6.007 -7.7335 -6.792001 -6.3485 -7.653 -8.601 -4.4295 
-21.71442 -18.43932 -20.09172 -13.65 -12.359 -10.016 -9.022 -12.549 -7.796 -12.1014 -13.2725 -8.601 
-24.45992 -23.61582 -25.81972 -15.7275 -15.8375 -13.4918 -13.9611 -13.553 -13.8793 -17.7209 -13.2725 
-29.63642 -29.34382 -27.89722 -19.206 -19.3133 -18.4309 -14.9651 -19.6363 -19.4988 -17.7209 
-4.067 -2.5685 -5.4525 -4.672 -4.8915 -2.7765 -2.489 -4.6505 0 
-5.208 -8.540501 -10.1115 -9.335001 -7.282 -3.495 -5.6895 -4.6505 
-11.5224 -13.4721 -14.7745 -11.8427 -7.4645 -6.2485 -5.6895 
-16.454 -18.1351 -17.2822 -12.0252 -10.2035 -6.2485 
-21.117 -20.6428 -17.4647 -14.7642 -10.2035 
