-4.759 
n/a 
n/a 
n/a 
n/a 
-4.759 
n/a 
n/a 
n/a 
n/a 
-4.759 
n/a 
n/a 
n/a 
n/a 
-4.759 
n/a 
n/a 
n/a 
n/a 
-3.16 -4.2695 -3.586 -3.4605 -1.7695 -2.9645 -2.8705 -4.2945 -3.7155 
-7.999001 -7.89 -7.394501 -5.2965 -3.812 -4.9945 -6.731501 -6.455501 
-12.1219 -12.3689 -9.961 -7.344 -5.718 -9.750001 -9.571001 
-16.6008 -14.9354 -12.0817 -8.219001 -10.176 -12.7381 
-19.1673 -17.0561 -12.9567 -14.0816 -13.1641 
-3.473 -3.794 0 -3.432 -4.1645 0 -3.766 -3.473 0 -3.9175 -1.7565 -9.138 -1.7695 -2.688 0 
-6.859 -3.794 -3.432 -8.370501 -4.1645 -3.766 -8.352001 -3.473 -3.9175 -4.64 -11.8437 -11.2985 -4.698 -2.688 
-6.859 -7.841001 -8.370501 -8.370501 -7.6 -8.352001 -8.352001 -7.67 -4.64 -15.687 -14.0042 -14.227 -4.698 
-11.2412 -13.8585 -8.370501 -11.9908 -13.1536 -8.352001 -13.0054 -10.2645 -15.687 -17.8475 -16.9327 -14.227 
-17.2587 -13.8585 -11.9908 -17.5444 -13.1536 -13.0054 -15.5999 -21.3115 -17.8475 -20.776 -16.9327 
-3.308 -4.2115 -3.308 -3.664 0 -2.925 -2.674 -1.7695 -3.335 -2.985 -6.2675 
-7.72 -7.5065 -7.455 -3.664 -2.925 -4.1785 -3.787 -4.5005 -5.911 -8.455501 
-10.3285 -12.4189 -7.455 -6.56 -4.1785 -5.305501 -6.3865 -6.2275 -10.634 
-15.2409 -12.4189 -11.0472 -7.093 -5.305501 -7.6945 -8.1415 -11.1611 
-15.2409 -16.0111 -11.5802 -7.252 -7.6945 -8.862501 -13.2503 
-4.9 -8.352501 -5.2485 -2.985 -3.5205 -4.2945 
-12.782 -14.5755 -9.022 -4.257 -6.646 
-19.5966 -18.8402 -10.143 -7.258 
-23.3423 -19.9612 -13.144 
-24.4633 -22.9622 
