-4.759 
n/a 
n/a 
n/a 
n/a 
-4.759 
n/a 
n/a 
n/a 
n/a 
-4.759 
n/a 
n/a 
n/a 
n/a 
-4.759 
n/a 
n/a 
n/a 
n/a 
-3.5065 -3.995 -2.229 -3.7745 -4.764 -2.7415 -6.053 -5.7065 -4.6545 0 -1.4985 -4.7885 -3.7345 -6.0415 -5.473 -3.6615 -2.0935 -3.819 -1.934 -1.8085 -4.7 -3.158 0 
-8.0275 -5.324 -5.7545 -6.691 -7.4995 -7.737 -11.1515 -10.2975 -4.6545 -1.4985 -5.282001 -5.866 -9.0635 -11.0145 -6.1595 -5.47 -5.924 -5.237 -3.2685 -6.017 -7.8665 -3.158 
-8.989 -9.1695 -8.63 -9.6635 -9.835501 -12.4902 -15.7404 -10.8699 -6.376 -5.282001 -7.474 -11.724 -14.6181 -11.701 -8.9715 -9.715 -6.991 -5.552001 -6.8985 -8.9455 -7.8665 
-13.0189 -12.4628 -11.7409 -12.0337 -14.6967 -18.7218 -16.4506 -13.2454 -9.686 -7.474 -13.7714 -17.2786 -15.3046 -14.513 -13.6873 -10.9868 -7.924 -10.5672 -9.848001 -8.9455 
-16.3122 -15.5737 -14.1111 -16.8949 -20.9283 -18.7218 -18.8261 -16.5554 -11.878 -13.7714 -19.326 -17.9651 -18.1166 -19.2288 -14.9591 -11.9198 -12.9096 -13.5167 -9.848001 
-1.4985 -5.101 -3.4625 -1.934 -1.4985 -3.995 -2.3345 -5.7065 -4.4125 -1.8085 -3.4155 -3.4625 -1.934 -1.4985 -4.113 -1.7695 -4.7 -3.158 -1.756 -3.43 -7.924 -4.862 -3.4795 0 
-5.9925 -8.6485 -4.565 -2.6125 -4.712 -6.273 -8.6425 -10.201 -5.774 -4.0495 -6.7955 -4.565 -2.6125 -5.425 -6.8815 -6.8215 -7.8665 -4.703 -5.055 -11.793 -12.108 -6.377501 -3.4795 
-9.983001 -9.227 -5.1315 -6.1055 -6.759501 -12.8655 -13.551 -12.251 -7.9125 -7.238501 -7.438 -5.1315 -6.684 -7.8295 -10.354 -10.4658 -9.196501 -7.641001 -14.0684 -16.9648 -15.0565 -6.377501 
-10.7535 -9.4025 -8.2005 -8.442 -13.6964 -18.6707 -15.8067 -14.5179 -10.5225 -7.825 -7.884 -8.151 -9.559001 -11.62 -13.9983 -11.7958 -12.5525 -16.8838 -19.0284 -19.6023 -15.0565 
-10.929 -13.2133 -11.1608 -15.6549 -19.5016 -20.3472 -18.0736 -17.1279 -10.69 -8.305 -10.5975 -10.503 -13.3845 -15.2643 -15.3283 -15.1518 -21.7953 -21.8438 -21.6659 -19.6023 
-1.4985 -4.764 -4.9375 -1.7565 -1.4985 -3.995 -2.186 -5.6755 -6.559 -2.5195 -3.1435 -5.373 -4.289 -2.3345 -5.7065 0 -1.4985 -3.4625 -1.934 -1.4985 -3.741 -3.2295 -1.4985 -4.285 -3.355 -1.7565 -1.4985 -3.995 -2.186 -3.8755 -2.0935 -1.8085 -4.7 -3.158 -1.7565 -7.924 -3.4795 0 
-5.909 -7.004001 -5.944 -2.4195 -4.712 -5.7465 -7.671 -10.523 -6.912001 -4.948 -8.1785 -11.117 -6.8125 -8.6425 -5.3485 -1.4985 -4.940001 -4.565 -2.6125 -4.967 -7.248 -3.844 -4.774 -6.216001 -3.725 -2.4195 -4.712 -5.7465 -5.2415 -5.467 -3.385 -6.017 -7.8665 -4.71 -9.420501 -10.608 -3.4795 
-9.315001 -8.160501 -6.2175 -5.2205 -6.1195 -10.7175 -12.8185 -10.876 -8.1525 -9.627001 -14.3049 -13.6405 -13.2908 -8.325001 -7.7775 -4.940001 -5.5415 -5.1315 -6.7285 -7.974501 -7.602 -7.405 -6.318 -6.357501 -4.0515 -5.2205 -6.1195 -8.967501 -6.593 -6.827 -7.6545 -8.9455 -9.39 -11.1925 -11.436 -9.169001 
-10.3105 -8.1975 -7.3685 -6.912 -10.757 -15.865 -13.1715 -12.1165 -13.2617 -15.9822 -16.8284 -20.1188 -13.2908 -9.9455 -10.2805 -5.5415 -6.1185 -7.412 -9.3655 -8.338 -10.354 -8.835501 -6.4315 -6.4915 -6.991 -6.912 -9.4385 -9.863001 -7.8645 -11.4559 -10.8356 -10.151 -11.7815 -10.66 -10.07 
-10.414 -10.5745 -8.848001 -11.7089 -15.9045 -16.218 -14.412 -17.2257 -19.6169 -18.5057 -23.3067 -20.1188 -14.9113 -12.6261 -10.307 -6.1185 -8.559 -10.1105 -9.597501 -10.442 -12.1741 -8.8735 -6.5445 -9.297501 -8.433001 -10.238 -10.3948 -11.5477 -12.7548 -14.637 -12.0411 -12.8697 -12.2047 -10.399 
-6.282 -5.284 -10.4705 0 -5.714 -3.8515 -2.5195 -3.1435 -5.284 -4.0325 0 -4.7475 -1.934 -1.4985 -4.285 -3.355 -2.4265 -4.6205 -5.473 -3.6615 -2.264 -2.871 -4.7 -3.158 0 -7.924 -4.365 -3.4795 0 
-10.75 -14.108 -10.59 -5.714 -9.8855 -4.4615 -4.948 -8.127501 -9.435501 -4.0325 -4.7475 -6.546 -2.6125 -4.774 -6.216001 -6.180501 -5.822001 -10.533 -6.1595 -5.837501 -4.6305 -8.104501 -7.8665 -3.158 -7.459001 -12.035 -8.0515 -3.4795 
-19.639 -14.173 -17.3709 -9.8855 -9.929501 -6.6575 -9.661 -10.6735 -9.435501 -8.2335 -6.546 -7.170001 -5.297 -6.318 -8.857 -9.639501 -12.1365 -11.2195 -8.312 -8.320001 -10.4035 -9.854501 -7.8665 -9.517501 -10.155 -12.664 -8.0515 
-19.639 -21.1549 -21.3646 -9.929501 -12.5995 -11.7201 -12.3544 -10.6735 -13.8375 -10.1115 -7.170001 -10.5535 -6.870501 -8.942 -12.5344 -15.986 -12.823 -13.372 -11.0773 -14.427 -12.1535 -9.854501 -10.3175 -10.3055 -10.2505 -10.2505 
-26.6209 -25.1486 -21.4086 -12.5995 -17.6621 -14.4135 -12.3544 -15.0755 -15.7155 -10.8073 -10.5535 -12.127 -9.2565 -12.6948 -18.8809 -16.6725 -14.9755 -16.1373 -17.1843 -16.177 -12.1535 -10.3545 -10.366 -10.3655 -10.2505 
