-4.759 
n/a 
n/a 
n/a 
n/a 
-4.759 
n/a 
n/a 
n/a 
n/a 
-4.759 
n/a 
n/a 
n/a 
n/a 
-4.759 
n/a 
n/a 
n/a 
n/a 
-3.433 -1.7565 -2.3615 -4.0045 -3.875 -2.229 -3.9555 -4.0555 -1.7695 -2.664 -3.498 0 
-4.1845 -3.523 -6.6635 -8.304501 -5.3405 -6.085 -7.6635 -4.7475 -4.185 -5.1155 -3.498 
-5.5485 -7.6545 -11.2907 -9.246501 -10.647 -9.1405 -8.209001 -6.349 -5.6315 -5.1155 
-9.388 -12.4509 -12.2327 -14.9142 -13.7025 -9.705501 -9.3335 -6.4995 -5.6315 
-14.4 -13.3929 -17.9004 -17.9697 -14.2675 -10.422 -9.419001 -6.4995 
-3.982 -3.959 -3.0465 -3.966 0 -3.433 -1.7565 -2.3615 -3.974 0 
-5.6075 -7.2535 -5.8835 -3.966 -3.433 -4.1845 -3.523 -5.7455 -3.974 
-9.287001 -10.688 -5.8835 -6.621 -4.1845 -5.5485 -6.9945 -5.7455 
-12.7907 -10.688 -8.216001 -7.0155 -5.5485 -8.589001 -6.9945 
-12.7907 -13.0205 -8.970501 -8.2225 -8.589001 -8.589001 
-3.982 -3.188 -4.1 -4.834 -1.934 -2.3615 -4.816 -3.433 -2.3615 -4.031 -3.936 0 
-7.064 -8.130001 -9.403501 -7.128 -3.539 -7.5755 -7.994 -5.373 -5.4055 -8.970501 -3.936 
-12.8074 -13.7371 -11.8597 -8.807 -9.573001 -11.0719 -10.204 -9.57 -9.814 -8.970501 
-18.4145 -16.1933 -13.5387 -15.229 -13.159 -13.2819 -14.401 -14.1331 -9.814 
-20.8707 -17.8723 -19.9607 -18.815 -15.369 -17.4789 -18.9641 -14.1331 
-3.982 -3.519 -3.7555 -3.539 -2.5045 -2.3615 -2.95 0 
-6.974 -8.175 -6.564 -5.5335 -4.3105 -4.4645 -2.95 
-12.4204 -10.504 -8.5275 -7.449 -4.89 -4.4645 
-14.7494 -12.4675 -10.5954 -8.1625 -4.89 
-16.7129 -14.5354 -11.3089 -8.1625 
