-4.759 
n/a 
n/a 
n/a 
n/a 
-4.759 
n/a 
n/a 
n/a 
n/a 
-4.759 
n/a 
n/a 
n/a 
n/a 
-4.759 
n/a 
n/a 
n/a 
n/a 
-2.9805 -5.015 -1.934 -6.515501 -2.5195 -5.281 -1.7695 -5.134 0 
-6.3995 -5.7995 -9.107501 -9.587001 -7.586 -7.3575 -7.6745 -5.134 
-7.141 -13.552 -12.3466 -14.6287 -7.932 -8.837 -7.6745 
-15.1229 -16.7911 -17.3883 -14.9747 -8.908 -8.837 
-18.362 -21.8328 -17.7343 -15.9507 -8.908 
-2.9805 -4.657 -1.934 -7.9575 -2.5045 -5.281 -1.7695 -5.134 
-5.941 -5.156 -10.7335 -11.4404 -9.0955 -7.3575 -7.6745 
-6.4985 -14.6075 -14.2164 -18.0314 -11.2366 -8.837 
-16.0432 -18.0904 -20.8074 -20.1725 -12.7161 
-19.5261 -24.6814 -22.9485 -21.652 
-5.281 -3.0835 -5.134 -3.5725 -4.008 -1.934 -6.515501 0 
-8.5465 -9.814501 -9.403501 -7.133 -4.890501 -9.107501 -6.515501 
-15.4709 -14.084 -13.1244 -7.7545 -12.8944 -9.107501 
-19.7404 -17.8049 -13.7459 -16.1834 -12.8944 
-23.4613 -18.4264 -22.1748 -16.1834 
-5.281 -1.7695 -5.134 -3.5725 -4.008 -1.934 -6.515501 0 
-7.3575 -7.6745 -9.403501 -7.133 -4.890501 -9.107501 -6.515501 
-8.837 -12.3378 -13.1244 -7.7545 -12.8944 -9.107501 
-13.6841 -16.0587 -13.7459 -16.1834 -12.8944 
-17.405 -16.6802 -22.1748 -16.1834 
