-4.759 
n/a 
n/a 
n/a 
n/a 
-4.759 
n/a 
n/a 
n/a 
n/a 
-4.759 
n/a 
n/a 
n/a 
n/a 
-4.759 
n/a 
n/a 
n/a 
n/a 
-1.934 -3.9195 -2.674 -4.086 0 -5.5175 -2.4945 -3.9785 -3.319 -5.188 0 
-6.0555 -7.323 -6.9495 -4.086 -5.5175 -7.0695 -7.1415 -7.2085 -8.935 -5.188 
-9.409 -12.0155 -6.9495 -8.9475 -7.0695 -12.2647 -11.0115 -14.2543 -8.935 
-14.1523 -12.0155 -12.5058 -10.9765 -12.2647 -16.1347 -18.0573 -14.2543 
-14.1523 -17.5718 -14.5348 -16.1717 -16.1347 -23.1805 -18.0573 
-1.934 -3.9195 -2.925 -2.674 -4.086 0 -5.5175 -2.4945 -2.674 -4.213 
-6.0555 -6.925 -4.1785 -6.9495 -4.086 -5.5175 -7.0695 -6.7615 -8.0045 
-8.899 -8.1735 -8.3465 -6.9495 -8.9475 -7.0695 -11.8847 -12.2904 
-10.3745 -12.4979 -8.3465 -12.5058 -10.9765 -11.8847 -17.4136 
-14.6989 -12.4979 -14.3022 -14.5348 -15.7917 -17.4136 
-4.086 -1.756 -5.09 -2.4945 -4.3715 -4.6605 -1.7565 -3.9195 0 
-5.4315 -6.5985 -8.026501 -6.9255 -8.787001 -6.469 -5.477 -3.9195 
-8.4355 -9.345 -12.7427 -11.8282 -10.76 -9.513 -5.477 
-11.9118 -14.073 -17.6454 -13.8012 -13.804 -9.513 
-16.6398 -18.9757 -19.6184 -16.8452 -13.804 
-4.086 0 -5.5175 -2.4945 -5.637 -5.188 0 
-4.086 -5.5175 -7.0695 -8.644001 -11.8694 -5.188 
-8.9475 -7.0695 -13.7672 -15.0962 -11.8694 
-10.9765 -13.7672 -20.2194 -15.0962 
-17.6742 -20.2194 -20.2194 
