-4.759 
n/a 
n/a 
n/a 
n/a 
-4.759 
n/a 
n/a 
n/a 
n/a 
-4.759 
n/a 
n/a 
n/a 
n/a 
-4.759 
n/a 
n/a 
n/a 
n/a 
-7.190001 -4.179 -2.8645 -3.1125 -5.1805 -2.356 -5.774 -7.3885 0 -5.698 -7.190001 -2.356 -2.688 -4.536 -1.756 -6.1355 
-8.514001 -6.601001 -3.5345 -7.1355 -6.7065 -7.2565 -9.9405 -7.3885 -5.698 -14.067 -9.473501 -4.8995 -7.554 -5.822001 -7.4625 
-11.2928 -7.273001 -7.353 -8.6 -10.1425 -11.794 -9.9405 -13.7711 -14.067 -16.3505 -12.0076 -9.795501 -9.340501 -8.711 
-11.9648 -8.7495 -8.943501 -12.1788 -14.921 -11.794 -16.4059 -22.1401 -16.3505 -18.8846 -16.9036 -11.603 -12.4101 
-13.4413 -10.688 -12.6255 -16.9573 -14.921 -18.2594 -24.7749 -24.4236 -18.8846 -23.7806 -18.7111 -14.6726 
-3.5515 -1.7565 -5.0375 -7.190001 -4.179 -2.3345 -7.4555 -2.688 -4.215 -5.2195 0 -4.572 -2.688 -4.536 -1.934 -4.7855 -1.756 -5.0865 -2.4265 0 -1.756 -4.509 -6.1355 0 
-5.0325 -6.791 -10.177 -8.514001 -6.7005 -8.79 -10.9075 -7.203001 -9.5275 -5.2195 -4.572 -7.285 -7.554 -6.526 -6.969 -6.1835 -6.3635 -7.5635 -2.4265 -1.756 -5.9155 -9.915501 -6.1355 
-10.688 -12.1289 -11.656 -11.3923 -13.5844 -12.5078 -15.4225 -12.8809 -9.5275 -9.687 -7.285 -12.5518 -9.951 -9.852501 -8.4355 -10.586 -8.450001 -7.5635 -4.303 -5.9155 -11.7138 -9.915501 
-16.0259 -13.6079 -14.5343 -18.2762 -17.3022 -17.0228 -21.1004 -12.8809 -14.1044 -12.8918 -12.5518 -14.9488 -13.3007 -11.4948 -13.1306 -12.6725 -8.450001 -9.130501 -8.4595 -11.7138 -11.7138 
-17.5049 -16.4862 -21.4182 -21.994 -21.8172 -22.7007 -21.1004 -17.4578 -17.3092 -18.1586 -14.9488 -18.2985 -14.943 -16.1899 -15.2171 -12.6725 -10.0185 -13.4876 -14.8326 -11.7138 
-4.98 -4.072 -5.2125 -3.401 -4.215 -4.8345 0 -2.688 -4.536 -4.5055 -1.8085 -7.190001 0 -9.860001 
-9.393 -8.5655 -8.728001 -8.262 -9.211 -4.8345 -2.688 -7.554 -9.064501 -5.5345 -9.5865 -7.190001 -6.241 
-14.2019 -12.3594 -14.0278 -13.2774 -9.211 -8.233001 -7.554 -12.6409 -10.3485 -14.2249 -9.5865 -14.2418 
-17.9958 -17.6592 -19.0432 -13.2774 -12.8723 -13.554 -12.6409 -13.9249 -19.0389 -14.2249 -16.9407 
-23.2956 -22.6746 -19.0432 -16.9387 -18.1933 -18.6409 -13.9249 -22.6153 -19.0389 -21.5791 
-7.190001 -2.186 -1.8085 -4.179 -5.1805 -2.3345 -4.9305 -6.304 -6.4345 0 -3.737 -7.190001 -2.356 -2.688 -4.536 -1.756 -4.509 -6.1355 
-8.7165 -3.164 -6.139501 -7.645 -6.612 -6.7985 -12.5091 -13.7791 -6.4345 -3.737 -10.784 -9.473501 -4.8995 -7.554 -5.822001 -5.9155 -9.915501 
-9.3725 -7.327 -8.7775 -8.564 -10.228 -14.7943 -19.9842 -13.7791 -10.2235 -10.784 -13.0675 -12.0076 -9.795501 -9.340501 -9.798 -11.7138 
-10.4955 -9.175501 -9.394501 -12.631 -18.2238 -22.2694 -19.9842 -17.5681 -17.3855 -13.0675 -15.6016 -16.9036 -11.603 -13.4971 -15.8013 
-12.344 -9.728001 -13.6627 -20.6268 -25.6989 -22.2694 -23.7732 -24.7301 -19.669 -15.6016 -20.4976 -18.7111 -15.7596 -19.5004 
