-4.759 
n/a 
n/a 
n/a 
n/a 
-4.759 
n/a 
n/a 
n/a 
n/a 
-4.759 
n/a 
n/a 
n/a 
n/a 
-4.759 
n/a 
n/a 
n/a 
n/a 
-3.6055 -3.535 -4.472 -2.674 -2.871 -4.296 
-6.919001 -7.283 -7.0365 -4.9525 -7.916 
-11.3488 -10.022 -9.634001 -10.4081 
-14.0878 -12.6269 -15.0646 
-16.6927 -18.0575 
-3.6055 -2.871 -3.535 -4.229 -2.674 -4.9595 -1.7565 -4.296 0 
-5.363 -5.9125 -6.953 -6.13 -8.8535 -6.591001 -6.2285 -4.296 
-10.1765 -10.688 -9.410501 -13.1757 -10.6028 -11.5628 -6.2285 
-14.952 -13.1455 -16.5452 -14.925 -15.5746 -11.5628 
-17.4095 -20.2802 -18.2945 -19.8968 -15.5746 
-3.345 -3.941 -3.4425 -2.674 -3.1435 -3.423 
-7.0205 -6.7365 -6.348001 -5.7465 -6.7045 
-9.109501 -10.2085 -9.5465 -8.9235 
-12.7367 -13.5314 -13.4831 
-16.0596 -17.468 
-3.0365 -2.186 -2.664 -3.423 -2.0935 -3.345 -3.8605 
-3.66 -3.8555 -5.382 -5.294 -4.212 -6.243501 
-4.9795 -7.1945 -6.901 -6.1135 -7.067 
-8.227501 -8.744 -8.6095 -10.2535 
-9.743001 -10.259 -13.1009 
