-4.759 
n/a 
n/a 
n/a 
n/a 
-4.759 
n/a 
n/a 
n/a 
n/a 
-4.759 
n/a 
n/a 
n/a 
n/a 
-4.759 
n/a 
n/a 
n/a 
n/a 
-4.4675 -6.4925 -2.857 -5.2865 0 -9.727 0 
-11.1415 -10.1385 -6.4985 -5.2865 -9.727 -9.727 
-14.7875 -10.6535 -6.4985 -15.8473 -9.727 
-15.3025 -10.6535 -17.5855 -15.8473 
-15.3025 -21.7405 -17.5855 
-4.4675 0 -4.5645 -2.857 -5.2865 0 -5.7865 0 
-4.4675 -4.5645 -8.028001 -6.4985 -5.2865 -5.7865 -5.7865 
-9.019501 -8.028001 -10.155 -6.4985 -7.8915 -5.7865 
-12.5142 -10.155 -10.155 -9.629701 -7.8915 
-14.6412 -10.155 -13.4962 -9.629701 
-4.4675 0 -9.976501 -2.857 -5.2865 0 -9.727 0 
-4.4675 -9.976501 -13.0239 -6.4985 -5.2865 -9.727 -9.727 
-14.8764 -13.0239 -16.6654 -6.4985 -15.8473 -9.727 
-17.9238 -16.6654 -16.6654 -17.5855 -15.8473 
-21.5653 -16.6654 -27.7524 -17.5855 
-4.4675 0 -4.5645 -2.857 -5.2865 0 -9.727 0 
-4.4675 -4.5645 -8.028001 -6.4985 -5.2865 -9.727 -9.727 
-9.019501 -8.028001 -10.155 -6.4985 -15.8473 -9.727 
-12.5142 -10.155 -10.155 -17.5855 -15.8473 
-14.6412 -10.155 -21.452 -17.5855 
