-4.759 
n/a 
n/a 
n/a 
n/a 
-4.759 
n/a 
n/a 
n/a 
n/a 
-4.759 
n/a 
n/a 
n/a 
n/a 
-4.759 
n/a 
n/a 
n/a 
n/a 
-1.4985 -3.8495 -3.499 -2.4945 -4.758 -1.934 -2.3345 -4.9495 0 -4.251 -4.091 -2.5045 -3.9555 -3.8245 0 -3.6705 0 -5.3825 -3.635 0 -2.4285 -5.2115 -1.7695 -2.664 -3.9235 -3.5445 -1.4985 -4.8925 -1.7565 -1.4985 -3.8495 
-4.7095 -5.71 -5.2055 -7.1945 -6.0375 -5.376 -6.9645 -4.9495 -4.251 -7.036 -4.9705 -6.05 -7.118 -3.8245 -3.6705 -3.6705 -5.3825 -7.4145 -3.635 -2.4285 -7.314001 -5.282 -4.185 -5.1895 -6.8855 -4.002 -5.535501 -5.583 -2.4195 -4.7095 
-6.9905 -7.188 -8.996 -8.139501 -7.7235 -9.5375 -6.9645 -8.421 -7.036 -7.1955 -8.028501 -8.927501 -7.118 -6.4025 -3.6705 -9.706501 -7.4145 -7.4145 -5.488 -7.314001 -7.357001 -7.108 -6.5795 -7.895 -7.125 -6.457 -5.728 -6.028501 -5.384501 
-8.3055 -10.081 -9.369 -8.863501 -12.5448 -9.5375 -10.485 -11.4468 -7.1955 -10.316 -9.784 -8.927501 -8.979501 -6.4025 -9.706501 -10.5065 -7.4145 -8.634501 -10.172 -7.357001 -8.830001 -8.4615 -9.438001 -8.0575 -9.8645 -6.495 -6.176 -8.961 
-10.6875 -10.3155 -9.802501 -13.808 -12.5448 -13.0246 -13.5108 -11.6063 -10.316 -12.0715 -9.784 -10.75 -8.979501 -10.5635 -10.5065 -10.5065 -8.634501 -13.7633 -10.4335 -8.830001 -9.938001 -11.6956 -9.878501 -10.5425 -9.89 -6.7835 -9.002001 
-2.9965 -4.153 -2.0935 -4.129 -4.126 -4.285 -1.7695 -10.5895 -1.7565 -3.737 -1.7695 -2.688 
-7.677501 -6.653 -6.0435 -8.4655 -9.3505 -6.9125 -13.3412 -13.0304 -5.1295 -6.3935 -4.698 
-10.298 -11.0792 -10.404 -13.9506 -12.0736 -18.8214 -15.7821 -16.4034 -8.536 -9.045 
-14.7242 -15.4397 -15.8891 -16.6737 -23.9825 -21.2623 -19.1551 -19.8099 -11.4037 
-19.0847 -20.9248 -18.6122 -28.5826 -26.4234 -24.6353 -22.5616 -22.6776 
-2.5045 -1.4985 -4.129 -2.95 -1.7565 -4.602 -4.153 0 -6.835001 -2.7415 -3.8755 -2.3345 -9.1265 -5.0085 -1.756 -4.679 -8.644 -3.0695 -2.4945 -2.688 -4.6365 0 
-3.1915 -5.424 -6.666 -4.3785 -6.552001 -5.112 -4.153 -6.835001 -9.616501 -5.065001 -4.4955 -10.1465 -14.3102 -6.4755 -6.5615 -9.109501 -11.9761 -4.2085 -5.5045 -6.190001 -4.6365 
-6.963 -7.272 -7.472001 -10.5035 -6.637001 -5.112 -11.8706 -9.616501 -11.963 -5.7145 -12.8519 -16.1506 -15.7772 -8.614 -11.47 -12.643 -13.1151 -6.605 -8.545 -6.190001 
-8.6565 -7.7025 -14.2636 -10.7755 -6.637001 -13.3326 -14.6521 -11.963 -12.6125 -14.6701 -18.856 -17.6176 -17.9157 -15.3871 -15.0035 -13.782 -15.5116 -10.5135 -8.545 
-9.2075 -14.7549 -14.5356 -10.7755 -15.2932 -16.1141 -16.9986 -12.6125 -21.5681 -20.6742 -20.323 -19.7561 -24.6888 -18.9206 -16.1425 -16.1785 -19.4201 -10.5135 

n/a 
n/a 
n/a 
n/a 
