-4.759 
n/a 
n/a 
n/a 
n/a 
-4.759 
n/a 
n/a 
n/a 
n/a 
-4.759 
n/a 
n/a 
n/a 
n/a 
-4.759 
n/a 
n/a 
n/a 
n/a 
-3.875 -3.6885 -3.6845 -5.1845 -3.9355 0 
-7.899 -8.14 -9.8125 -8.764 -3.9355 
-12.9799 -14.4628 -13.4374 -8.764 
-19.3027 -18.0877 -13.4374 
-22.9276 -18.0877 
-5.1845 -3.9355 -3.2955 -1.934 -3.982 -4.2915 0 
-8.764 -6.479 -4.2285 -5.7915 -6.3985 -4.2915 
-11.4275 -6.8075 -8.035 -7.7215 -6.3985 
-11.756 -11.3014 -9.5365 -7.7215 
-16.2499 -12.8029 -9.5365 
-5.1845 -3.8235 -2.9705 -2.4945 -3.2955 -1.934 -3.982 -4.2915 
-8.465 -6.4735 -4.302 -4.6305 -4.2285 -5.7915 -6.3985 
-10.31 -8.536 -6.081 -5.474 -8.035 -7.7215 
-12.5927 -9.9865 -6.7685 -9.546 -9.5365 
-14.0432 -11.2018 -10.702 -11.0605 
-3.982 
n/a 
n/a 
n/a 
n/a 
