-4.759 
n/a 
n/a 
n/a 
n/a 
-4.759 
n/a 
n/a 
n/a 
n/a 
-4.759 
n/a 
n/a 
n/a 
n/a 
-4.759 
n/a 
n/a 
n/a 
n/a 
-3.1385 -3.043 -1.7695 -4.1225 -1.756 -3.047 -1.4985 -3.8315 -1.934 -6.0755 -8.678 0 
-6.070001 -3.528 -6.488 -5.170001 -4.7285 -4.095 -5.577001 -5.652 -8.415001 -9.6175 -8.678 
-6.407001 -8.495501 -7.43 -9.604 -5.7535 -8.2005 -7.684 -12.7006 -12.181 -9.6175 
-11.9797 -10.038 -12.0312 -10.7614 -9.995001 -10.034 -15.1408 -16.4666 -12.181 
-13.5222 -14.8082 -13.1886 -15.0029 -12.1533 -17.6916 -18.9068 -16.4666 
-3.1385 -3.043 -1.7695 -4.3455 -1.4985 -3.8315 -3.509 0 
-6.070001 -3.528 -4.706 -5.183 -5.577001 -8.542001 -3.509 
-6.407001 -6.492001 -5.4375 -9.503 -10.316 -8.542001 
-9.4075 -7.56 -10.122 -14.5852 -10.316 
-10.4775 -12.3697 -15.2042 -14.5852 
-1.934 -6.6335 -3.043 -1.7695 -3.8315 -3.9225 -1.4985 -3.1385 -3.152 -4.394 -4.1585 
-9.101001 -10.233 -3.528 -6.101501 -7.3595 -4.463 -4.2575 -5.219 -6.3555 -7.828 
-12.8723 -10.696 -7.739 -9.502001 -8.205001 -6.471 -6.415 -8.598001 -9.156 
-13.3353 -14.907 -11.9553 -10.116 -10.5698 -9.243 -9.824 -10.61 
-17.5463 -19.1233 -12.5693 -12.5994 -13.3418 -12.8284 -11.836 
-1.934 -6.6335 -3.043 -3.1385 -3.2645 -4.039 -2.356 -5.5415 -2.186 -4.6505 
-9.101001 -10.233 -5.658501 -5.695001 -6.896501 -4.5645 -7.2685 -7.3635 -6.0075 
-12.8723 -13.1123 -7.647501 -9.160501 -6.9645 -9.755501 -9.287001 -11.4978 
-15.7516 -15.1013 -9.937501 -9.176001 -12.4937 -11.7952 -13.5669 
-17.7406 -17.3913 -9.947001 -14.9772 -14.5334 -16.0751 
