-4.759 
n/a 
n/a 
n/a 
n/a 
-4.759 
n/a 
n/a 
n/a 
n/a 
-4.759 
n/a 
n/a 
n/a 
n/a 
-4.759 
n/a 
n/a 
n/a 
n/a 
-3.115 -4.1885 -4.1585 0 -1.934 -6.933001 -3.8405 -3.1385 -3.0695 -4.7615 -3.9745 -2.5045 -1.8085 -6.7625 -2.5195 -1.4985 -4.193 -5.1845 -3.1385 -2.229 -4.4895 -1.756 -4.3535 -3.3715 -5.2835 0 
-7.736001 -9.293001 -4.1585 -1.934 -8.7335 -8.9175 -7.672 -4.286 -7.085 -8.4905 -6.166 -3.3625 -7.817 -8.776501 -3.1695 -4.594501 -10.007 -7.4095 -4.6125 -7.526 -6.4205 -6.314 -7.8725 -7.0965 -5.2835 
-13.0331 -9.293001 -6.16 -8.7335 -11.0812 -12.8218 -8.6735 -8.043501 -9.72 -9.899 -6.9795 -8.806001 -9.838 -9.021 -5.4985 -10.5035 -12.6166 -9.0015 -11.2927 -9.816501 -8.886001 -9.235001 -11.8409 -7.0965 
-13.0331 -11.6909 -13.5481 -11.0812 -14.9855 -13.8233 -12.5174 -10.5035 -11.2765 -10.489 -11.4815 -11.4945 -10.7055 -10.4885 -11.3283 -13.4899 -14.2086 -15.9799 -13.5832 -12.4566 -11.9502 -13.4756 -11.8409 
-15.431 -19.079 -15.8958 -14.9855 -15.987 -17.6672 -14.9774 -12.06 -11.8665 -15.0262 -14.5265 -12.1918 -12.4272 -16.9543 -14.3147 -15.0819 -21.187 -18.2704 -16.2233 -15.5208 -16.1908 -13.4756 
-3.4765 -1.4985 -4.936 -3.251 -3.1125 -5.378 -2.264 -6.4735 -3.0695 -3.251 -3.1125 -5.2585 -3.188 -4.901 -4.029 -1.756 -3.8665 -4.7615 -1.934 -3.45 -3.4795 -3.264 -2.3335 -2.925 -3.4765 -4.3895 -3.6065 -4.3705 -4.8775 0 
-4.778 -6.585501 -7.79 -4.28 -7.0675 -7.414001 -8.639501 -8.005501 -4.7295 -4.28 -6.547501 -9.3895 -8.8265 -9.5075 -5.544001 -5.108 -9.274 -6.368001 -5.009 -5.6655 -7.186501 -4.533 -4.0295 -5.8065 -7.951501 -8.041 -7.0495 -7.974 -4.8775 
-9.383 -8.962001 -8.9195 -7.943 -9.213501 -14.5011 -10.7025 -9.3175 -5.559 -7.785501 -11.2695 -15.432 -13.5652 -12.2183 -9.676001 -11.1011 -11.0543 -9.2735 -5.997 -8.74 -9.0425 -5.917 -7.2445 -9.0985 -11.7126 -10.634 -9.5135 -7.974 
-11.8989 -10.1035 -12.6021 -10.028 -16.3112 -16.5641 -12.0145 -9.973001 -8.774501 -12.6247 -17.312 -20.1707 -16.276 -16.3503 -15.7223 -12.8814 -13.9598 -9.714001 -8.987 -10.228 -10.304 -9.342001 -10.564 -13.2752 -14.3056 -13.098 -9.5135 
-13.0404 -13.7861 -14.6871 -17.3513 -18.3742 -17.8761 -12.67 -13.1885 -13.7607 -18.6672 -22.0507 -22.8815 -20.408 -22.3966 -17.5026 -15.7869 -14.4003 -13.0412 -10.361 -11.4895 -13.729 -12.6695 -14.7407 -15.8682 -16.7696 -13.098 
-6.933001 -5.1845 -3.1385 -2.742 -4.975 -2.264 -3.9745 -2.4285 -3.8905 -3.594 -2.5045 -3.8905 -3.644 -3.135 -5.3255 0 -2.872 -3.5725 -5.1845 -3.1385 -3.757 -4.975 -3.8905 -2.264 -3.948 -4.2655 0 
-9.477001 -7.4095 -5.1415 -6.747 -7.3485 -6.375 -6.127 -6.574 -7.996 -6.1135 -6.0905 -6.5695 -6.5505 -8.0625 -5.3255 -2.872 -5.087501 -9.872001 -7.4095 -6.3855 -7.4985 -7.0535 -6.3875 -5.505 -8.846001 -4.2655 
-11.8622 -9.443001 -8.908501 -9.137 -12.0365 -8.519 -8.4585 -11.0531 -10.4675 -10.354 -8.598001 -9.852 -11.8578 -8.0625 -7.808001 -5.087501 -11.5724 -12.2716 -11.0329 -9.803 -9.5115 -10.533 -10.1035 -10.341 -8.846001 
-13.8957 -13.301 -11.0245 -14.077 -14.1805 -11.3611 -13.2126 -13.5246 -14.708 -12.8615 -11.9957 -15.1897 -11.8578 -10.375 -10.4675 -11.5724 -13.972 -15.895 -14.4504 -12.2468 -13.2796 -14.249 -14.9395 -10.341 
-17.7537 -15.417 -15.9645 -16.221 -17.0226 -16.1152 -15.6841 -17.7651 -17.2155 -16.2592 -17.3334 -15.1897 -14.1703 -13.0345 -16.9524 -13.972 -17.5954 -19.3125 -16.8942 -16.0149 -16.9956 -19.085 -14.9395 
-5.1845 -5.3595 -6.6 -1.4985 -3.995 0 -3.9745 -2.5045 -3.264 -2.3345 -4.6195 -4.8215 -2.3335 -2.925 -2.674 -3.074 -3.9205 -1.756 -4.3895 -3.948 -5.2835 -3.5065 -3.469 -2.95 0 
-10.6215 -9.181001 -7.599 -4.712 -3.995 -3.9745 -6.166 -6.191501 -5.9415 -6.3605 -9.179501 -6.316501 -4.0295 -4.1785 -4.981 -5.09 -5.5625 -5.988 -8.4555 -7.3785 -8.187 -7.056001 -4.7535 -2.95 
-14.443 -10.112 -10.0155 -4.712 -7.3475 -6.166 -9.951 -7.582001 -9.573 -11.6229 -10.6617 -7.89 -5.151 -6.242001 -8.152 -8.259501 -8.72 -9.4995 -10.66 -10.0995 -12.2839 -7.9135 -4.7535 
-15.374 -12.8145 -10.0155 -8.381001 -9.943001 -9.951 -11.5571 -11.5305 -15.2632 -13.1051 -12.2352 -8.9005 -7.9465 -9.587501 -10.134 -11.5354 -12.2619 -11.872 -13.381 -14.572 -13.1414 -7.9135 
-18.0765 -12.8145 -13.9041 -10.634 -13.8588 -11.5571 -15.5056 -17.2207 -16.7454 -14.6786 -13.2457 -10.0195 -11.3836 -11.8635 -13.4099 -15.0773 -14.6344 -14.593 -17.8535 -15.4295 -13.1414 
