-4.759 
n/a 
n/a 
n/a 
n/a 
-4.759 
n/a 
n/a 
n/a 
n/a 
-4.759 
n/a 
n/a 
n/a 
n/a 
-4.759 
n/a 
n/a 
n/a 
n/a 
-2.882 -2.1715 0 -4.686 0 -3.502 -4.1865 -5.1845 -4.0915 0 
-4.881001 -2.1715 -4.686 -4.686 -3.502 -6.301 -8.008 -9.8675 -4.0915 
-4.881001 -6.739501 -4.686 -8.462501 -6.301 -8.7545 -12.9342 -9.8675 
-8.342001 -6.739501 -8.462501 -11.5351 -8.7545 -13.9451 -12.9342 
-8.342001 -10.4765 -11.5351 -13.9886 -13.9451 -13.9451 
-2.882 -2.1715 0 -4.686 0 -4.3195 -1.8085 -8.144 -5.1845 -4.681 
-4.881001 -2.1715 -4.686 -4.686 -4.3195 -5.0655 -10.233 -11.0145 -7.869 
-4.881001 -6.739501 -4.686 -8.633 -5.0655 -14.3276 -13.1035 -13.699 
-8.342001 -6.739501 -8.633 -9.337001 -14.3276 -17.1981 -15.788 
-8.342001 -10.9343 -9.337001 -18.6795 -17.1981 -19.8826 
-2.882 -2.1715 0 -4.686 -3.502 -3.8735 -2.229 -3.8195 -4.681 0 
-4.881001 -2.1715 -4.686 -8.462501 -6.2275 -5.3655 -5.928 -7.058001 -4.681 
-4.881001 -6.739501 -8.462501 -11.4616 -8.127501 -8.571 -9.432501 -7.058001 
-8.342001 -10.4765 -11.4616 -13.3616 -10.4505 -12.8683 -9.432501 
-12.3618 -13.4756 -13.3616 -15.6846 -15.5182 -12.8683 
-2.882 -6.857501 -3.502 -4.1865 -5.1845 -3.8195 -4.7275 
-9.449 -10.516 -6.301 -8.008 -6.896501 -6.9615 
-12.079 -13.5491 -8.7545 -9.277 -9.574501 
-15.4344 -16.0026 -9.885 -12.4262 
-17.8879 -17.1331 -13.4342 
