-4.759 
n/a 
n/a 
n/a 
n/a 
-4.759 
n/a 
n/a 
n/a 
n/a 
-4.759 
n/a 
n/a 
n/a 
n/a 
-4.759 
n/a 
n/a 
n/a 
n/a 
-3.531 -3.1255 -7.0375 -3.502 -4.1865 -3.8195 -4.681 
-5.5115 -10.7665 -11.1837 -6.301 -6.8305 -7.058001 
-14.2699 -14.9127 -13.9827 -8.3905 -8.8095 
-18.4161 -17.7117 -16.0722 -10.2695 
-21.2151 -19.8012 -17.9512 
-3.502 -4.1865 -4.681 0 -7.0375 -3.531 -3.1255 
-6.301 -7.797 -4.681 -7.0375 -9.380501 -5.5115 
-9.2065 -7.797 -10.907 -9.380501 -11.5602 
-9.2065 -14.4174 -13.25 -11.5602 
-15.8711 -16.7604 -15.4297 
-3.531 -3.1255 -7.0375 -3.502 -4.1865 -3.8195 -4.681 
-5.5115 -10.7665 -11.1837 -6.301 -6.8305 -7.058001 
-14.2699 -14.9127 -13.9827 -8.3905 -8.8095 
-18.4161 -17.7117 -16.0722 -10.2695 
-21.2151 -19.8012 -17.9512 
-3.531 -3.1255 0 -7.0375 0 -3.502 -4.1865 -3.8195 -4.681 
-5.5115 -3.1255 -7.0375 -7.0375 -3.502 -6.301 -6.8305 -7.058001 
-5.5115 -10.7665 -7.0375 -11.1837 -6.301 -8.3905 -8.8095 
-14.2699 -10.7665 -11.1837 -13.9827 -8.3905 -10.2695 
-14.2699 -14.9127 -13.9827 -16.0722 -10.2695 
