-4.759 
n/a 
n/a 
n/a 
n/a 
-4.759 
n/a 
n/a 
n/a 
n/a 
-4.759 
n/a 
n/a 
n/a 
n/a 
-4.759 
n/a 
n/a 
n/a 
n/a 
-9.5565 -2.229 -4.8405 -5.936 -2.264 -3.251 -1.7565 -9.483001 -2.9805 -3.998 -2.4265 -2.7415 -2.664 -4.8135 -3.9335 -3.0415 -7.912 -3.687 -3.091 -3.3435 -2.9705 -2.7415 -3.881 -1.934 -4.5735 -4.245 0 
-12.0955 -6.968 -10.9575 -8.0965 -5.769 -4.97 -12.1887 -12.6821 -5.516 -5.0715 -3.681 -4.6625 -9.415001 -9.298 -5.7875 -12.0443 -12.0326 -6.075 -5.029 -6.0635 -4.512 -5.344501 -5.05 -5.86 -7.5575 -4.245 
-16.8345 -13.5646 -13.118 -11.9865 -6.552001 -16.4412 -15.3878 -15.2176 -6.469501 -5.379 -5.4685 -11.9553 -13.8209 -11.1888 -15.5541 -16.1649 -14.4206 -8.5725 -7.534 -7.4115 -6.8555 -6.251 -8.4165 -8.338 -7.5575 
-23.4311 -15.7251 -17.008 -12.7695 -18.1058 -19.6403 -17.9233 -16.1711 -6.8005 -7.0405 -13.0699 -16.3612 -15.7117 -20.9554 -19.6747 -18.5529 -16.9181 -11.5369 -8.593 -9.543501 -7.556001 -9.355 -11.0893 -8.338 
-25.5916 -19.6151 -17.791 -24.3233 -21.3049 -22.1758 -18.8768 -16.5021 -8.349 -14.9265 -17.4758 -18.252 -25.4783 -25.076 -22.0627 -21.0504 -19.8825 -12.5959 -10.838 -10.6745 -10.6875 -12.1092 -11.0893 
-2.664 -4.5735 -4.245 -5.029 -3.807 -2.915 -2.3335 -8.826501 -2.229 -4.8405 -5.8585 -3.3255 -9.979 -2.229 -3.251 -4.8155 0 -2.9705 -1.4985 -7.462 -3.9725 -3.998 -2.7415 -1.8085 -5.973 -4.299 -3.436 -5.063 -3.091 -3.228 -4.33 -3.5455 
-5.701 -7.5575 -8.595001 -8.904501 -5.3935 -4.837501 -12.3508 -11.4141 -6.968 -8.653501 -7.6025 -14.2689 -12.3216 -5.3435 -7.365001 -4.8155 -2.9705 -4.186 -8.743 -9.3175 -8.1335 -5.8135 -3.891 -6.903501 -8.8645 -7.3365 -8.6195 -8.047501 -5.546 -8.603001 -7.573501 
-9.894001 -12.3001 -13.0687 -10.8612 -7.2295 -15.7754 -14.9384 -16.1531 -10.038 -10.001 -19.2193 -16.6115 -15.4361 -9.526001 -7.365001 -7.565001 -4.186 -11.8145 -9.5765 -13.5653 -10.533 -6.6645 -8.2325 -9.606501 -12.6152 -12.9178 -9.6955 -8.7515 -11.3816 -12.4043 
-14.7326 -16.7738 -15.0254 -12.6972 -18.5344 -18.363 -19.6774 -19.2231 -11.3755 -21.7176 -21.5619 -19.726 -19.6186 -9.526001 -9.678501 -9.309 -11.8145 -12.648 -13.8459 -15.9648 -11.384 -11.2942 -11.2099 -13.355 -18.1965 -13.9938 -9.7185 -14.9831 -15.1829 
-19.2063 -18.7305 -16.8614 -24.0021 -21.122 -23.102 -22.7474 -20.5606 -23.0921 -24.0602 -24.6764 -23.9085 -19.6186 -11.9131 -12.3757 -17.3059 -12.648 -16.9174 -16.2454 -16.8158 -16.0137 -14.2716 -14.9584 -18.9363 -19.2725 -14.0168 -16.0799 -18.7844 
-1.8085 -7.044 -10.235 -5.029 -4.174 -1.4985 -2.915 -2.7455 -3.956 -1.7565 -7.462 -6.9755 -4.142 -4.295 -2.5045 -8.7875 -2.229 -4.8405 -3.251 -4.0865 -1.4985 -3.251 -1.7565 -12.16972 -5.594 -2.3335 -2.5045 -5.973 -3.685 0 
-9.262501 -17.8068 -15.4582 -8.664001 -5.181 -4.1675 -4.0865 -6.5725 -4.932 -9.3015 -14.9359 -10.4505 -8.2665 -6.2355 -10.8025 -10.1 -6.968 -8.178 -6.645 -4.9425 -4.617001 -4.97 -14.87542 -17.76372 -6.455 -4.976501 -7.8485 -7.9285 -3.685 
-20.1525 -23.03 -19.0932 -9.517 -7.972001 -6.0485 -8.582001 -8.1505 -13.3452 -16.9628 -18.4109 -14.575 -10.096 -15.1411 -12.115 -14.839 -9.504001 -9.774501 -7.272 -6.979001 -5.087 -19.12792 -20.46942 -18.62472 -8.779501 -10.4765 -10.292 -7.9285 
-25.3757 -26.665 -19.9462 -12.4984 -8.7235 -10.503 -9.894 -16.8467 -21.0065 -20.4378 -22.5354 -16.4045 -19.0016 -16.4536 -16.854 -17.375 -11.3371 -10.257 -9.6095 -7.7495 -19.56752 -24.72192 -21.33042 -20.94922 -14.3415 -12.92 -10.292 
-29.0107 -27.518 -22.9276 -13.2499 -13.4408 -11.815 -18.6342 -24.508 -24.4815 -24.5623 -24.3649 -25.3101 -20.3141 -21.1926 -19.39 -19.2081 -11.8196 -12.5945 -9.718 -22.54782 -25.16152 -25.58292 -23.65492 -26.51122 -16.785 -12.92 
-2.4265 -2.186 -3.7855 -1.934 -4.6065 -2.3335 -3.5065 -1.4985 -4.8405 -1.7565 -8.7875 -5.3795 -2.264 -12.16972 -3.251 0 -2.9805 -4.443 -3.383 -3.869 -1.756 -4.424 -1.934 -1.4985 -3.5455 
-3.292 -4.9225 -5.059 -6.3965 -6.9485 -5.5725 -4.358 -5.7345 -6.876 -10.6215 -14.3824 -6.015 -15.46572 -15.42072 -3.251 -2.9805 -5.631001 -6.3795 -5.7275 -5.5755 -5.698 -5.195 -2.6125 -4.554 
-6.4395 -5.8285 -10.238 -8.617001 -10.5209 -6.193501 -9.075001 -7.256001 -16.561 -16.2164 -15.0179 -19.83292 -18.71672 -15.42072 -6.094 -5.631001 -7.705 -8.247001 -7.2665 -10.1945 -6.443 -6.055501 -5.298 
-7.5345 -11.2097 -12.4585 -12.2584 -11.1419 -10.5225 -10.564 -17.3846 -22.1559 -16.8519 -28.83582 -23.08392 -18.71672 -18.26372 -8.6555 -7.705 -9.297501 -9.189501 -11.9423 -10.9395 -7.4065 -8.897 
-13.0729 -13.4302 -16.0999 -12.8794 -15.4709 -12.3733 -20.6926 -22.9795 -22.7914 -30.66982 -32.08682 -23.08392 -21.55972 -20.82522 -10.8301 -9.297501 -9.825001 -14.0835 -12.6873 -11.903 -10.176 
