-4.759 
n/a 
n/a 
n/a 
n/a 
-4.759 
n/a 
n/a 
n/a 
n/a 
-4.759 
n/a 
n/a 
n/a 
n/a 
-4.759 
n/a 
n/a 
n/a 
n/a 
-5.127 -1.756 -6.216 -1.756 -1.4985 -4.98 -3.8655 -2.4945 -1.934 -1.4985 -11.0555 
-6.5575 -7.778 -7.6365 -3.0405 -6.3295 -10.932 -5.277 -4.2645 -2.6125 -13.6478 
-8.1645 -9.224501 -9.3675 -7.957 -12.8209 -12.3435 -7.107501 -4.935 -15.156 
-9.651001 -10.265 -14.3226 -14.542 -14.2324 -14.174 -8.047501 -17.8873 
-10.7893 -15.2201 -20.9076 -15.9535 -16.0629 -15.114 -21.3674 
-7.1325 -1.7565 -5.7575 -1.756 -6.216 -4.2895 -1.7565 -2.871 -4.809 -1.7695 -7.055 -1.4985 -4.7545 -1.7695 -4.1115 -1.7565 -5.3225 0 
-9.9474 -7.318501 -7.43 -7.778 -11.2903 -6.057 -4.521 -8.028501 -6.198 -9.001 -9.203501 -6.203 -6.559 -5.9195 -5.6415 -7.5715 -5.3225 
-14.2589 -7.4885 -11.8555 -13.3105 -13.0578 -9.366501 -9.75 -9.067 -13.9623 -10.1385 -13.982 -7.901 -11.2312 -8.474 -12.1431 -7.5715 
-15.5479 -10.8415 -15.6245 -15.078 -16.3673 -14.9107 -10.7885 -17.1177 -15.0998 -14.917 -15.68 -12.8472 -13.7857 -15.151 -12.1431 
-18.7764 -16.118 -17.392 -18.3875 -21.9115 -15.9492 -18.8392 -18.2552 -19.8783 -16.615 -20.6262 -15.4017 -20.4627 -15.151 
-1.4985 -5.771 -8.573501 -4.6805 -4.4765 -3.6615 -3.851 -1.7695 -4.824 -1.7565 -4.3685 -4.2875 -5.1245 -1.756 -5.508 -3.1495 -3.2495 -4.5355 -3.251 -1.8085 -5.598 -3.6615 -1.934 -1.4985 -3.518 -1.7565 -3.6605 -3.545 -5.173 0 
-6.8155 -15.6181 -13.5088 -8.1185 -8.7715 -6.654 -4.0015 -7.212501 -5.747 -5.478 -8.353001 -8.291 -6.4285 -6.8545 -8.753 -4.8975 -8.568501 -8.094501 -4.1695 -6.7565 -8.066 -4.437 -2.6125 -4.77 -4.302 -5.3435 -6.163 -7.3065 -5.173 
-17.1896 -20.5534 -16.9468 -12.7709 -11.911 -6.6685 -8.2765 -8.3715 -7.825 -9.222 -8.4505 -9.344001 -8.219501 -9.252501 -10.6382 -9.663 -12.2949 -9.556001 -9.603001 -9.739501 -8.2915 -5.0245 -6.25 -4.885 -8.0885 -7.574501 -7.3135 -7.3065 
-22.1249 -23.9914 -21.5992 -15.9104 -11.9255 -11.1447 -8.7825 -10.1265 -10.533 -9.329 -9.477 -11.3334 -10.1465 -11.3081 -15.4037 -13.4358 -13.7564 -15.0179 -12.878 -9.965001 -8.779 -7.308001 -6.384501 -8.828501 -9.699 -7.8805 -7.3135 
-25.5629 -28.6438 -24.7387 -15.9249 -16.4017 -11.6507 -10.485 -12.7259 -10.5705 -10.0625 -11.5354 -13.2604 -12.2975 -16.0736 -19.1765 -14.8973 -19.2183 -18.2929 -13.1035 -10.4525 -11.2627 -7.382 -10.513 -9.9835 -10.162 -7.8805 
-4.2485 -4.314 -6.066 -3.915 0 -5.2995 -5.116 -4.4795 -3.2295 -1.8085 -4.5435 -3.433 -1.4985 -5.34 -3.599 -3.458 -6.218 -6.657001 -5.2585 -3.1495 -4.8205 -5.166 -4.2735 -4.9475 0 -1.756 -4.5835 -3.819 -1.8085 -4.35 -1.7565 -5.313 -4.4545 -4.359 -2.264 -3.177 -1.7565 -4.314 -3.9785 -4.493 -3.936 -5.764 -4.853 -1.8085 -6.8855 -3.915 -2.5045 -3.644 -4.8285 0 
-6.6675 -9.452 -8.367001 -3.915 -5.2995 -9.449001 -6.717 -7.549001 -4.564 -6.121 -7.938001 -4.3795 -6.9445 -7.4725 -7.165 -9.72 -10.932 -9.948501 -8.454 -8.078 -8.307001 -9.581001 -8.7675 -4.9475 -1.756 -6.0585 -8.4855 -4.9805 -5.7795 -5.3865 -6.817501 -6.413 -7.08 -5.912 -4.764501 -4.2135 -5.628 -6.32 -9.025001 -6.865 -10.7025 -10.147 -5.58 -8.0775 -8.381001 -6.5275 -5.4635 -5.948501 -4.8285 
-10.7025 -10.42 -8.367001 -9.5815 -9.449001 -10.5765 -9.901001 -8.488501 -8.324 -9.563 -8.972501 -9.468 -8.269501 -9.277 -10.4765 -14.6668 -14.2235 -13.144 -13.5271 -10.66 -10.6605 -14.1072 -8.7675 -7.1145 -6.0585 -10.0995 -9.975501 -9.047001 -6.0695 -9.583501 -8.003 -9.621 -7.931 -8.396501 -4.957 -8.5865 -7.607 -12.3119 -10.6605 -14.1415 -15.0855 -10.695 -10.5225 -8.849501 -10.382 -8.636001 -6.771501 -5.948501 
-11.6705 -10.42 -14.6109 -14.0938 -10.5765 -13.7605 -10.5895 -12.6077 -12.1176 -10.452 -14.1128 -10.2345 -9.9505 -13.1155 -15.6953 -17.9583 -17.419 -18.2171 -16.1091 -13.0135 -15.1867 -14.1072 -10.3045 -9.729 -10.0995 -11.5891 -14.042 -9.726001 -9.81 -10.091 -10.66 -10.676 -10.243 -8.4475 -8.751 -10.5535 -13.7969 -13.9474 -17.937 -18.5245 -15.6335 -15.6375 -10.6135 -10.634 -12.4905 -10.76 -6.771501 
-11.6705 -16.6639 -19.1232 -15.2213 -13.7605 -14.449 -14.7087 -16.4013 -13.0066 -15.5923 -14.8793 -11.9155 -13.815 -18.3343 -18.9868 -21.1538 -22.4921 -20.7991 -18.4626 -17.5397 -15.1867 -15.6442 -12.919 -14.0996 -11.5891 -15.6556 -14.721 -13.4665 -10.295 -12.748 -11.715 -12.988 -10.3125 -10.4855 -10.6465 -16.7434 -15.4324 -21.2239 -22.32 -19.0725 -20.576 -15.7285 -12.398 -12.7425 -14.6145 -10.76 
