-4.759 
n/a 
n/a 
n/a 
n/a 
-4.759 
n/a 
n/a 
n/a 
n/a 
-4.759 
n/a 
n/a 
n/a 
n/a 
-4.759 
n/a 
n/a 
n/a 
n/a 
-1.934 -4.278 -5.5785 -2.229 -4.3285 -1.756 -4.1395 0 
-6.2645 -10.766 -6.6785 -5.7115 -5.4645 -5.5845 -4.1395 
-13.4907 -11.866 -9.2635 -7.153 -9.755 -5.5845 
-14.5907 -14.451 -10.4115 -11.6381 -9.755 
-17.1757 -15.599 -15.1292 -11.6381 
-4.3285 0 -1.756 -7.3435 -2.229 -3.8805 -3.881 -4.1395 -1.934 -9.0135 
-4.3285 -1.756 -9.058001 -8.02 -5.73 -6.417 -7.23 -5.912 -10.4265 
-5.4645 -9.058001 -9.8345 -11.8718 -8.2225 -8.1365 -8.851501 -15.1623 
-13.8219 -9.8345 -13.6863 -14.3643 -10.123 -9.6805 -18.3748 
-14.5984 -13.6863 -16.1788 -16.2648 -11.7584 -19.3054 

n/a 
n/a 
n/a 
n/a 
-5.5785 -2.229 -5.229 -1.756 -5.003 -1.934 -9.0135 0 
-6.6785 -6.383 -6.379 -6.2845 -6.805501 -10.4265 -9.0135 
-9.1575 -7.445001 -7.634501 -8.18 -15.9244 -10.4265 
-9.870001 -8.786501 -9.647 -17.5043 -15.9244 
-10.242 -10.3095 -19.0111 -17.5043 
