-4.759 
n/a 
n/a 
n/a 
n/a 
-4.759 
n/a 
n/a 
n/a 
n/a 
-4.759 
n/a 
n/a 
n/a 
n/a 
-4.759 
n/a 
n/a 
n/a 
n/a 
-6.6915 -2.186 -4.5735 -9.968 
-8.402 -6.1875 -15.7839 
-12.8691 -18.3119 
-24.9935 
n/a 
-6.2495 -4.1785 -2.186 -3.6045 -1.7565 -3.723 -3.845 0 
-8.0035 -5.811501 -6.644 -4.455 -5.533 -5.604 -3.845 
-9.795501 -11.0229 -7.7155 -8.454 -8.750001 -5.604 
-15.0463 -12.0944 -12.0667 -12.0168 -8.750001 
-16.1178 -16.4456 -15.6295 -12.0168 
-6.6915 -2.186 -12.16972 -4.126 
-8.402 -15.56612 -16.29572 
-22.24772 -19.69212 
-26.37372 
n/a 
-6.6915 -2.186 -1.4985 -3.6205 -7.4115 -1.7565 -1.4985 -3.845 
-8.402 -3.339 -4.05 -9.747 -8.056001 -2.4195 -6.353001 
-9.0425 -5.745 -10.5855 -10.6587 -8.7915 -6.797501 
-12.0653 -12.8567 -11.4972 -11.3942 -13.4525 
-19.177 -13.7684 -12.2327 -16.0552 
