-4.759 
n/a 
n/a 
n/a 
n/a 
-4.759 
n/a 
n/a 
n/a 
n/a 
-4.759 
n/a 
n/a 
n/a 
n/a 
-4.759 
n/a 
n/a 
n/a 
n/a 
-6.9985 -5.4315 -3.5125 -1.756 -3.9675 
-9.801001 -8.8225 -4.7915 -4.942 
-13.412 -10.1195 -6 
-14.709 -11.328 
-15.9175 
-12.16972 -9.028001 -1.756 -3.1435 -3.598 
-21.19772 -10.0255 -4.1365 -6.3745 
-22.19522 -12.406 -7.0995 
-24.57572 -15.369 
-27.53872 
-6.9985 -3.5125 -1.756 -3.9675 
-9.832001 -4.7915 -4.942 
-11.4934 -6 
-12.7019 
n/a 
-6.9985 -4.5735 -3.5125 -1.756 -3.9675 0 
-12.4268 -6.167 -4.7915 -4.942 -3.9675 
-14.0203 -7.337 -6 -4.942 
-15.1903 -8.913 -6 
-16.7663 -8.913 
