-4.759 
n/a 
n/a 
n/a 
n/a 
-4.759 
n/a 
n/a 
n/a 
n/a 
-4.759 
n/a 
n/a 
n/a 
n/a 
-4.759 
n/a 
n/a 
n/a 
n/a 
-4.5995 -3.8315 -1.756 -5.5805 -3.8315 -3.882 -3.0415 -4.065 -2.5045 -1.934 -4.361 -4.142 0 
-8.164001 -5.169001 -7.225 -7.7325 -7.645 -6.981 -5.6805 -6.357 -4.5825 -6.172 -7.604 -4.142 
-10.041 -9.409 -9.738501 -12.0228 -11.3508 -9.844001 -7.757501 -8.76 -8.989 -9.559001 -7.604 
-14.2398 -12.4269 -14.0714 -15.7286 -14.2138 -10.6125 -9.2735 -13.3841 -12.5346 -9.559001 
-17.2577 -16.7598 -17.7772 -18.5916 -14.9823 -13.4675 -14.447 -16.9297 -12.5346 
-4.8315 -1.756 -4.292 -3.8315 -2.186 -3.2495 -3.3755 -1.7565 -3.8315 
-6.2905 -6.6235 -10.181 -5.974 -5.841001 -5.388 -4.5295 -5.5375 
-12.0514 -13.0337 -12.3235 -9.772 -7.627501 -8.772 -8.2635 
-18.4616 -15.1762 -16.1215 -11.8151 -10.341 -12.6638 
-20.6041 -18.9742 -18.1646 -14.5286 -14.2328 
-3.8315 -2.356 -4.5995 0 -1.756 -3.251 -3.8315 -3.074 -3.7875 -4.065 -2.356 -3.8315 0 
-5.4065 -7.255501 -4.5995 -1.756 -5.137 -8.035001 -7.668 -6.3405 -8.1475 -5.2295 -6.331 -3.8315 
-10.27 -7.255501 -5.6715 -5.137 -10.259 -12.2373 -10.7175 -10.9609 -9.8722 -9.476 -6.331 
-10.27 -8.577001 -8.707001 -10.259 -14.4613 -15.2868 -15.3379 -12.6856 -14.1187 -9.476 
-11.8489 -11.9857 -14.2154 -14.4613 -17.5108 -19.9072 -17.0626 -16.9321 -14.1187 
-4.4935 -3.8315 0 -4.806 -3.8315 -2.4945 -1.4985 -4.361 -5.633 -4.3895 -2.0935 -1.4985 -4.7605 
-5.732 -3.8315 -4.806 -5.5635 -6.91 -3.9315 -5.8175 -6.104 -9.288 -6.3795 -2.9725 -5.638 
-5.732 -6.619 -5.5635 -8.75 -8.378 -8.267501 -7.901 -9.8205 -11.8844 -7.221 -6.995501 
-7.8265 -7.071001 -8.75 -10.3815 -12.9764 -10.7814 -12.1299 -12.6527 -12.7259 -11.5704 
-7.9335 -10.749 -10.3815 -14.9799 -15.4903 -15.0103 -14.9621 -13.4942 -17.0753 
