-4.759 
n/a 
n/a 
n/a 
n/a 
-4.759 
n/a 
n/a 
n/a 
n/a 
-4.759 
n/a 
n/a 
n/a 
n/a 
-4.759 
n/a 
n/a 
n/a 
n/a 
-2.3335 -2.9775 -2.4285 -2.8965 -3.64 -1.7695 -4.3455 -3.1435 -4.0475 -2.925 -4.7775 -1.756 -8.165501 -3.0695 -4.626 -1.7695 -4.241 -1.4985 -3.64 -2.4945 -3.985 -1.7695 -4.241 -1.4985 -3.64 -2.356 -4.4265 -4.191 0 -2.356 -2.3615 -2.688 -4.7505 -2.742 -2.489 -2.489 -4.0925 -4.021 0 
-5.673 -5.093 -4.1405 -5.858 -5.5055 -4.706 -6.0455 -6.5255 -7.1715 -8.369501 -6.249 -8.356 -8.462501 -8.387 -4.685501 -4.518 -4.978 -5.3715 -5.508 -5.6715 -4.877 -4.518 -4.978 -5.3715 -5.078 -5.8925 -8.111501 -4.191 -2.356 -4.2185 -4.8535 -6.8075 -7.0335 -3.301 -6.284 -5.186 -6.8405 -4.021 
-6.4135 -7.429501 -7.946001 -7.832 -8.904 -6.2285 -8.742001 -9.5965 -12.9824 -9.627001 -10.6875 -10.608 -15.2245 -8.5765 -7.979001 -5.142 -8.995501 -6.7755 -10.2135 -5.7965 -8.449 -5.142 -8.995501 -7.3295 -9.205001 -9.463 -8.111501 -7.0795 -4.2185 -6.131001 -10.007 -8.7775 -7.362 -7.3035 -9.253 -6.9535 -6.8405 
-9.9835 -8.5425 -9.958501 -11.5663 -10.634 -9.378 -12.4316 -15.4866 -14.2399 -15.0279 -13.7292 -16.1749 -15.5975 -12.02 -8.694 -9.255001 -10.4915 -11.6268 -10.2835 -9.393001 -9.09 -9.255001 -11.0455 -11.0941 -13.1315 -9.463 -9.037001 -8.8985 -6.131001 -11.4763 -12.2362 -8.992001 -12.3025 -9.755 -11.1625 -6.9535 
-11.4749 -10.609 -13.8308 -13.2963 -13.7835 -13.3104 -18.3217 -16.7441 -19.6408 -17.6528 -19.0727 -16.3879 -19.041 -12.735 -12.9024 -10.7644 -15.3428 -11.6968 -14.068 -9.755 -13.3446 -11.3184 -14.8101 -15.0206 -13.1315 -10.5507 -12.8156 -10.9854 -11.4763 -13.7055 -12.4507 -14.4977 -14.754 -11.6935 -11.1625 
-2.925 -4.052 -2.985 -2.9775 -1.7695 -3.4155 -2.925 -2.674 -2.5685 -5.593 -5.7865 -3.218 0 
-6.7995 -5.4215 -6.709001 -4.6995 -5.648 -6.448 -4.1785 -5.011 -7.424 -12.2775 -7.204 -3.218 
-7.828001 -8.2085 -8.120501 -9.854501 -9.3225 -7.542 -6.323501 -9.450001 -15.0927 -13.695 -7.204 
-10.7124 -11.3102 -13.5149 -13.5752 -10.514 -9.327001 -11.1665 -17.1789 -16.5102 -13.695 
-13.8141 -16.7046 -17.2356 -14.7667 -12.299 -14.4498 -18.8954 -18.5964 -16.5102 
-2.3335 -3.64 -1.7565 -3.64 -3.473 -4.649 -1.7565 -4.5075 -3.64 -3.881 -3.517 -1.7695 -2.688 -3.8085 -3.9555 -4.5735 -4.2175 0 
-7.196501 -5.246 -5.468 -6.183001 -9.58 -5.5185 -6.1645 -8.6525 -8.191501 -5.905001 -5.319 -4.698 -7.3025 -9.160501 -9.5655 -10.718 -4.2175 
-8.918 -8.856501 -9.455001 -13.7632 -10.23 -10.8273 -9.887 -13.669 -10.8061 -7.7355 -8.085501 -9.2345 -13.1847 -15.0083 -16.045 -10.718 
-12.7189 -13.5431 -17.2988 -14.4132 -15.5388 -14.5498 -16.0597 -16.2836 -12.6366 -9.8295 -12.9096 -15.4295 -19.0325 -21.4878 -16.045 
-17.4055 -21.3869 -17.9488 -19.722 -19.2613 -20.7225 -18.6743 -18.1141 -14.7306 -15.0154 -19.1046 -21.2773 -25.512 -21.4878 
-1.4985 -4.1225 -1.7565 -1.4985 -3.6045 -1.7565 -2.3335 -2.9775 -2.4285 -2.9775 -4.5895 -3.1425 -2.489 -4.629 -3.45 -3.0695 -5.1465 -1.7695 -4.3455 -1.4985 -3.6045 -1.7565 -1.4985 -3.64 -3.1425 -2.489 -5.176 -1.7565 -1.4985 -4.293 -1.7565 -3.45 -2.9775 0 -2.356 -2.3615 -2.688 -4.7505 -3.1425 -2.489 -4.2175 -1.7695 -2.489 -4.728 -3.2615 -4.189 0 
-5.448501 -5.154 -2.4195 -4.621 -4.455 -4.314 -5.673 -5.093 -6.161 -8.134001 -7.877001 -3.7875 -5.504 -8.064 -4.273 -6.711 -5.2285 -4.706 -5.183 -4.621 -4.455 -2.4195 -5.3715 -7.2 -3.7875 -6.151 -6.301 -2.4195 -5.6055 -5.421 -4.322 -7.845 -2.9775 -2.356 -4.2185 -4.8535 -6.8075 -8.477501 -3.7875 -5.1185 -4.751 -3.1405 -5.7945 -7.900001 -7.400001 -4.189 
-5.790501 -5.871 -5.8855 -4.7795 -7.246 -6.9045 -6.4135 -7.972001 -12.0415 -11.6641 -8.409 -7.909 -9.626 -9.4785 -7.569 -6.742001 -7.711 -5.4375 -6.9645 -4.7795 -5.1925 -6.195001 -8.34 -7.722 -8.4185 -7.5985 -6.9815 -6.867001 -5.901 -8.1195 -8.711 -7.845 -5.2365 -4.2185 -6.131001 -10.007 -10.085 -8.900001 -6.4705 -5.3405 -6.061 -6.4085 -8.4585 -12.3505 -7.400001 
-6.4665 -8.449 -6.166 -7.364501 -10.248 -8.667001 -10.674 -14.5143 -15.5716 -12.1961 -12.7923 -12.1686 -10.4055 -12.8411 -7.608 -9.68 -8.519 -7.1445 -7.071 -5.3475 -8.9975 -9.163001 -8.8275 -12.5866 -9.276501 -8.068501 -12.1554 -7.874001 -8.842501 -13.0395 -8.711 -10.5026 -7.4835 -6.131001 -11.4763 -13.5437 -10.465 -11.6682 -6.6905 -6.8455 -10.717 -9.2685 -13.0106 -12.3505 
-8.861 -8.712501 -8.605 -10.322 -12.0105 -12.1073 -17.2163 -18.0444 -16.1036 -16.5794 -17.0519 -12.9481 -13.7681 -12.8801 -10.1145 -10.6365 -10.3345 -7.2465 -7.739 -9.1175 -12.1601 -9.672501 -13.7919 -13.4446 -9.849 -13.3976 -13.1624 -10.9737 -13.8245 -13.0395 -11.4164 -12.7496 -9.219501 -11.4763 -15.013 -13.9237 -13.2332 -11.8882 -8.323 -11.6499 -13.577 -13.8414 -13.0106 
