-4.759 
n/a 
n/a 
n/a 
n/a 
-4.759 
n/a 
n/a 
n/a 
n/a 
-4.759 
n/a 
n/a 
n/a 
n/a 
-4.759 
n/a 
n/a 
n/a 
n/a 
-9.368 -8.467501 -2.186 -5.452 -3.325 -5.059 
-9.635 -10.8215 -6.913 -8.3605 -10.932 
-12.0434 -15.5485 -9.554001 -16.4115 
-16.7704 -18.1895 -17.8694 
-19.4114 -26.5049 
-12.16972 -2.7415 -4.2635 -4.19 0 
-14.91122 -5.7585 -6.248 -4.19 
-17.92822 -6.864 -6.248 
-19.03372 -6.864 
-19.03372 
-9.368 -8.467501 -4.2635 -4.19 
-9.635 -13.0372 -6.248 
-14.2591 -15.0217 
-16.2436 
n/a 
-12.16972 -12.16972 -5.5515 
-24.33944 -17.72122 
-29.89094 
n/a 
n/a 
