-4.759 
n/a 
n/a 
n/a 
n/a 
-4.759 
n/a 
n/a 
n/a 
n/a 
-4.759 
n/a 
n/a 
n/a 
n/a 
-4.759 
n/a 
n/a 
n/a 
n/a 
-7.190001 -2.186 -5.1805 -1.7695 -3.335 -1.4985 -4.3065 -1.7695 -1.4985 -3.9745 -1.756 -4.2225 
-8.7165 -6.3525 -7.862 -4.5005 -4.7575 -5.572001 -6.175001 -2.7955 -4.7475 -5.1055 -5.5795 
-9.628501 -8.3155 -9.964001 -5.4755 -9.366501 -7.229 -7.257 -5.8925 -5.687 -7.768001 
-11.7705 -10.389 -11.0726 -9.745001 -11.1713 -8.342 -10.7496 -6.985001 -9.4075 
-13.844 -11.4976 -15.3421 -11.5938 -12.2843 -12.0354 -11.8421 -10.1895 
-7.190001 -2.186 -4.4695 -4.179 -2.0935 -5.1845 -4.9225 
-8.7165 -6.053 -8.08 -6.361501 -7.298 -9.13 
-13.0795 -11.0123 -10.1555 -12.291 -10.4765 
-18.0388 -13.0878 -16.1118 -15.4695 
-20.1143 -19.0441 -19.2903 
-7.190001 -2.186 -5.1805 -1.7695 -3.6785 -3.7935 -1.7695 -3.6705 -4.9225 -1.756 -3.8245 -5.1755 
-8.7165 -6.3525 -7.862 -4.268 -6.127 -4.559 -5.544 -8.375 -6.156 -5.5 -6.3815 
-9.628501 -8.3155 -10.757 -6.2995 -6.863 -8.8675 -10.328 -9.925501 -10.0215 -7.9795 
-11.7705 -11.5221 -12.7885 -7.026 -11.5683 -13.6591 -11.8785 -13.9834 -12.6906 
-14.9771 -13.5536 -13.515 -11.8447 -16.3599 -15.2096 -15.9364 -16.6525 
-7.190001 -2.186 -5.1805 -2.5045 -3.7935 -4.1685 -3.193 -1.7695 -3.9745 -1.756 -2.5685 -3.8245 -5.164 0 
-8.7165 -6.3525 -6.8345 -7.406 -6.9405 -7.903001 -4.8505 -5.841001 -5.1055 -4.2335 -6.176 -6.658 -5.164 
-9.628501 -7.4865 -12.2346 -9.747001 -8.421 -9.3325 -10.5035 -6.989 -7.6095 -7.601 -7.2455 -6.658 
-10.9415 -13.1248 -14.5756 -10.5665 -10.4185 -15.2629 -11.6515 -9.1715 -9.205501 -8.349501 -7.2455 
-16.5798 -15.4658 -15.3951 -12.564 -16.3489 -16.4109 -13.834 -10.451 -9.906501 -8.349501 
