-4.759 
n/a 
n/a 
n/a 
n/a 
-4.759 
n/a 
n/a 
n/a 
n/a 
-4.759 
n/a 
n/a 
n/a 
n/a 
-4.759 
n/a 
n/a 
n/a 
n/a 
-2.8965 -5.1645 0 -4.9225 -2.4945 -2.8965 -5.891 -4.9225 0 
-8.1285 -4.443 -4.9225 -6.9525 -5.387 -8.465 -9.614 -4.9225 
-8.2275 -10.6735 -6.9525 -10.163 -11.4211 -12.452 -9.614 
-14.5992 -13.2115 -10.163 -16.1971 -15.4081 -12.452 
-17.1372 -16.422 -16.1971 -20.1841 -15.4081 
-3.687 -2.9905 -5.1645 0 -4.9225 -4.3535 -2.8965 -5.2835 
-5.673 -8.190001 -4.443 -4.9225 -10.238 -7.6385 -6.344501 
-10.875 -8.186001 -10.6735 -10.238 -13.632 -10.451 
-10.9492 -14.7001 -16.3192 -13.632 -16.4445 
-17.4633 -20.3458 -19.7132 -16.4445 
-4.5335 -5.1645 0 -1.7565 -3.277 -2.4945 -3.4635 -2.8965 -5.2835 0 
-8.8645 -4.443 -1.7565 -4.25 -5.237 -6.1285 -6.5605 -6.344501 -5.2835 
-9.292 -7.02 -4.25 -5.3725 -8.9545 -9.193001 -9.6745 -6.344501 
-10.5755 -9.816 -5.3725 -9.019001 -12.156 -12.398 -9.6745 
-13.3715 -10.6245 -9.019001 -12.2513 -15.361 -12.398 
-4.5335 -5.1645 0 -3.1385 -3.8185 -2.8965 -4.3705 -5.7835 
-8.8645 -4.443 -3.1385 -6.885 -6.930501 -6.4335 -7.625 
-9.292 -8.915501 -6.885 -9.583501 -9.790001 -9.93 
-14.1555 -12.5049 -9.583501 -12.8962 -13.6721 
-17.7449 -15.3078 -12.8962 -16.7783 
