-4.759 
n/a 
n/a 
n/a 
n/a 
-4.759 
n/a 
n/a 
n/a 
n/a 
-4.759 
n/a 
n/a 
n/a 
n/a 
-4.759 
n/a 
n/a 
n/a 
n/a 
-2.925 -2.4945 -4.4165 -3.3715 -5.891 0 -3.074 -4.4165 -4.794 -3.9675 0 
-3.7675 -6.2945 -7.6775 -9.531501 -5.891 -3.074 -7.135 -9.683001 -9.852501 -3.9675 
-7.31 -8.248501 -14.2225 -9.531501 -8.626 -7.135 -12.7973 -14.9387 -9.852501 
-10.354 -15.3641 -14.2225 -12.3621 -13.244 -12.7973 -18.053 -14.9387 
-17.7314 -15.3641 -17.0531 -16.9801 -18.9063 -18.053 -18.053 
-2.985 -4.3895 -3.3715 -4.3065 -1.756 -3.074 -3.619 -1.4985 -3.9675 
-9.5255 -7.6805 -7.856001 -5.326 -4.566 -6.436 -4.707 -5.356501 
-12.7597 -12.43 -9.349501 -8.3415 -7.535 -7.404 -9.072001 
-17.5092 -13.9235 -12.7222 -11.4663 -8.7205 -11.8326 
-19.0027 -17.2962 -15.847 -12.6518 -13.3623 
-3.1495 -3.3715 -4.2605 0 -4.1225 -1.4985 -3.766 -3.9675 0 
-6.7025 -8.407001 -4.2605 -4.1225 -6.218 -5.186501 -8.029 -3.9675 
-12.0368 -8.407001 -9.2285 -6.218 -9.795501 -9.4505 -8.029 
-12.0368 -13.6542 -11.5568 -9.795501 -14.1053 -9.4505 
-17.284 -15.9825 -15.1343 -14.1053 -14.1053 
-6.8035 -2.925 -3.8185 -3.6065 -4.2655 0 -2.4265 -2.8645 -4.3895 -3.8755 -3.9675 
-8.0005 -6.34 -7.387001 -7.571 -4.2655 -2.4265 -4.1435 -6.4095 -9.0345 -8.177 
-11.8231 -8.855 -10.7025 -7.571 -6.62 -4.1435 -7.975 -10.9947 -13.3794 
-14.3381 -12.1915 -10.7025 -9.405001 -8.035501 -7.975 -12.813 -15.3396 
-17.6746 -12.1915 -12.5365 -10.8531 -12.1256 -12.813 -17.1579 
