-4.759 
n/a 
n/a 
n/a 
n/a 
-4.759 
n/a 
n/a 
n/a 
n/a 
-4.759 
n/a 
n/a 
n/a 
n/a 
-4.759 
n/a 
n/a 
n/a 
n/a 
-4.5735 -3.8735 -4.5515 -1.934 -3.5855 
-7.0425 -9.0175 -5.364501 -5.251 
-12.7337 -9.568501 -8.151501 
-13.2847 -12.4799 
-16.1961 
-4.5735 -3.8735 -2.7415 -3.301 -1.934 -3.5855 0 
-7.0425 -6.64 -5.4305 -5.499001 -5.251 -3.5855 
-9.002001 -9.953501 -7.147501 -8.756001 -5.251 
-12.3941 -11.7409 -9.7075 -8.756001 
-14.1815 -14.3009 -9.7075 
-4.5735 -3.8735 -2.7415 -3.301 -1.934 -3.5855 
-7.0425 -6.64 -5.4305 -5.499001 -5.251 
-9.002001 -9.953501 -7.147501 -8.756001 
-12.3941 -11.7409 -9.7075 
-14.1815 -14.3009 
-4.5735 -3.8735 -2.7415 -3.383 -3.6975 -1.934 -3.5855 0 
-7.0425 -6.64 -4.8365 -5.5455 -5.568 -5.251 -3.5855 
-9.002001 -8.842001 -7.06 -6.618001 -9.087 -5.251 
-10.703 -11.1943 -7.72 -10.034 -9.087 
-13.0553 -11.8543 -11.4272 -10.034 
