-4.759 
n/a 
n/a 
n/a 
n/a 
-4.759 
n/a 
n/a 
n/a 
n/a 
-4.759 
n/a 
n/a 
n/a 
n/a 
-4.759 
n/a 
n/a 
n/a 
n/a 
-1.4985 -3.7075 -1.756 -1.4985 -3.995 -3.0465 -4.8955 
-4.6235 -5.318 -3.0405 -4.712 -7.5705 -9.5345 
-5.845 -6.396501 -6.254 -8.2685 -14.6361 
-6.502501 -7.7115 -10.2275 -15.7025 
-7.724 -11.9464 -17.6615 
-1.756 -1.4985 -3.7075 -1.756 -1.4985 -4.4515 -5.0505 -5.01 -2.5195 -2.985 -4.2725 0 
-3.0405 -4.6235 -5.318 -3.0405 -5.0235 -9.107 -7.134501 -6.85 -4.751 -5.663 -4.2725 
-6.186 -5.845 -6.396501 -6.4645 -9.393001 -10.3045 -9.436001 -7.972 -7.3815 -5.663 
-7.6425 -6.502501 -7.0165 -9.974501 -10.4045 -10.345 -10.191 -8.040501 -7.3815 
-8.0065 -7.028 -10.2135 -10.4385 -10.448 -10.3685 -10.208 -8.040501 
-1.4985 -3.7075 -1.756 -1.4985 -4.4515 -2.742 -5.0505 -5.01 0 
-4.6235 -5.318 -3.0405 -5.0235 -6.9925 -6.916 -7.134501 -5.01 
-5.845 -6.396501 -6.4645 -7.2535 -10.494 -8.804001 -7.134501 
-6.502501 -7.0165 -8.1665 -11.0166 -12.382 -8.804001 
-7.028 -9.304501 -12.2992 -12.9046 -12.382 
-3.7075 -1.756 -4.4515 -2.742 -4.8955 0 
-5.318 -6.289 -6.9925 -6.966 -4.8955 
-6.5745 -8.699 -11.6599 -6.966 
-8.8505 -13.5186 -11.6599 
-13.8057 -13.5186 
