-4.759 
n/a 
n/a 
n/a 
n/a 
-4.759 
n/a 
n/a 
n/a 
n/a 
-4.759 
n/a 
n/a 
n/a 
n/a 
-4.759 
n/a 
n/a 
n/a 
n/a 
-4.6195 -2.4945 -4.3185 -2.5045 -1.4985 -5.563 -4.4765 -7.33 -3.7555 -2.3345 -2.3615 -4.414 
-6.004 -6.0375 -7.087 -3.1915 -6.411 -10.1075 -10.287 -11.7019 -6.8455 -4.499 -6.569 
-10.382 -8.1295 -7.8515 -8.8125 -11.1881 -15.918 -14.6589 -14.7919 -9.032001 -8.130501 
-12.474 -9.408001 -13.7559 -13.6516 -16.9986 -20.2899 -17.7489 -16.9784 -12.8529 
-13.7525 -15.3296 -18.595 -19.4621 -21.3705 -23.3799 -19.9354 -20.7993 
-1.4985 -4.63 -1.7565 -1.4985 -2.3615 -4.05 -1.756 -1.4985 -4.4765 -1.7565 -1.4985 -4.414 -2.186 -3.383 -3.8315 0 -4.4525 -2.3615 -2.4265 -2.7415 -3.383 -5.099 -2.0935 -1.4985 -4.873 
-5.982 -6.1435 -2.4195 -6.004001 -5.97 -5.218 -3.0405 -5.738 -6.465 -2.4195 -5.5225 -6.151 -4.438 -9.3695 -3.8315 -4.4525 -5.535501 -5.3335 -3.681 -4.8365 -6.969 -7.113001 -2.9725 -6.0205 
-7.382 -6.546 -6.923 -9.983001 -7.147 -6.5 -7.287 -6.718 -7.124 -6.29 -6.6905 -8.1295 -10.9617 -9.3695 -8.649 -5.535501 -8.1155 -6.5455 -5.63 -7.992001 -8.636001 -8.0115 -7.719501 
-8.109 -12.0899 -10.485 -11.16 -8.196 -10.688 -8.2135 -7.322 -9.1085 -7.78 -8.7135 -15.2528 -10.9617 -14.3286 -10.177 -8.1155 -9.273001 -8.296 -8.3785 -9.3645 -9.594001 -12.9521 
-13.6877 -15.6519 -11.662 -12.209 -12.5466 -11.6145 -8.3685 -9.191 -10.3415 -9.833501 -15.9148 -15.2528 -15.9208 -15.8566 -13.1022 -9.273001 -11.3145 -11.2161 -9.782001 -10.4435 -14.588 
-7.831 -2.8645 -4.8465 -2.7455 -1.4985 -4.414 -3.5065 -2.4265 -2.8645 -3.383 -4.5345 -4.752 -3.8605 -2.9705 -2.186 -4.768 -2.3615 -4.05 0 
-10.7025 -7.1935 -6.995001 -3.637 -5.5225 -7.719501 -4.9345 -4.1435 -5.9505 -5.8805 -9.0385 -5.297 -6.816 -3.89 -5.796 -6.5215 -5.97 -4.05 
-15.0315 -10.0564 -7.487 -7.606501 -8.3585 -8.663501 -6.354001 -6.944 -9.4145 -10.7175 -9.4735 -8.791 -7.457 -7.143001 -7.021 -8.9635 -5.97 
-17.8944 -10.5484 -11.7389 -10.1945 -9.2115 -10.2435 -8.9975 -10.227 -14.3219 -11.1525 -13.2967 -9.403001 -10.9496 -8.327001 -10.061 -8.9635 
-18.3864 -14.8003 -14.3269 -11.0475 -10.9911 -12.887 -12.4663 -15.1344 -14.7569 -14.9757 -13.9087 -13.0376 -12.1336 -11.7806 -10.061 
-4.6195 -2.4945 -4.8465 -2.5045 -4.611 -5.261 -1.7565 -2.3615 -4.414 -2.186 -3.383 -4.5345 -1.7695 -5.898 0 
-6.004 -6.670001 -6.891001 -7.1225 -7.005 -6.214 -3.523 -6.569 -6.151 -4.438 -5.8805 -6.43 -6.262001 -5.898 
-9.1355 -9.068501 -12.2836 -9.731001 -7.3645 -8.231501 -7.382501 -7.4075 -8.1295 -6.689 -7.3345 -9.856501 -6.262001 
-12.1632 -14.6677 -14.8921 -10.7625 -9.951 -9.6555 -8.5895 -8.901 -10.0705 -7.717 -11.1016 -9.856501 
-17.7624 -17.2762 -15.9236 -13.349 -11.5272 -11.0325 -10.208 -11.0562 -11.0985 -11.8285 -11.1016 
