-4.759 
n/a 
n/a 
n/a 
n/a 
-4.759 
n/a 
n/a 
n/a 
n/a 
-4.759 
n/a 
n/a 
n/a 
n/a 
-4.759 
n/a 
n/a 
n/a 
n/a 
-4.1585 -1.7695 -12.16972 -3.9725 -1.756 -3.0785 -3.277 
-5.604 -14.92142 -16.14222 -5.5515 -4.899 -5.121 
-19.68732 -18.89392 -17.72122 -9.3655 -6.2065 
-23.65982 -20.47292 -21.53522 -11.0174 
-25.23882 -24.28692 -23.18712 
-2.9805 -3.669 -2.0935 -3.0785 -1.7695 -1.4985 -12.16972 -3.9725 -7.943 -4.7135 -3.091 -3.8685 -1.934 -1.8085 -4.0245 
-8.201 -4.736 -4.976 -4.903 -2.7955 -14.76202 -16.14222 -12.8585 -13.1619 -6.807 -5.8145 -5.1635 -3.2685 -4.8485 
-9.234001 -6.926 -6.7405 -6.6445 -16.29422 -18.73452 -25.02822 -18.0774 -15.2554 -10.2813 -6.935 -6.4265 -5.88 
-11.5248 -8.4685 -7.713 -20.62022 -20.26672 -27.62052 -30.24712 -20.1709 -18.7297 -11.4018 -8.3015 -8.7965 
-13.0673 -9.4115 -22.12592 -24.59272 -29.15272 -32.83942 -32.34062 -23.6452 -19.8502 -12.7683 -9.537001 
-3.0415 -5.3305 -1.7695 -2.3615 -3.367 -1.7695 -9.9495 -3.9725 -3.855 -1.4985 -3.135 -5.4075 -3.0785 0 
-9.086 -6.5725 -3.736 -4.1885 -4.3975 -12.7012 -14.0172 -8.585 -4.7575 -6.4025 -8.571001 -9.241501 -3.0785 
-10.3415 -9.107 -4.8095 -4.834 -15.221 -16.7689 -18.6297 -9.762501 -9.447001 -12.1565 -12.5282 -9.241501 
-12.876 -10.4235 -8.052501 -18.1105 -19.2887 -21.3814 -19.8072 -14.452 -15.731 -16.1137 -12.5282 
-14.1925 -13.6665 -20.416 -22.1782 -23.9012 -22.5589 -24.4967 -20.736 -19.6882 -16.1137 
-2.9805 -3.985 -2.0935 -3.0785 -2.5195 -9.122001 -3.9725 
-5.5375 -5.2525 -4.976 -5.338 -12.3151 -13.2881 
-6.703001 -6.9655 -6.618001 -15.7042 -16.4812 
-8.399 -7.955 -17.3888 -19.8703 
-9.238001 -18.7732 -21.5549 
