-4.759 
n/a 
n/a 
n/a 
n/a 
-4.759 
n/a 
n/a 
n/a 
n/a 
-4.759 
n/a 
n/a 
n/a 
n/a 
-4.759 
n/a 
n/a 
n/a 
n/a 
-3.999 0 -3.0835 -3.355 -3.602 
-3.999 -3.0835 -5.5885 -8.64 
-7.1735 -5.5885 -9.9835 
-10.4331 -9.9835 
-14.8281 
-4.0995 0 -3.0835 -2.9775 -3.522 
-4.0995 -3.0835 -5.4115 -6.318501 
-8.070001 -5.4115 -9.4785 
-10.8262 -9.4785 
-14.8932 
-3.7855 0 -3.0835 -2.9775 -4.928 
-3.7855 -3.0835 -5.4115 -7.925501 
-6.993001 -5.4115 -11.3127 
-9.865001 -11.3127 
-16.278 
-3.473 0 -3.0835 -2.9775 -1.7565 -4.96 
-3.473 -3.0835 -5.4115 -4.9315 -6.784501 
-6.625 -5.4115 -6.212 -10.2695 
-8.045 -6.212 -12.496 
-9.943001 -12.496 
