-4.759 
n/a 
n/a 
n/a 
n/a 
-4.759 
n/a 
n/a 
n/a 
n/a 
-4.759 
n/a 
n/a 
n/a 
n/a 
-4.759 
n/a 
n/a 
n/a 
n/a 
-3.147 0 -5.5785 -2.229 -3.3435 -3.5125 -3.4635 -4.5505 -2.4945 -4.3725 -2.0935 -3.237 -2.9635 0 
-3.147 -5.5785 -6.6785 -5.0415 -6.0675 -5.6765 -8.043 -6.235001 -5.572001 -6.472001 -4.7925 -6.3245 -2.9635 
-9.2605 -6.6785 -8.380501 -7.915501 -9.543 -10.0575 -9.567 -9.252001 -7.7655 -8.942501 -7.3625 -6.3245 
-9.936 -8.380501 -11.5675 -11.6392 -14.3928 -12.3783 -12.96 -11.6023 -9.5845 -9.625001 -7.3625 
-11.8978 -11.5675 -15.2912 -16.489 -16.7136 -15.7713 -15.3103 -13.4213 -9.6665 -9.625001 
-4.426 -1.7565 -1.4985 -3.6115 -4.7285 -4.1555 -6.294 -1.4985 -3.9515 -2.8645 -3.1125 -5.417 -2.7455 -7.3435 -2.229 -3.3435 -3.5125 
-5.47 -2.4195 -4.081 -6.5495 -8.4455 -8.656 -7.766 -5.3745 -7.1995 -3.5345 -6.8475 -8.7755 -9.469 -8.02 -5.0415 -6.0675 
-5.9535 -5.180501 -6.670501 -9.978001 -12.6855 -11.0625 -11.741 -8.702001 -8.175501 -7.1325 -10.688 -15.7974 -10.1565 -9.372001 -7.915501 
-8.462501 -7.797 -10.054 -14.1964 -14.46 -14.33 -15.5383 -9.321501 -11.9549 -11.2742 -17.7099 -16.4849 -11.5085 -12.4014 
-10.2375 -11.2985 -14.3088 -15.9709 -18.1015 -18.0453 -16.1578 -13.1423 -16.0966 -18.2961 -18.3974 -17.8369 -14.5379 
-2.3615 -2.186 -1.4985 -3.5015 -3.3155 -1.4985 -3.3435 -3.5125 -1.7565 -5.5785 -1.756 -3.091 -4.806 -2.4945 -5.417 0 
-3.5005 -3.339 -4.737 -5.1555 -4.1745 -4.6745 -6.0675 -4.312 -7.196001 -6.8855 -4.2995 -7.477 -7.486 -7.073 -5.417 
-4.3105 -5.516 -5.664001 -6.0185 -7.732501 -7.0935 -6.984 -10.085 -8.078 -8.237 -8.946 -10.5535 -12.4657 -7.073 
-5.976501 -6.4165 -6.3125 -9.0185 -10.2535 -7.369 -13.1784 -10.9938 -9.298501 -13.2083 -12.1261 -15.5332 -12.4657 
-6.8 -7.396 -9.960501 -12.0053 -10.6425 -13.7214 -14.0872 -12.2143 -14.3636 -16.3884 -17.1058 -15.5332 
-3.147 -5.5785 -2.229 -3.3435 -2.186 -5.6465 -2.5045 -3.9515 0 
-9.2605 -6.6785 -5.0415 -4.9685 -6.637 -6.341 -7.0585 -3.9515 
-9.936 -8.380501 -6.410501 -8.8765 -7.0425 -11.3548 -7.0585 
-11.8978 -9.910501 -9.797001 -9.481001 -12.3443 -11.3548 
-13.4278 -13.4632 -10.3705 -14.7458 -12.3443 
