-4.759 
n/a 
n/a 
n/a 
n/a 
-4.759 
n/a 
n/a 
n/a 
n/a 
-4.759 
n/a 
n/a 
n/a 
n/a 
-4.759 
n/a 
n/a 
n/a 
n/a 
-3.8735 -2.186 -4.25 -3.59 
-5.949 -5.495501 -7.897 
-8.068501 -10.3285 
-13.5449 
n/a 
-3.8735 -2.8645 -4.09 
-6.143 -5.262 
-8.4245 
n/a 
n/a 
-3.8735 -2.186 -1.8085 -4.216 -3.59 0 
-5.949 -3.164 -6.186 -6.136 -3.59 
-6.8155 -7.344 -6.638 -6.136 
-9.1035 -7.978001 -6.638 
-9.234 -7.978001 
-3.8735 -2.186 -3.383 -3.301 -4.216 -3.59 
-5.949 -4.438 -4.6415 -8.454 -6.136 
-8.0665 -5.878 -9.932501 -10.58 
-9.700001 -11.697 -12.2023 
-15.6648 -13.9668 
