-4.759 
n/a 
n/a 
n/a 
n/a 
-4.759 
n/a 
n/a 
n/a 
n/a 
-4.759 
n/a 
n/a 
n/a 
n/a 
-4.759 
n/a 
n/a 
n/a 
n/a 
-3.5065 -4.712 0 -1.934 -5.235 -3.0365 -2.4945 -4.094 -1.7695 -7.632 -7.572001 0 -2.872 -3.628 -2.186 -4.215 -2.7455 -4.4015 -3.8755 -7.572001 
-6.881001 -4.712 -1.934 -7.282 -7.523 -3.688 -6.8335 -4.884501 -9.618501 -15.4782 -7.572001 -2.872 -6.073 -6.048 -6.245501 -5.5395 -7.3305 -9.158001 -12.4569 
-6.881001 -6.144001 -7.282 -9.9175 -8.531 -7.3785 -6.9665 -12.6361 -17.5361 -15.4782 -9.933001 -6.073 -7.3415 -8.8065 -8.613501 -10.328 -12.4168 -17.8398 
-7.603001 -10.6465 -9.9175 -11.0485 -12.3203 -7.512501 -15.2685 -20.5537 -17.5361 -17.8392 -13.134 -7.3415 -9.9715 -9.436501 -13.4068 -15.4143 -21.0986 
-12.9595 -13.282 -11.0485 -14.8378 -12.4543 -15.8917 -23.1861 -20.5537 -19.8971 -21.0402 -14.4025 -9.9715 -10.5785 -14.3512 -18.4931 -24.0961 
-3.2615 -4.712 -4.685 -2.5195 -1.4985 -3.914 -2.7455 -1.4985 -3.8175 -5.211 -3.772 -3.5455 -1.4985 -4.71 -2.229 0 -2.7295 -3.3785 -1.8085 -3.383 -3.628 -2.7455 -1.4985 -4.303 -3.672 -5.25 0 
-6.923 -9.281501 -5.093 -3.1695 -5.0465 -5.543 -3.637 -4.741 -7.917 -9.356501 -6.297 -3.91 -6.097 -5.8665 -2.229 -2.7295 -4.7195 -5.3345 -4.1695 -5.1625 -5.8055 -3.637 -5.452001 -8.811001 -8.619 -5.25 
-11.9423 -9.303 -5.585001 -6.9545 -7.1705 -6.099 -7.059 -9.155001 -13.2971 -12.1341 -6.5705 -7.3255 -6.2285 -5.8665 -5.692 -4.7195 -6.8235 -7.719501 -6.9395 -6.5495 -6.4745 -7.5385 -10.5745 -14.272 -8.619 
-11.9638 -9.834001 -9.061501 -9.3545 -7.6075 -9.446 -11.885 -14.9811 -16.0747 -12.4076 -10.142 -7.420001 -6.2285 -8.179501 -7.830501 -6.8235 -9.296 -9.4245 -9.1155 -7.1425 -10.1595 -13.1926 -16.0355 -14.272 
-12.4948 -13.3105 -11.4881 -9.7205 -11.0055 -14.272 -17.7111 -17.7587 -16.3482 -15.9791 -10.2545 -7.420001 -8.368 -10.419 -10.085 -9.296 -11.139 -10.002 -10.028 -10.9265 -15.8486 -18.6536 -16.0355 
-3.2615 -1.4985 -4.712 0 -1.934 -5.235 -4.685 -2.5195 -1.4985 -3.17 -3.9205 -2.5045 -1.4985 -4.58 -3.772 0 -2.7455 -1.4985 -5.2695 -3.672 -7.348001 -2.4945 -3.6955 -1.7695 -3.3785 -3.383 -3.689 -2.5045 -2.3335 -2.95 0 
-4.032 -5.918 -4.712 -1.934 -7.282 -9.5375 -5.093 -3.1695 -3.7115 -6.863501 -6.305501 -3.1915 -5.465 -7.658 -3.772 -2.7455 -3.637 -5.8035 -8.217501 -12.1978 -9.5305 -6.9875 -4.4705 -4.1685 -6.326 -7.358 -6.488501 -4.744 -4.8245 -2.95 
-7.989501 -5.918 -6.144001 -7.282 -11.8323 -9.544001 -5.585001 -5.9495 -7.402 -9.925501 -6.666 -7.4935 -9.0725 -7.658 -6.6885 -3.637 -8.012501 -8.335501 -17.7633 -14.3803 -14.0853 -7.62 -6.3255 -7.753 -9.925001 -10.218 -8.67 -5.158 -4.8245 
-7.989501 -8.4005 -10.6465 -11.8323 -11.8388 -10.085 -8.540501 -9.408501 -10.4345 -10.2685 -11.7188 -11.476 -9.0725 -11.0221 -7.521 -8.012501 -10.7017 -18.4983 -19.9458 -18.9351 -14.7178 -10.243 -9.080001 -11.2696 -13.1816 -12.3995 -9.1595 -5.158 
-9.31 -13.0628 -15.1968 -11.8388 -12.3798 -13.0405 -12.1581 -12.552 -10.623 -15.3811 -15.7013 -11.476 -12.5542 -11.8546 -12.4905 -10.7017 -20.8645 -20.6808 -24.5006 -19.5676 -17.3408 -12.9975 -13.2572 -14.5262 -15.3631 -12.889 -9.1595 
-3.17 -1.7565 -1.4985 -4.58 -2.915 -3.557 -3.2615 -4.248 -1.934 -4.71 -2.872 -2.6165 -3.4915 -2.915 -3.333 -2.264 -3.59 -4.58 
-4.179 -2.4195 -5.465 -7.599 -5.8245 -6.494 -8.1685 -5.7205 -5.951 -7.601 -4.245 -5.27 -5.8025 -5.275001 -4.6085 -6.3465 -8.7805 
-4.497 -6.1885 -8.852501 -10.8463 -9.805 -11.7908 -9.953 -9.978001 -7.91 -9.234 -6.4585 -7.628 -7.759 -5.909 -9.5535 -12.3328 
-8.804501 -9.790001 -12.4096 -14.8268 -15.3908 -13.5753 -14.1229 -11.937 -9.675501 -11.7053 -9.0255 -8.5815 -8.438001 -10.5975 -15.6916 
-12.6646 -13.4685 -16.3901 -20.4126 -17.1753 -17.7452 -16.0819 -13.7025 -12.1952 -14.2723 -10.7595 -9.1755 -13.6457 -16.7356 
