-4.759 
n/a 
n/a 
n/a 
n/a 
-4.759 
n/a 
n/a 
n/a 
n/a 
-4.759 
n/a 
n/a 
n/a 
n/a 
-4.759 
n/a 
n/a 
n/a 
n/a 
-1.934 -1.4985 -4.6585 -6.6 -4.61 -6.848001 -4.168 
-2.6125 -6.495501 -11.08 -11.9532 -12.501 -10.9075 
-7.48 -13.6526 -16.4332 -19.8442 -16.5605 
-14.8349 -19.0058 -24.3242 -23.9037 
-20.1881 -26.8968 -28.3837 
-4.6585 -6.634501 -4.61 -1.7695 -4.7995 -6.848001 -3.2795 0 
-11.7518 -11.8505 -6.614 -5.770501 -12.6465 -10.3415 -3.2795 
-16.9678 -13.8545 -11.172 -13.9787 -16.14 -10.3415 
-18.9718 -18.4125 -19.3802 -17.4722 -16.14 
-23.5298 -26.6207 -22.8737 -17.4722 
-1.934 -4.6585 -6.634501 -4.866 -6.848001 -4.085 -4.077 -1.934 -4.345 0 
-5.8095 -11.7518 -12.1065 -12.9874 -10.9075 -5.937 -4.43 -6.5065 -4.345 
-13.3708 -17.2238 -20.2279 -17.0469 -12.7595 -6.3515 -8.061001 -6.5065 
-18.8428 -25.3452 -24.2874 -18.8989 -13.174 -10.5745 -8.061001 
-26.9642 -29.4047 -26.1394 -19.3134 -17.397 -10.5745 
-1.934 -4.6585 0 -3.5455 -4.657 0 -5.9545 0 -1.4985 -9.080501 -4.085 -4.75 -1.934 -4.345 
-5.8095 -4.6585 -3.5455 -9.104501 -4.657 -5.9545 -5.9545 -1.4985 -9.758 -12.5525 -7.6735 -4.981 -6.5065 
-5.8095 -7.9245 -9.104501 -9.104501 -9.411501 -5.9545 -7.5745 -9.953001 -15.174 -16.8322 -7.788 -8.362 
-8.2805 -13.9969 -9.104501 -14.3396 -9.411501 -7.5745 -16.3901 -15.6147 -20.3684 -17.7029 -11.4834 
-14.3981 -13.9969 -14.3396 -14.3396 -11.1519 -16.3901 -21.8543 -20.3684 -20.4829 -21.3983 
