-4.759 
n/a 
n/a 
n/a 
n/a 
-4.759 
n/a 
n/a 
n/a 
n/a 
-4.759 
n/a 
n/a 
n/a 
n/a 
-4.759 
n/a 
n/a 
n/a 
n/a 
-3.034 -3.989 -1.934 -2.8965 -3.6885 -3.074 
-5.858 -5.481 -4.391 -6.119 -7.084001 
-7.479 -7.7955 -7.7305 -9.409 
-9.3925 -11.357 -10.4185 
-13.3076 -14.045 
-2.7835 -3.989 -3.757 -4.426 
-5.509 -8.4635 -8.972 
-10.194 -14.0185 
-15.749 
n/a 
-2.7835 -4.1085 -3.757 -3.4625 -2.8965 -3.6885 0 
-7.1695 -9.489 -7.538 -6.7945 -6.119 -3.6885 
-12.6092 -13.4174 -11.4048 -9.713501 -6.119 
-16.5376 -17.2842 -14.3238 -9.713501 
-20.4044 -20.2032 -14.3238 
-12.16972 -2.186 -3.465 -2.7455 -3.7745 
-14.35572 -7.518001 -6.707 -6.995 
-19.68772 -10.8256 -11.2213 
-22.99532 -15.3399 
-27.50962 
