-4.759 
n/a 
n/a 
n/a 
n/a 
-4.759 
n/a 
n/a 
n/a 
n/a 
-4.759 
n/a 
n/a 
n/a 
n/a 
-4.759 
n/a 
n/a 
n/a 
n/a 
-2.3615 -4.5845 -4.4525 -4.5875 -3.3715 -4.088 -1.934 -4.245 0 -2.872 -3.013 -5.651501 -3.6785 -2.7455 -4.4525 -4.2705 
-7.546 -9.0485 -9.142 -7.525001 -5.932 -5.429501 -5.934 -4.245 -2.872 -5.2745 -8.529501 -7.3335 -5.2375 -8.339001 -9.816501 
-12.2812 -13.9732 -12.4577 -10.7175 -6.872001 -9.312 -5.934 -6.824501 -5.2745 -10.4885 -11.533 -11.1135 -11.3094 -14.0364 
-17.2059 -17.2889 -15.6502 -11.6575 -11.1347 -9.312 -7.9945 -9.3225 -9.778501 -11.986 -12.6144 -17.5164 -17.0068 
-20.5216 -20.4814 -16.5902 -15.9202 -11.1347 -11.6115 -10.647 -13.8957 -12.034 -14.8756 -19.0451 -23.2138 
-3.5125 -5.3275 -3.6785 -4.011 -2.7455 -1.4985 -4.2705 -1.7565 -2.3615 -4.5845 -4.4525 -2.872 -4.6525 -2.7455 -2.3615 -4.761 -2.264 -4.9405 -1.756 -9.1125 
-9.031 -7.5755 -5.6725 -5.394 -3.637 -5.383 -5.4125 -3.523 -7.546 -9.0485 -6.8525 -7.5525 -6.5805 -4.1635 -8.578501 -6.6815 -7.64 -6.1115 -10.4345 
-11.5396 -8.384501 -6.442 -6.1005 -7.2405 -5.585001 -7.595 -8.7925 -12.2812 -11.6837 -12.3072 -10.0775 -8.6975 -10.9905 -10.76 -12.7779 -9.022501 -15.7648 
-12.3486 -8.671 -7.1245 -9.625501 -7.476501 -7.6435 -13.3159 -13.6375 -14.9164 -17.1384 -14.8322 -12.2975 -15.6933 -13.172 -16.8564 -14.1604 -18.8492 
-12.6351 -9.4165 -10.4675 -9.848001 -9.4235 -13.3986 -18.1609 -16.2727 -20.3711 -19.6634 -17.0522 -19.2933 -17.8748 -19.2684 -18.2389 -23.9871 
-3.929 -1.4985 -6.05 -4.603 -1.934 -3.849 -4.088 -2.7455 -1.4985 -4.5845 -4.4525 0 -4.025 -2.8645 -3.1125 -4.4155 -2.7455 -2.985 -5.1245 0 
-4.8985 -7.5185 -10.7495 -6.2155 -5.1105 -6.419001 -7.174001 -3.637 -5.802501 -9.0485 -4.4525 -4.025 -6.06 -3.5345 -6.155001 -6.921 -4.943 -7.3765 -5.1245 
-11.1101 -12.978 -12.362 -9.2335 -6.6955 -8.8925 -8.266001 -7.9715 -9.3155 -9.0485 -9.175001 -6.06 -6.568 -6.589 -8.422501 -9.1145 -9.0565 -7.3765 
-16.5696 -14.5905 -15.38 -9.949 -9.088 -9.4215 -12.8159 -11.8959 -9.3155 -14.0062 -11.4724 -6.568 -8.819 -8.664001 -10.818 -13.4252 -9.0565 
-18.1821 -17.6085 -16.0955 -12.4527 -9.458 -14.2846 -16.7403 -11.8959 -14.333 -16.3036 -11.9804 -8.819 -9.196501 -11.0675 -15.1287 -13.4252 
-1.4985 -4.5845 -4.4525 -2.8645 -3.1125 -4.164 -1.934 -3.3715 -6.05 -2.872 -2.9805 -4.399 -1.7565 -2.3615 -4.5845 -4.4525 -3.531 -2.6165 -4.4155 -2.9995 -3.3155 
-5.802501 -9.0485 -7.259501 -3.5345 -5.771501 -4.585 -4.622 -8.765 -8.862 -4.6545 -8.397501 -4.831 -3.523 -7.546 -9.0485 -7.4245 -6.45 -6.0315 -7.407001 -6.4375 
-9.3155 -12.0907 -7.8785 -6.06 -6.484 -7.813 -9.223001 -11.7294 -10.6095 -10.8523 -8.912001 -6.858 -8.7925 -12.2812 -12.2557 -10.76 -10.31 -8.4455 -9.3795 
-12.4175 -12.7097 -10.8146 -6.843 -8.394501 -12.691 -12.2366 -13.4769 -16.8073 -11.3668 -10.281 -12.3371 -13.6375 -15.4884 -15.5912 -14.62 -12.724 -9.6875 
-13.0365 -15.6458 -11.5976 -8.601 -13.3671 -15.7046 -13.9841 -19.6747 -17.3218 -12.7358 -15.7601 -17.1821 -16.8447 -18.8239 -19.4512 -17.034 -13.966 
