-4.759 
n/a 
n/a 
n/a 
n/a 
-4.759 
n/a 
n/a 
n/a 
n/a 
-4.759 
n/a 
n/a 
n/a 
n/a 
-4.759 
n/a 
n/a 
n/a 
n/a 
-2.3615 -4.3065 -3.332 -4.0335 -2.674 -4.25 -5.4435 -1.756 -3.7545 
-6.948501 -7.972001 -5.957001 -7.2075 -7.533501 -8.065001 -6.728 -6.327 
-10.7495 -10.6095 -9.434001 -12.4134 -9.567501 -9.778 -9.2295 
-13.387 -14.0865 -14.6889 -14.4474 -11.6165 -12.3991 
-16.864 -19.3414 -16.7229 -16.4964 -14.2376 
-2.5045 -2.3335 -2.95 0 -3.3715 -5.4435 -2.7455 -3.8905 -4.978 -1.934 -3.091 -4.0335 0 
-4.744 -4.8245 -2.95 -3.3715 -7.72 -6.0625 -6.1255 -7.9215 -5.9045 -4.2105 -5.5535 -4.0335 
-5.158 -4.8245 -6.328 -7.72 -8.3915 -8.658501 -10.6195 -9.4985 -8.431001 -6.346001 -5.5535 
-5.158 -7.423 -10.647 -8.3915 -10.7595 -13.3577 -12.1965 -12.3928 -9.309 -6.346001 
-7.7955 -11.852 -11.3185 -10.7595 -15.4587 -14.9347 -15.0908 -13.2708 -9.309 
-2.5045 -2.3615 -2.95 -2.9805 -4.5815 -2.7455 -3.8905 -1.756 -4.6335 -7.6695 
-4.3105 -4.4645 -5.2005 -8.517 -5.9775 -6.1255 -5.1525 -5.6515 -13.7532 
-4.89 -6.157001 -11.3404 -10.375 -8.953 -6.9785 -8.49 -15.1556 
-7.118001 -12.5525 -13.1984 -13.3505 -9.913 -9.59 -18.3487 
-13.7605 -14.4105 -16.1739 -14.3105 -12.7793 -19.8223 
-3.845 -1.7565 -3.6175 -1.756 -5.4435 -6.383 -2.5195 -3.091 -4.0335 -3.321 
-4.13 -5.386 -4.811 -7.054 -10.533 -8.6145 -4.8225 -5.5535 -6.849 
-6.43 -6.4445 -7.945 -12.2975 -12.7645 -10.075 -7.443 -8.106 
-7.449501 -9.1785 -13.3215 -14.529 -14.225 -12.8147 -9.887501 
-9.84 -14.6744 -15.553 -15.9895 -16.9647 -15.2592 
