-4.759 
n/a 
n/a 
n/a 
n/a 
-4.759 
n/a 
n/a 
n/a 
n/a 
-4.759 
n/a 
n/a 
n/a 
n/a 
-4.759 
n/a 
n/a 
n/a 
n/a 
-4.5255 -7.009 -10.5565 -7.443501 0 -5.1645 0 
-10.2645 -18.2309 -18 -7.443501 -5.1645 -5.1645 
-21.838 -25.6744 -18 -10.2595 -5.1645 
-29.2815 -25.6744 -20.816 -10.2595 
-29.2815 -28.4904 -20.816 
-4.5255 0 -7.009 -6.4085 -7.443501 0 -5.1645 0 
-4.5255 -7.009 -14.0829 -14.8992 -7.443501 -5.1645 -5.1645 
-10.2645 -14.0829 -22.5736 -14.8992 -10.2595 -5.1645 
-17.69 -22.5736 -22.5736 -17.7152 -10.2595 
-26.1807 -22.5736 -25.3896 -17.7152 
-11.5345 -7.58 -7.443501 0 -5.1645 0 
-18.5099 -15.2807 -7.443501 -5.1645 -5.1645 
-26.5622 -15.2807 -10.2595 -5.1645 
-26.5622 -18.0967 -10.2595 
-29.3782 -18.0967 
-11.5345 -8.137 -7.2255 0 -5.1645 0 
-19.0669 -15.7713 -7.2255 -5.1645 -5.1645 
-27.0528 -15.7713 -13.0702 -5.1645 
-27.0528 -21.616 -13.0702 
-32.8975 -21.616 
