-4.759 
n/a 
n/a 
n/a 
n/a 
-4.759 
n/a 
n/a 
n/a 
n/a 
-4.759 
n/a 
n/a 
n/a 
n/a 
-4.759 
n/a 
n/a 
n/a 
n/a 
-2.9195 -3.522 -1.7565 -8.48 -3.8275 -2.8845 
-5.6035 -5.785 -11.1857 -12.4871 -7.606 
-8.341001 -16.0482 -15.1928 -16.2656 
-19.0054 -20.0553 -18.9713 
-23.0125 -23.8338 
-2.8845 -8.307501 -3.8275 -2.9195 -3.277 
-11.9264 -12.669 -6.74 -5.957 
-16.2879 -15.5815 -9.276 
-19.2004 -18.1175 
-21.7364 
-2.8845 0 -6.844 -3.8275 -2.9195 -4.955 
-2.8845 -6.844 -8.3745 -6.74 -8.222501 
-10.4629 -8.3745 -11.8692 -12.8128 
-11.9934 -11.8692 -17.942 
-15.4881 -17.942 
-2.8845 -2.9195 -3.324 -2.264 -6.844 -3.8275 
-5.903 -6.4125 -5.469501 -9.4455 -8.3745 
-10.389 -7.929 -13.22 -10.4355 
-11.9055 -16.1821 -14.21 
-20.1586 -17.1721 
