-4.759 
n/a 
n/a 
n/a 
n/a 
-4.759 
n/a 
n/a 
n/a 
n/a 
-4.759 
n/a 
n/a 
n/a 
n/a 
-4.759 
n/a 
n/a 
n/a 
n/a 
-1.4985 -3.17 -3.699 -5.494 -1.7565 -2.3615 -4.58 -2.4945 
-3.7115 -4.663 -8.211 -7.027501 -3.523 -6.382501 -7.2665 
-4.8395 -8.97 -9.5015 -8.8435 -7.1425 -8.252501 
-9.061001 -10.1305 -11.3463 -12.6722 -8.666 
-10.181 -11.9629 -15.175 -14.1957 
-2.3615 -2.95 -4.4525 -1.7695 -4.019 
-4.4645 -8.2605 -5.610001 -6.760001 
-10.4345 -10.2285 -11.1525 
-12.3513 -15.771 
-17.8938 
-2.3615 -2.95 -4.304 -6.4115 -3.6615 -2.264 -3.602 
-4.4645 -7.219501 -11.7653 -11.08 -5.837501 -6.213 
-8.2805 -14.9548 -16.4338 -13.256 -9.958501 
-16.1426 -19.6233 -18.6098 -17.377 
-20.8111 -21.7993 -22.7308 
-1.934 -2.3615 -4.2605 0 -3.8175 -4.287 -3.614 -4.0035 -3.5015 -2.186 -4.4155 0 
-3.539 -5.3675 -4.2605 -3.8175 -8.6555 -7.935 -7.678 -5.3325 -5.481 -6.001 -4.4155 
-5.869 -5.3675 -8.679001 -8.6555 -12.7379 -12.5924 -8.6225 -7.679 -8.9755 -6.001 
-5.869 -9.742001 -13.5692 -12.7379 -17.3953 -13.5369 -11.344 -11.4313 -8.9755 
-10.3955 -14.7004 -17.6516 -17.3953 -18.3398 -16.2584 -15.0963 -11.4313 
