-4.759 
n/a 
n/a 
n/a 
n/a 
-4.759 
n/a 
n/a 
n/a 
n/a 
-4.759 
n/a 
n/a 
n/a 
n/a 
-4.759 
n/a 
n/a 
n/a 
n/a 
-2.847 -4.412 -2.186 -1.934 -5.743001 -1.934 -1.7695 -1.4985 -3.5965 -4.25 
-6.5255 -7.3405 -4.0835 -8.242001 -8.533001 -4.0395 -2.7955 -4.746 -6.8645 
-8.8745 -9.3675 -10.7175 -9.7135 -10.8739 -5.3685 -5.9635 -8.073501 
-11.2733 -16.0493 -12.189 -12.1144 -12.2029 -7.941 -10.013 
-17.9551 -17.5208 -14.5899 -13.4434 -14.7754 -12.2903 
-1.4985 -3.5965 -2.7765 -2.489 -5.4695 -1.7695 -3.8055 -1.4985 -3.264 -4.412 -3.222 -1.4985 -3.8605 -5.2645 -5.743001 
-4.746 -6.2995 -3.495 -6.495 -5.988 -4.5215 -4.870501 -4.0935 -7.4335 -8.769001 -3.7835 -5.2105 -9.455501 -10.2755 
-6.984 -7.067 -7.655001 -6.7875 -8.3675 -5.489 -7.1995 -8.645 -10.142 -9.248501 -6.899 -9.820001 -10.444 
-7.724501 -9.8605 -7.7735 -9.2405 -9.109 -8.4705 -10.389 -10.233 -10.367 -10.4355 -10.0885 -10.4455 
-10.107 -9.906501 -10.2525 -9.938001 -10.46 -10.45 -10.431 -10.4045 -10.46 -10.457 -10.448 
-3.264 -4.412 -1.756 -5.743001 -2.4945 -4.49 -1.934 -3.5965 
-7.4335 -6.813 -8.711 -9.818001 -5.492001 -4.943 -5.215 
-8.862 -14.2756 -10.718 -12.8155 -5.806 -7.9595 
-17.0096 -16.2826 -13.7155 -13.1295 -9.0775 
-19.0166 -19.2801 -14.0295 -16.401 
-2.7295 -2.7765 -3.333 -3.5965 -1.7695 -3.7085 -4.412 -2.5045 -5.743001 
-4.065 -5.847 -7.719 -5.0345 -4.19 -10.0315 -7.529 -9.326501 
-7.377 -10.0885 -9.7438 -7.781 -10.5855 -13.1485 -14.7414 
-12.0089 -12.2919 -12.4903 -14.7815 -13.7025 -20.3609 
-14.2123 -15.0384 -19.4908 -17.8985 -20.9149 
