-4.759 
n/a 
n/a 
n/a 
n/a 
-4.759 
n/a 
n/a 
n/a 
n/a 
-4.759 
n/a 
n/a 
n/a 
n/a 
-4.759 
n/a 
n/a 
n/a 
n/a 
-2.3615 -2.7415 -4.09 -5.0095 -1.4985 -4.088 -2.229 -3.4075 -3.4005 -4.397 -1.756 -1.4985 -4.692 -2.264 -1.4985 -3.6085 -4.4615 -3.1385 0 
-4.455 -5.289001 -8.7895 -6.0885 -6.322001 -5.715 -5.1175 -6.064 -7.652 -5.834001 -3.0405 -6.064 -7.139501 -2.9195 -5.023 -5.7305 -6.835 -3.1385 
-7.7425 -9.676001 -9.604 -10.7175 -8.3475 -7.8605 -7.915 -9.364 -9.1805 -6.6785 -7.693 -9.8985 -7.732501 -6.5185 -6.551001 -7.381001 -6.835 
-12.2717 -10.406 -14.2818 -12.743 -10.341 -11.2482 -11.7874 -10.761 -9.899 -11.6686 -11.6363 -10.7801 -11.6209 -8.587501 -8.363501 -7.381001 
-13.0017 -15.0838 -16.3073 -14.7365 -13.7287 -15.1206 -13.1844 -11.4795 -14.9791 -15.6119 -12.5179 -14.6685 -13.6899 -10.378 -8.363501 
-2.4265 -2.7415 -3.8755 -4.4165 -1.4985 -4.088 -3.4075 -3.4005 -3.2 -1.756 -2.9645 -1.7565 -3.17 -1.7565 -1.4985 -3.6085 -4.4615 -3.959 0 
-3.681 -5.065001 -8.706501 -5.3005 -6.322001 -7.1545 -6.064 -5.781 -4.5345 -4.5175 -3.7825 -5.268 -4.179 -2.4195 -5.023 -5.7305 -6.4895 -3.959 
-6.262 -9.599501 -9.5305 -10.0545 -8.117001 -10.5325 -7.778501 -6.9115 -7.4185 -5.159 -7.613 -6.02 -4.497 -5.731 -6.551001 -6.8395 -6.4895 
-10.7015 -10.4695 -14.2845 -12.0153 -12.5388 -12.247 -8.908501 -10.459 -8.4735 -9.1055 -8.218 -6.2395 -7.9435 -7.2455 -8.034 -6.8395 
-11.5715 -15.2235 -16.2453 -16.4371 -14.2533 -13.377 -12.5288 -11.514 -12.4866 -9.703501 -8.4005 -9.307 -8.3555 -8.863 -8.034 
-2.4265 -2.7415 -4.8935 -4.09 -1.7695 -2.489 -3.2955 -2.3345 -4.065 -4.1135 -3.2 -1.756 -3.3715 -2.8965 -3.6085 -4.4615 -3.188 -3.959 0 
-3.681 -6.49 -11.117 -5.4055 -3.1405 -3.979 -4.534 -6.219 -7.334 -6.13 -4.5345 -4.6545 -4.827001 -6.4805 -5.7305 -6.6585 -6.2425 -3.959 
-7.475 -12.9851 -12.4325 -7.0525 -4.7755 -5.2935 -8.059 -9.781 -8.692 -7.2125 -7.537 -5.28 -8.542001 -7.629 -6.872001 -10.2435 -6.2425 
-13.8453 -14.3006 -14.0795 -7.8595 -5.895 -9.3265 -11.889 -11.0748 -9.7065 -9.876 -8.2845 -9.069501 -9.3655 -9.5291 -10.31 -10.2435 
-15.1608 -15.9476 -14.8865 -8.8065 -9.7895 -13.2965 -13.1828 -12.0893 -12.4176 -10.6775 -12.3202 -9.837501 -11.3084 -12.9671 -10.31 
-2.4265 -2.186 -3.737 -2.356 -4.4905 -1.7565 -4.088 -3.8475 -3.5825 -1.756 -2.645 -3.6085 -4.4615 -3.59 0 
-3.292 -5.3315 -6.413 -7.1415 -5.283501 -5.0835 -7.588 -7.569 -5.627501 -3.898 -6.26 -5.7305 -7.025001 -3.59 
-6.8255 -8.2495 -11.7459 -8.312 -10.3675 -8.856001 -12.2111 -10.1945 -8.362 -7.9505 -8.686001 -7.333001 -7.025001 
-9.552 -13.9234 -12.9164 -13.2258 -14.14 -13.6645 -14.8366 -13.1018 -12.6663 -9.820001 -10.4473 -7.333001 
-15.4383 -15.0939 -17.8302 -16.9983 -18.9485 -16.29 -17.7439 -17.4061 -14.5358 -11.5813 -10.4473 
