-4.759 
n/a 
n/a 
n/a 
n/a 
-4.759 
n/a 
n/a 
n/a 
n/a 
-4.759 
n/a 
n/a 
n/a 
n/a 
-4.759 
n/a 
n/a 
n/a 
n/a 
-3.0835 -4.0375 0 -3.9785 -4.0375 
-6.752 -4.0375 -3.9785 -8.2635 
-6.752 -7.524501 -8.2635 
-10.9316 -10.3545 
-13.7616 
-3.0835 -3.8475 0 -3.9785 -3.8475 
-7.7615 -3.8475 -3.9785 -9.729501 
-7.7615 -7.952001 -9.729501 
-12.3354 -14.5298 
-18.9132 
-3.0835 -3.8405 0 -3.9785 -3.8405 
-6.1255 -3.8405 -3.9785 -7.447001 
-6.1255 -7.791 -7.447001 
-10.4004 -9.728001 
-12.3374 
-3.9355 -4.395 -3.8405 0 -5.066 -3.8405 
-6.95 -7.3555 -3.8405 -5.066 -6.9255 
-8.8465 -7.3555 -7.759501 -6.9255 
-8.8465 -11.4881 -8.699 
-13.1581 -12.4276 
