-4.759 
n/a 
n/a 
n/a 
n/a 
-4.759 
n/a 
n/a 
n/a 
n/a 
-4.759 
n/a 
n/a 
n/a 
n/a 
-4.759 
n/a 
n/a 
n/a 
n/a 
-9.181001 -4.0905 -9.181001 -4.0215 0 
-13.5049 -14.0229 -13.4359 -4.0215 
-23.4373 -18.2778 -13.4359 
-27.6922 -18.2778 
-27.6922 
-4.426 -1.7565 -1.4985 -3.0835 -4.7285 -4.1555 -3.147 0 
-5.47 -2.4195 -3.535 -6.042 -8.4455 -5.77 -3.147 
-5.9535 -4.6785 -6.335501 -9.523001 -9.541501 -5.77 
-8.021 -7.476501 -10.0095 -10.7035 -9.541501 
-9.983001 -11.3061 -11.3 -10.7035 
-6.951 -4.0905 -6.951 -4.0215 
-11.9333 -11.7929 -8.3625 
-19.6357 -13.2044 
-21.0472 
n/a 
-8.266001 -4.0905 -8.26 -4.0215 
-12.8299 -13.1019 -10.322 
-21.8413 -15.1639 
-23.9033 
n/a 
