-4.759 
n/a 
n/a 
n/a 
n/a 
-4.759 
n/a 
n/a 
n/a 
n/a 
-4.759 
n/a 
n/a 
n/a 
n/a 
-4.759 
n/a 
n/a 
n/a 
n/a 
-4.1885 -1.934 -4.1865 -4.178 -2.4945 -5.5495 0 -4.8095 -4.2225 0 -1.756 -5.1075 0 -2.4945 -4.587 -2.9705 -2.4945 -5.2115 -3.8735 0 
-6.016001 -5.967 -8.227 -5.8245 -8.4905 -5.070001 -4.8095 -7.721001 -4.2225 -1.756 -5.972 -3.66 -2.4945 -7.164001 -6.855 -4.302 -8.262501 -10.3415 -3.8735 
-10.56 -10.533 -9.874001 -12.8225 -8.525001 -10.4675 -7.721001 -7.721001 -5.3695 -6.5855 -6.5855 -7.4025 -7.164001 -9.295 -7.651 -9.677001 -13.3751 -10.3415 
-15.126 -12.639 -17.0286 -12.8225 -14.3369 -14.1306 -7.721001 -8.666 -10.7797 -6.5855 -8.738001 -12.4404 -9.295 -10.045 -13.5178 -14.9506 -13.3751 
-17.232 -19.7936 -17.0286 -18.6344 -18 -14.1306 -8.666 -14.4098 -10.7797 -8.738001 -13.8493 -14.5714 -10.045 -15.9118 -18.7914 -14.9506 
-4.1885 -3.8735 -2.8645 -5.5495 0 -4.2225 0 -1.756 -5.1075 0 -4.587 0 
-8.547001 -6.143 -8.77 -5.070001 -4.2225 -4.2225 -1.756 -5.972 -3.66 -4.587 -4.587 
-9.553 -12.5585 -9.364 -10.76 -4.2225 -5.3695 -6.5855 -6.5855 -9.1975 -4.587 
-16.5219 -12.8521 -15.3454 -10.76 -5.3695 -10.7797 -6.5855 -12.1256 -9.1975 
-16.5219 -18.8335 -15.3454 -12.0925 -10.7797 -10.7797 -12.1256 -12.1256 
-2.5045 -1.4985 -3.498 0 -1.934 -1.4985 -3.8735 -3.251 -4.178 -1.7565 -5.0445 0 -5.328 -1.756 -5.1075 0 -4.587 -2.9705 -3.152 -5.0075 -1.7695 -4.1885 0 
-3.1915 -4.0295 -3.498 -1.934 -2.6125 -6.3715 -6.9985 -9.157001 -5.24 -6.2535 -4.126 -5.328 -6.464 -5.972 -3.66 -4.587 -6.855 -5.007 -10.123 -5.113 -5.829 -4.1885 
-4.454 -4.0295 -5.52 -2.6125 -7.496 -10.218 -13.0559 -10.249 -11.357 -6.5235 -10.292 -6.464 -11.3635 -6.5855 -9.1975 -6.855 -8.410501 -12.334 -10.288 -9.772 -5.829 
-4.454 -6.603001 -6.4315 -7.496 -11.5613 -16.2754 -14.1479 -16.5938 -11.4278 -13.0061 -11.77 -10.356 -10.356 -12.1256 -12.2721 -8.410501 -15.8825 -12.499 -14.947 -9.772 
-7.231501 -7.357501 -11.6248 -11.5613 -17.6187 -17.3674 -20.4927 -16.5938 -17.9104 -14.4841 -15.662 -10.356 -16.7221 -15.2002 -13.8276 -15.8825 -16.0475 -17.158 -14.947 
-4.1885 -3.098 -5.5495 0 -5.328 -1.756 -5.1075 0 -4.587 -4.9395 -1.7695 -4.1865 -3.892 
-7.64 -8.191 -5.070001 -5.328 -6.464 -5.972 -3.66 -4.587 -8.914501 -5.127501 -6.303 -7.8935 
-12.5425 -8.379001 -11.5777 -6.464 -11.3635 -6.5855 -9.1975 -8.914501 -9.029 -9.539001 -10.543 
-12.6671 -15.2523 -13.0557 -10.356 -10.356 -12.1256 -13.94 -9.029 -13.7055 -13.8062 
-19.5404 -16.7303 -16.9477 -10.356 -16.7221 -16.8681 -14.0545 -13.7055 -17.9727 
