-4.759 
n/a 
n/a 
n/a 
n/a 
-4.759 
n/a 
n/a 
n/a 
n/a 
-4.759 
n/a 
n/a 
n/a 
n/a 
-4.759 
n/a 
n/a 
n/a 
n/a 
-3.4765 -2.4265 -2.8645 -3.999 -4.02 -3.1575 -2.743 -3.748 0 -2.4265 -3.644 -3.0365 -3.152 -3.0575 -3.748 -4.1855 -4.4105 0 
-6.64 -4.1435 -6.9005 -7.3925 -6.9865 -5.796 -5.231 -3.748 -2.4265 -5.2615 -5.829 -4.453 -6.8455 -5.978 -6.9375 -7.6035 -4.4105 
-8.182501 -7.966001 -9.989 -9.3345 -10.1706 -6.949501 -5.231 -6.469 -5.2615 -7.198 -7.3395 -7.3035 -8.794001 -9.493 -10.233 -7.6035 
-12.1582 -11.2127 -12.0966 -12.6102 -11.3241 -6.949501 -8.061001 -8.993501 -7.198 -8.944 -10.0745 -9.3885 -12.5324 -12.8519 -10.233 
-15.4049 -13.3203 -15.3723 -13.7637 -11.3241 -9.724501 -10.6335 -11.2458 -8.944 -11.8068 -12.1595 -13.1709 -15.8913 -12.8519 
-3.4765 -3.929 -1.4985 -4.02 -2.7415 -3.689 -3.1575 -2.743 -3.748 0 -2.4265 -4.4105 -1.4985 -4.1855 -1.7565 -2.645 -3.1575 -3.0575 -3.748 0 
-4.589 -4.8985 -4.914001 -6.0615 -5.778 -4.168 -5.796 -5.231 -3.748 -2.4265 -7.143001 -5.939 -5.781 -6.1025 -4.8395 -3.72 -6.08 -5.978 -3.748 
-5.3395 -8.143001 -6.462 -8.4045 -6.094501 -6.398 -6.949501 -5.231 -6.469 -7.143001 -8.2015 -9.496 -6.6295 -8.595 -5.076 -6.295 -7.310501 -5.978 
-8.388 -9.509501 -9.019501 -8.517 -8.5185 -8.549 -6.949501 -8.061001 -9.384501 -8.2015 -11.9955 -10.405 -8.729 -8.7305 -7.344 -7.3215 -7.310501 
-9.8135 -12.067 -9.124001 -11.2572 -10.243 -8.549 -9.724501 -11.0905 -10.9296 -11.9955 -12.9045 -12.5795 -8.9095 -11.3655 -8.418501 -7.3215 
-3.929 -2.4265 -3.251 -1.8085 -4.02 -1.7565 -3.098 -2.743 -3.748 -3.0365 -3.152 -3.0575 -3.748 -4.1855 -6.0195 0 
-5.029 -4.8545 -4.1695 -5.4725 -5.1665 -5.406 -5.8885 -5.231 -7.0165 -4.453 -6.8455 -5.978 -6.9375 -7.865 -6.0195 
-6.8285 -5.9385 -6.8 -5.781 -7.6255 -7.692 -8.417 -8.538 -7.884 -7.3035 -8.794001 -9.493 -11.3394 -7.865 
-8.0105 -7.7555 -6.985 -7.7625 -9.4515 -9.4145 -11.9168 -9.308001 -10.532 -9.3885 -12.5324 -13.9583 -11.3394 
-9.986501 -7.7665 -8.880501 -9.564501 -10.0165 -12.9825 -12.6868 -12.0692 -12.617 -13.1709 -16.9977 -13.9583 
-3.689 -3.1575 -2.743 -3.748 -4.02 -3.59 -4.398 0 -1.934 -2.3335 -3.59 -3.0465 -2.645 -3.1575 -3.0575 -3.748 -4.1855 
-4.168 -5.796 -5.231 -6.9875 -7.9645 -7.297501 -4.398 -1.934 -4.359 -5.777 -6.899 -4.8855 -3.72 -6.08 -5.978 -6.9375 
-6.398 -6.949501 -8.878 -9.998 -12.187 -7.297501 -8.0825 -4.359 -6.2205 -9.406 -9.047001 -6.400001 -6.295 -7.310501 -9.493 
-8.549 -10.674 -11.9583 -14.2205 -12.187 -11.2536 -10.5235 -6.2205 -9.786501 -11.7644 -10.6745 -9.359501 -7.3215 -10.647 
-12.5049 -13.7543 -16.1808 -14.2205 -16.1431 -13.6946 -12.385 -9.786501 -12.2939 -13.3919 -13.634 -9.693501 -10.6875 
