-4.759 
n/a 
n/a 
n/a 
n/a 
-4.759 
n/a 
n/a 
n/a 
n/a 
-4.759 
n/a 
n/a 
n/a 
n/a 
-4.759 
n/a 
n/a 
n/a 
n/a 
-3.519 -1.4985 -3.634 -3.326 -2.7295 -2.7765 -3.6785 -1.4985 -4.975 -2.4945 -2.645 -2.0935 -1.4985 -7.709001 -1.7565 -3.995 -2.3345 -3.7075 
-5.0755 -4.943501 -5.944 -6.1305 -4.065 -5.237 -4.9825 -5.601501 -6.2805 -4.6775 -5.0845 -2.9725 -9.6285 -9.514001 -5.423 -6.273 -6.118 
-9.148001 -7.598001 -8.599501 -7.6845 -6.2145 -6.852 -9.234501 -6.485 -8.844001 -7.5745 -6.0775 -11.3793 -10.08 -13.2949 -7.7915 -9.975 
-11.8025 -10.114 -10.396 -9.6855 -7.708 -11.367 -9.522 -9.2825 -11.9 -8.4065 -14.8191 -11.8308 -13.8609 -15.6634 -10.5745 
-14.3185 -11.9663 -12.397 -11.5124 -12.2372 -11.6545 -12.2979 -12.3515 -12.732 -17.3023 -15.2706 -15.6117 -16.2294 -18.4464 
-2.3345 -3.634 -5.9155 -3.0365 -2.742 -2.489 -1.8085 -4.2055 -2.3335 -3.7075 -2.742 -5.426 -1.4985 -3.995 
-6.267 -7.755 -8.836 -4.668 -3.301 -3.799 -4.713 -5.7195 -6.679 -6.513 -7.37 -6.5915 -4.712 
-9.675501 -10.688 -10.4855 -4.759501 -4.7705 -6.925 -6.3945 -9.915501 -8.2135 -9.856501 -8.341001 -8.785501 
-12.6561 -12.3375 -10.6245 -5.317501 -7.403501 -7.9525 -10.3405 -11.648 -11.7036 -10.3575 -9.470501 
-14.3056 -12.4765 -11.1825 -7.864001 -9.3275 -12.0719 -12.4784 -15.1381 -12.2046 -10.4735 
-3.402 -2.264 -3.634 -3.326 -3.4515 0 -3.0365 -2.4945 -1.8085 -3.845 -1.7565 -4.975 -2.0935 -1.4985 -3.7075 -1.7695 -6.7755 -1.4985 -3.995 -4.179 0 
-3.793 -6.014 -5.944 -6.0125 -3.4515 -3.0365 -3.688 -4.16 -3.9645 -4.13 -6.157001 -5.789001 -2.9725 -4.6235 -6.202001 -7.2005 -7.301 -4.712 -7.1765 -4.179 
-6.8335 -7.64 -7.8435 -6.0125 -6.396501 -3.688 -4.897501 -5.4685 -4.156 -7.5385 -6.981 -6.789001 -6.442501 -6.537001 -12.3034 -7.5755 -9.035501 -7.303 -7.1765 
-8.1695 -9.321501 -7.8435 -8.9145 -6.7535 -4.897501 -5.5345 -5.539 -7.5575 -8.285001 -7.929 -10.535 -7.538001 -13.0672 -12.6784 -9.465501 -11.7659 -7.303 
-9.866501 -9.321501 -10.3955 -9.346001 -8.073501 -5.5345 -5.562 -8.249001 -8.3 -9.224001 -11.7604 -11.6305 -14.8002 -13.4422 -14.5684 -12.3019 -11.7659 
-2.688 -3.326 -3.4515 -3.644 -2.3335 -3.7075 -2.742 -3.9785 -1.4985 -3.995 -3.0365 -2.186 -2.645 -4.9285 
-5.546 -6.0125 -7.52 -4.989501 -6.679 -6.513 -5.567 -5.076 -4.712 -6.861 -3.66 -4.528 -6.551001 
-7.893001 -10.2135 -9.448 -8.968 -8.2135 -10.0475 -6.174 -7.5985 -7.297501 -7.379 -5.64 -9.6005 
-12.4616 -12.1415 -13.4937 -10.27 -11.8946 -10.6545 -8.447001 -10.228 -7.860001 -9.5795 -9.758 
-14.3896 -16.1872 -14.7957 -13.9511 -12.5016 -12.9275 -11.4419 -10.8629 -10.0245 -13.6065 
