-4.759 
n/a 
n/a 
n/a 
n/a 
-4.759 
n/a 
n/a 
n/a 
n/a 
-4.759 
n/a 
n/a 
n/a 
n/a 
-4.759 
n/a 
n/a 
n/a 
n/a 
-8.004001 -2.674 -3.8535 -3.3195 -2.0935 -3.2295 -3.7825 -4.6945 -4.1455 0 
-11.345 -4.9155 -7.527 -5.3015 -4.9135 -6.0445 -6.512 -7.9785 -4.1455 
-13.5865 -9.192 -9.1095 -7.5 -7.019 -7.821 -9.899 -7.9785 
-17.863 -9.998501 -11.3588 -9.560501 -9.013 -10.2235 -9.899 
-18.6695 -12.2478 -13.4193 -12.1599 -12.1003 -10.2235 
-8.004001 -2.8645 -4.96 -3.3195 -1.7695 -4.8835 -4.1455 -4.732 -3.1015 0 
-10.2925 -7.1625 -7.348 -5.492001 -6.781001 -8.444 -8.692501 -6.285501 -3.1015 
-14.5905 -8.188001 -8.8875 -11.1873 -9.243501 -13.3552 -9.876 -6.285501 
-15.616 -9.903501 -14.7526 -13.6498 -14.3649 -14.5387 -9.876 
-17.3315 -15.9 -17.2151 -18.7712 -15.5484 -14.5387 
-4.732 -3.4775 -7.4445 -2.8645 -4.96 -3.3195 -2.0935 -2.645 -3.1575 -4.8835 -4.1455 0 
-7.055 -11.888 -9.705001 -7.1625 -7.348 -5.3015 -3.883 -3.72 -6.986001 -8.444 -4.1455 
-15.7159 -14.1485 -10.4215 -8.188001 -7.707 -7.436501 -4.941 -7.101501 -9.826 -8.444 
-17.9764 -14.865 -11.447 -8.278501 -9.547501 -7.9585 -8.5655 -9.852001 -9.826 
-18.6929 -15.8905 -11.5375 -9.903001 -9.5585 -12.0066 -11.734 -9.852001 
-8.004001 0 -2.645 -3.1575 -3.7825 -4.6945 -4.0905 -2.9805 -4.96 0 
-8.004001 -2.645 -3.72 -5.7805 -6.512 -9.3255 -6.635 -6.9405 -4.96 
-10.9315 -3.72 -5.98 -7.584001 -11.6552 -12.0912 -9.013 -6.9405 
-12.0065 -5.98 -7.6405 -13.0298 -14.4209 -14.4692 -9.013 
-14.2665 -7.6405 -13.1175 -15.7955 -16.7989 -14.4692 
