-4.759 
n/a 
n/a 
n/a 
n/a 
-4.759 
n/a 
n/a 
n/a 
n/a 
-4.759 
n/a 
n/a 
n/a 
n/a 
-4.759 
n/a 
n/a 
n/a 
n/a 
-3.2615 -4.7805 -2.4265 -3.97 -3.6825 -2.5045 -4.5885 
-9.621 -7.528001 -7.536 -7.646501 -6.13 -6.857 
-12.3685 -13.0401 -11.7251 -10.9904 -10.4945 
-17.8806 -17.2292 -15.069 -15.3549 
-22.0697 -20.5731 -19.4335 
-3.2615 -2.4265 -2.186 -3.4625 -1.7695 -2.5045 -3.9655 -3.6825 -3.325 -1.4985 -4.132 -1.7565 -4.5885 0 
-5.2985 -3.292 -6.367001 -5.0775 -4.8865 -6.358 -5.6945 -6.614 -3.898 -5.351501 -5.653 -6.013 -4.5885 
-6.179 -6.8965 -8.2335 -8.955501 -8.8725 -8.6645 -8.3975 -7.139 -6.183 -5.876 -8.764501 -6.013 
-10.5125 -9.7735 -12.2955 -12.9745 -11.291 -11.4875 -8.976 -8.368501 -6.194 -8.842501 -8.764501 
-13.3895 -13.8355 -16.3145 -15.393 -14.114 -12.066 -10.0575 -8.373 -8.881001 -8.842501 
-4.426 -1.7565 -1.4985 -3.6115 -4.7285 -4.1555 -3.147 -3.882 -2.4265 -5.333 -3.9655 -3.6825 -4.471 
-5.47 -2.4195 -4.081 -6.5495 -8.4455 -5.77 -7.137 -5.945001 -6.786 -10.2435 -5.6945 -9.2935 
-5.9535 -5.180501 -6.670501 -9.978001 -9.541501 -10.427 -9.269501 -9.805 -12.1433 -11.9725 -10.411 
-8.462501 -7.797 -10.054 -11.0524 -14.1985 -12.5595 -13.3169 -15.7707 -13.8723 -16.689 
-10.2375 -11.2985 -11.1648 -15.7094 -16.331 -16.6069 -19.2826 -17.4997 -18.5888 
-3.2615 -3.4795 -3.1435 -3.97 0 
-6.988 -7.2 -7.3075 -3.97 
-11.6759 -11.7884 -7.3075 
-16.2643 -11.7884 
-16.2643 
