-4.759 
n/a 
n/a 
n/a 
n/a 
-4.759 
n/a 
n/a 
n/a 
n/a 
-4.759 
n/a 
n/a 
n/a 
n/a 
-4.759 
n/a 
n/a 
n/a 
n/a 
-1.4985 -3.2495 -3.515 -3.2955 -2.985 -3.5855 -1.756 -3.433 -3.433 -1.7565 -2.847 -2.871 -2.7765 -4.384 -2.8965 0 -2.925 -3.465 -1.7695 -3.4625 -1.4985 -4.2605 0 
-4.1915 -7.153 -6.9255 -6.22 -6.897 -4.5585 -4.5825 -6.9705 -4.1845 -5.161 -4.4675 -4.952 -6.1235 -7.331501 -2.8965 -2.925 -4.871 -3.665 -4.3 -4.474 -4.8355 -4.2605 
-7.981 -11.0973 -8.824 -9.975 -7.8805 -5.0205 -8.348001 -7.658 -7.3715 -6.982 -5.677 -7.639 -9.1365 -7.331501 -6.2575 -4.871 -5.1955 -5.811 -4.9495 -7.2095 -4.8355 
-12.2247 -12.9958 -12.6914 -10.722 -8.595 -8.826 -8.981 -11.147 -9.4385 -9.015501 -7.662001 -10.9158 -9.1365 -11.4195 -8.5455 -5.1955 -7.3915 -6.284 -7.491 -7.2095 
-14.1232 -16.8632 -13.4384 -11.4365 -12.6393 -9.404501 -12.4572 -13.214 -11.863 -11.1415 -10.9598 -10.9158 -13.2193 -13.7075 -8.7495 -7.3915 -7.935 -9.196 -7.491 
-3.4625 -1.4985 -2.847 -2.871 -3.9955 -2.3615 -4.2605 0 -3.5155 -2.4945 -3.2955 -3.5855 -1.756 -4.922 -4.6505 0 
-4.474 -5.125 -4.4675 -7.0105 -6.446 -5.3675 -4.2605 -3.5155 -5.4445 -4.6305 -8.109 -4.5585 -5.7385 -6.5365 -4.6505 
-8.4385 -7.764501 -8.248501 -9.4595 -10.7025 -5.3675 -7.402 -5.4445 -7.614 -10.019 -9.173 -7.496 -7.287 -6.5365 
-11.2458 -11.6199 -9.88 -14.008 -10.7025 -8.321 -8.914001 -7.614 -13.0811 -11.083 -12.1467 -9.598501 -7.287 
-15.1012 -13.2514 -14.4615 -14.008 -13.656 -10.0035 -11.4739 -13.0811 -14.1451 -14.0567 -14.2492 -9.598501 
-1.934 -1.4985 -4.2605 -1.7565 -2.847 -2.871 -2.7765 -3.973 -1.4985 -4.0455 0 -3.5155 -1.7565 -1.4985 -3.959 -3.152 -3.9535 -1.7695 -2.9645 -2.985 -4.922 -4.277 0 
-2.6125 -4.8355 -5.676001 -5.161 -4.4675 -4.952 -5.823 -5.094501 -5.086 -4.0455 -3.5155 -4.8955 -2.4195 -5.5 -6.2895 -6.693501 -5.098001 -3.812 -5.3685 -7.276 -10.2485 -4.277 
-6.2935 -6.032001 -8.373501 -6.982 -5.677 -7.841001 -6.7135 -6.949 -5.086 -7.651501 -4.8955 -5.748 -6.073501 -7.9185 -10.1635 -8.146501 -6.847 -5.773 -9.3325 -12.9861 -10.2485 
-7.213 -9.141001 -10.4765 -9.015501 -8.3955 -8.8605 -8.626 -6.949 -8.435 -8.932501 -5.748 -8.8885 -8.677501 -11.8701 -11.7677 -10.609 -8.9265 -9.696501 -15.3056 -12.9861 
-9.945001 -11.2778 -12.51 -11.875 -9.4025 -10.688 -8.626 -9.989 -9.822001 -9.854501 -8.8885 -10.717 -12.6811 -13.4743 -14.2302 -12.6885 -12.9482 -15.7262 -15.3056 
-2.847 -2.871 -3.0465 -4.6335 -2.0935 -2.4265 -9.3245 
-4.4675 -6.158 -8.405001 -5.8975 -4.488 -12.9474 
-8.070001 -12.2453 -10.3475 -8.932 -15.0519 
-14.7885 -14.1878 -13.382 -19.8079 
-16.731 -17.2223 -24.2579 
