-4.759 
n/a 
n/a 
n/a 
n/a 
-4.759 
n/a 
n/a 
n/a 
n/a 
-4.759 
n/a 
n/a 
n/a 
n/a 
-4.759 
n/a 
n/a 
n/a 
n/a 
-1.4985 -3.3035 -2.8645 -3.4775 -4.629 -2.3335 -2.664 -4.5195 -6.092 -1.7565 -1.4985 -3.5045 -3.999 0 -4.0035 -1.934 -5.3075 0 -4.2645 -1.756 -5.3295 -1.756 -5.063 -1.756 -6.508 0 0 
-3.9705 -5.085 -6.49 -7.283 -5.5865 -4.869 -5.4985 -10.513 -7.677501 -2.4195 -4.4045 -7.696501 -3.999 -4.0035 -6.0185 -7.659 -5.3075 -4.2645 -6.163 -7.124 -7.0965 -7.104 -6.716001 -7.7365 -6.508 0 
-5.2765 -8.3715 -8.314 -7.6625 -7.8015 -7.681 -12.2102 -12.0985 -8.358001 -5.518001 -8.258 -7.696501 -8.343 -6.0185 -10.543 -7.659 -8.593 -6.163 -7.564 -8.6715 -8.855 -8.524 -7.822001 -7.7365 -6.508 
-8.647 -10.3605 -8.6745 -9.724001 -10.8051 -14.6509 -13.7957 -12.779 -11.6711 -9.104001 -8.258 -12.3727 -10.575 -10.543 -10.543 -11.5495 -9.406501 -7.564 -9.224501 -10.1185 -10.082 -9.0745 -7.822001 -7.7365 
-10.633 -10.6325 -10.8056 -12.8906 -17.775 -16.2364 -14.4762 -16.0921 -15.2571 -9.104001 -13.3326 -14.6047 -15.0995 -10.543 -15.1881 -12.363 -9.415001 -9.224501 -10.127 -10.174 -10.1175 -9.0745 -7.822001 
-1.4985 -4.1355 -3.458 -3.5455 -4.1755 -1.756 -4.1755 -7.788001 -2.186 -1.4985 -3.098 -3.38 -3.873 -4.1355 -1.7565 -1.4985 -3.4225 -4.0965 
-5.2415 -6.456501 -6.665501 -7.245 -5.751501 -5.79 -10.5135 -10.115 -3.339 -4.123 -6.67 -7.483 -7.223001 -6.009501 -2.4195 -3.9655 -4.2 
-6.606 -8.246501 -10.543 -8.9125 -8.1785 -12.5222 -13.5497 -11.3576 -4.9155 -7.2405 -10.733 -8.9665 -9.009001 -6.426001 -4.6245 -5.179 
-8.3625 -12.858 -10.581 -10.7575 -15.1371 -15.5584 -14.7923 -12.9341 -7.5775 -11.7631 -12.2165 -9.677501 -9.361 -7.999501 -6.037 
-12.9464 -12.896 -12.426 -17.7161 -18.1733 -16.801 -16.3688 -15.5961 -12.4157 -13.2466 -12.9275 -9.682501 -9.578 -10.757 
-3.5455 -6.2045 -3.873 -1.7695 -4.969 -1.7565 -4.275 -2.871 -1.7565 -4.1265 -5.0005 0 
-9.9615 -10.718 -5.7395 -6.744 -6.809 -6.488501 -7.4275 -3.5385 -6.491001 -10.115 -5.0005 
-14.7716 -12.5845 -11.2942 -8.6075 -12.4046 -9.755001 -8.4175 -7.5395 -13.1297 -10.115 
-16.6381 -18.1392 -13.1577 -14.4735 -15.6711 -10.406 -12.6253 -15.9868 -13.1297 
-22.1928 -20.0027 -19.0237 -17.74 -16.3221 -14.5524 -21.0726 -15.9868 
-3.502 -4.1755 -1.756 -4.1755 -3.9675 -2.4945 -3.4075 -1.4985 -4.207 -1.7565 -1.4985 -3.4225 -4.0965 0 
-7.7285 -5.751501 -5.79 -6.526 -7.0985 -6.680501 -6.581 -4.969 -4.989 -2.4195 -3.9655 -4.2 -4.0965 
-9.786 -8.1785 -9.4095 -11.4588 -10.6215 -9.335501 -10.5037 -5.283 -5.294 -4.6245 -5.179 -4.2 
-12.213 -12.0244 -13.8075 -14.9818 -13.2765 -13.2794 -10.8177 -5.541501 -9.0495 -6.037 -5.179 
-16.0589 -16.4224 -17.3305 -17.6368 -17.2204 -13.5934 -11.0762 -9.463501 -10.886 -6.037 
