-4.759 
n/a 
n/a 
n/a 
n/a 
-4.759 
n/a 
n/a 
n/a 
n/a 
-4.759 
n/a 
n/a 
n/a 
n/a 
-4.759 
n/a 
n/a 
n/a 
n/a 
-5.062 -3.3195 -2.7415 -5.2085 -2.3345 -3.818 -4.454 -1.7565 -4.405 -4.017 -4.819 -4.091 -1.934 -1.4985 -5.633 -3.8405 0 -1.4985 -5.3655 0 -1.756 -1.4985 -5.457 0 -2.356 -1.4985 -3.994 -1.7565 -1.4985 -2.688 -3.519 0 -1.4985 -4.9435 -4.331 -5.986 -1.756 -5.3695 -5.8905 -5.465 -2.4945 -3.9225 -1.4985 -3.7745 -4.378 -1.7565 -1.4985 -4.5475 -3.8405 0 
-6.3365 -6.0165 -6.6685 -5.537 -6.509 -7.55 -5.044 -5.849501 -7.286 -8.7145 -7.6565 -4.709 -2.6125 -6.5775 -7.356 -3.8405 -1.4985 -7.104 -5.3655 -1.756 -3.0405 -7.0495 -5.457 -2.356 -3.1615 -5.212501 -5.113 -2.4195 -3.702 -6.035501 -3.519 -1.4985 -6.424001 -8.932 -6.865001 -7.418 -7.0405 -6.364 -6.5505 -8.5465 -5.49 -4.463 -4.753 -7.521501 -6.01 -2.4195 -5.662001 -7.0425 -3.8405 
-8.6785 -9.217501 -6.699 -9.889501 -9.961 -7.8195 -8.707 -8.300501 -10.564 -10.564 -8.321501 -5.3195 -7.613501 -7.552001 -7.356 -5.224 -7.104 -7.104 -7.348001 -3.0405 -8.4255 -7.0495 -7.364501 -3.1615 -5.8935 -5.2585 -6.008 -4.636 -6.844501 -6.035501 -5.0755 -6.424001 -10.228 -9.853001 -8.536501 -9.544001 -8.5375 -6.5645 -9.3865 -10.322 -5.6085 -7.922 -7.8405 -8.25 -6.4855 -6.448501 -7.332001 -7.0425 
-10.564 -9.2305 -10.2585 -10.613 -10.203 -10.5855 -10.0065 -10.564 -10.582 -10.582 -8.698 -10.564 -8.455001 -7.552001 -8.578501 -9.913 -7.104 -8.580501 -8.363501 -8.4255 -8.4255 -8.84 -7.739501 -5.8935 -5.9075 -6.101 -7.4025 -7.8125 -6.844501 -7.9645 -9.6485 -10.228 -10.318 -10.638 -9.588 -9.581 -8.594 -9.392 -11.6258 -10.6195 -9.0085 -9.848001 -8.367001 -8.581 -9.699 -7.911001 -7.332001 
-10.593 -10.6485 -10.618 -10.633 -10.621 -10.628 -10.614 -10.582 -10.6 -10.6 -10.5635 -10.582 -8.455001 -8.668001 -10.476 -9.913 -8.580501 -9.2025 -9.617001 -8.4255 -10.3745 -9.372001 -10.5745 -5.9075 -6.722001 -7.436 -10.485 -7.8125 -8.6385 -10.5975 -10.6235 -10.318 -10.665 -10.6855 -9.619 -9.584001 -10.2485 -11.6429 -11.9233 -14.0195 -10.503 -10.284 -8.719001 -10.553 -10.3065 -7.911001 
-4.3665 -2.4945 -3.383 -4.485 -1.934 -4.127 -5 -4.2695 0 -5.022 -9.9965 0 -4.4635 -9.947001 -4.5085 -6.2375 -4.6415 -3.365 -3.699 -8.7395 -4.5235 
-5.6425 -4.732 -8.239 -5.809 -5.5125 -8.196001 -7.5105 -4.2695 -5.022 -15.9015 -9.9965 -4.4635 -15.3487 -14.5621 -11.0858 -6.4825 -9.120001 -8.9905 -13.7819 -13.5284 
-7.81 -9.618501 -10.1635 -8.846001 -10.085 -9.812501 -7.5105 -9.857 -15.9015 -15.9015 -14.6428 -15.3487 -19.9638 -21.1394 -11.3308 -11.8674 -14.8549 -19.1262 -18.5708 
-13.0409 -10.7045 -13.2005 -13.7745 -11.8355 -9.812501 -13.3482 -20.7365 -15.9015 -20.5478 -25.528 -19.9638 -26.5411 -21.3844 -16.7157 -17.6023 -24.9906 -23.9151 
-14.1269 -13.7415 -18.129 -15.525 -11.8355 -15.6502 -24.2277 -20.7365 -20.5478 -31.433 -30.1431 -26.5411 -26.7861 -26.7693 -22.4506 -27.738 -29.7795 
-1.934 -1.4985 -4.168 -1.4985 -3.4975 -3.152 -3.3235 -4.4045 -1.934 -6.9245 0 -7.7965 0 -4.4635 0 -1.756 -7.6115 -2.4945 -1.4985 -3.699 -1.756 -4.4695 -4.72 
-2.6125 -6.212501 -6.2705 -4.3125 -7.774 -5.965 -6.592 -5.953 -9.23 -6.9245 -7.7965 -7.7965 -4.4635 -4.4635 -1.756 -9.8125 -10.6136 -3.9315 -5.264 -5.4425 -6.1145 -7.738 
-7.258 -8.225 -8.768001 -9.177501 -10.826 -8.1835 -8.102 -13.9594 -9.23 -15.3672 -7.7965 -12.7674 -4.4635 -6.4955 -9.8125 -12.8672 -12.0506 -7.0825 -7.2285 -8.436501 -9.6195 
-9.822001 -10.9887 -14.277 -12.2687 -13.0445 -9.6035 -16.3976 -13.9594 -17.7339 -15.3672 -12.7674 -12.7674 -6.4955 -15.316 -12.8672 -14.3042 -15.2016 -9.397 -10.0065 -12.1501 
-12.6365 -16.4977 -17.3682 -14.4872 -14.4645 -17.9197 -16.3976 -22.4633 -17.7339 -20.3381 -12.7674 -14.7994 -15.316 -18.3707 -14.3042 -17.4552 -17.5161 -12.196 -13.7201 
-4.3665 -2.674 -3.469 -3.1125 -3.699 -1.934 -1.4985 -4.127 -4.9255 -4.1335 -1.7565 -4.168 0 -2.356 -3.8175 -4.895 -3.5005 -5.022 -6.7635 0 -4.4635 -7.013 0 -1.756 -6.2375 -4.6415 0 
-5.9145 -5.5455 -5.5285 -6.7015 -5.35 -2.6125 -5.0955 -8.174001 -7.597001 -5.8185 -5.643 -4.168 -2.356 -5.887 -9.0035 -7.723001 -8.3085 -7.284 -6.7635 -4.4635 -7.374 -7.013 -1.756 -8.0525 -6.4825 -4.6415 
-8.062 -6.1175 -8.451 -7.411 -6.0295 -5.941 -9.219501 -9.992001 -8.790501 -8.026 -5.643 -6.657001 -5.887 -10.1345 -9.984 -9.836 -9.443001 -7.284 -8.676001 -7.374 -7.374 -8.521501 -8.0525 -8.212501 -6.4825 
-8.705501 -8.728001 -9.126 -8.0585 -8.631001 -10.0125 -10.2285 -10.1595 -9.925501 -8.026 -7.9225 -9.969501 -10.1345 -10.24 -10.152 -9.931001 -9.443001 -8.6955 -9.3505 -7.374 -8.8255 -9.978001 -8.212501 -8.212501 
-10.2375 -9.5115 -9.625 -10.155 -10.2375 -10.243 -10.247 -10.175 -9.925501 -9.755 -10.1505 -10.2475 -10.24 -10.2535 -10.159 -9.931001 -9.9445 -9.3765 -9.3505 -8.8255 -9.984 -9.982501 -8.212501 
