-4.759 
n/a 
n/a 
n/a 
n/a 
-4.759 
n/a 
n/a 
n/a 
n/a 
-4.759 
n/a 
n/a 
n/a 
n/a 
-4.759 
n/a 
n/a 
n/a 
n/a 
-13.93922 -4.7615 
-18.19322 
n/a 
n/a 
n/a 
-6.5875 0 -5.1475 -1.7695 -4.7615 0 
-6.5875 -5.1475 -6.9445 -6.0235 -4.7615 
-12.6646 -6.9445 -11.9483 -6.0235 
-14.4616 -11.9483 -11.9483 
-19.4654 -11.9483 
-11.371 -4.4525 -5.1475 -3.8255 -3.5015 
-16.5157 -9.1225 -9.668 -9.1335 
-21.1857 -13.8668 -15.0966 
-25.93 -19.2954 
-31.3586 
-9.558001 -4.174 -5.3745 -3.034 -4.663 
-12.5495 -9.481501 -8.318501 -7.929001 
-17.632 -12.6069 -13.3691 
-20.7574 -17.6575 
-25.808 
