-4.759 
n/a 
n/a 
n/a 
n/a 
-4.759 
n/a 
n/a 
n/a 
n/a 
-4.759 
n/a 
n/a 
n/a 
n/a 
-4.759 
n/a 
n/a 
n/a 
n/a 
-4.02 -3.355 -1.7565 -4.686 -2.4945 -3.074 -1.8085 -3.873 -3.355 -1.7565 -4.147 -3.892 
-6.454 -3.725 -6.4855 -6.6225 -4.4205 -4.639 -5.6705 -7.491 -3.725 -6.147501 -6.537001 
-6.5065 -9.157001 -8.624001 -8.477 -5.9685 -8.239 -9.824 -8.1145 -8.682501 -9.502001 
-12.3097 -11.4541 -10.4345 -9.765501 -10.2925 -12.8075 -10.344 -13.022 -12.1442 
-14.6068 -13.2646 -11.723 -14.1345 -14.7374 -13.3275 -15.2515 -16.4837 
-3.641 -4.812 -2.186 -4.147 -1.756 -4.147 -3.4635 -4.7505 
-9.1145 -7.311501 -7.586 -5.971001 -6.054 -8.320001 -8.856501 
-12.2348 -13.0793 -9.439 -8.785001 -9.637001 -13.8598 
-18.0026 -14.9323 -12.3214 -12.7474 -15.347 
-19.8556 -17.8147 -16.2838 -18.4574 
-4.02 -4.417 -2.4945 -3.074 -1.8085 -4.147 -3.4425 
-6.8795 -6.4915 -4.4205 -4.639 -5.7245 -6.779 
-9.8365 -8.8295 -5.9685 -8.791 -8.550501 
-12.1745 -10.209 -10.7575 -11.8328 
-13.554 -14.998 -13.7993 
-3.641 -3.5015 -1.7565 -4.147 -2.871 -1.4985 -3.873 -3.9035 0 
-7.819 -4.783 -6.147501 -7.5775 -5.1 -4.7405 -8.669001 -3.9035 
-9.440001 -9.668501 -9.461 -10.209 -8.835 -9.5655 -8.669001 
-14.7437 -13.0864 -12.9855 -13.944 -13.7318 -9.5655 
-18.1616 -16.6109 -16.7205 -18.8408 -13.7318 
