-4.759 
n/a 
n/a 
n/a 
n/a 
-4.759 
n/a 
n/a 
n/a 
n/a 
-4.759 
n/a 
n/a 
n/a 
n/a 
-4.759 
n/a 
n/a 
n/a 
n/a 
-1.756 -1.4985 -3.955 -3.074 -4.3195 -3.6975 
-3.0405 -5.274 -7.318501 -6.3765 -6.5695 
-6.834 -8.134501 -10.5635 -8.418 
-10.13 -11.5333 -12.605 
-13.6638 -13.5748 
-6.2095 -1.756 -4.425 -1.4985 -3.6975 -3.46 
-7.912001 -6.0105 -5.532 -5.259501 -6.106 
-12.4915 -6.9965 -9.255501 -7.366 
-13.4775 -10.8704 -11.5974 
-17.3514 -13.2123 
-4.7495 -8.196 -1.756 -3.7555 -4.7155 0 
-14.4359 -10.115 -5.2875 -8.566 -4.7155 
-16.3549 -13.6465 -10.1225 -8.566 
-19.8864 -18.4815 -10.1225 
-24.7214 -18.4815 
-5.0185 -4.5515 -4.9095 -4.7495 -3.074 -3.7555 -5.8675 
-11.0145 -7.931001 -8.265 -8.4585 -5.929501 -9.724501 
-14.394 -11.6579 -13.3194 -10.533 -12.0495 
-18.1209 -16.7123 -15.3939 -16.653 
-23.1753 -18.7868 -21.5139 
