-4.759 
n/a 
n/a 
n/a 
n/a 
-4.759 
n/a 
n/a 
n/a 
n/a 
-4.759 
n/a 
n/a 
n/a 
n/a 
-4.759 
n/a 
n/a 
n/a 
n/a 
-5.1875 -4.2655 -2.8645 -3.3715 -3.699 -3.9825 0 
-7.408 -6.6745 -5.473001 -6.1545 -5.406 -3.9825 
-9.324501 -9.1435 -7.910501 -10.6215 -5.406 
-10.5545 -11.6636 -12.8855 -10.6215 
-13.0746 -16.6386 -12.8855 
-1.8085 -3.6885 -3.564 -5.38 -2.3335 -4.2265 -1.4985 -3.486 -5.101 -4.5655 -1.756 -2.186 -3.5825 -1.7695 -1.4985 -3.486 -3.9655 -4.0735 -1.756 -5.081 -4.2465 -4.678 
-4.3555 -7.311501 -8.088 -7.6435 -6.5565 -5.754 -3.5655 -7.4275 -7.9985 -6.0075 -3.986 -4.846 -4.1435 -2.7955 -3.5655 -7.0585 -7.0515 -5.4235 -6.927001 -7.775001 -7.5315 
-7.8955 -10.6735 -9.6555 -9.989 -7.3235 -6.7115 -7.450001 -9.805 -9.170501 -7.9535 -5.8705 -4.8605 -4.8275 -5.0515 -7.0835 -10.1725 -8.005501 -10.411 -9.371 -10.2645 
-11.7883 -12.241 -12.1018 -11.2414 -7.7455 -10.459 -9.826 -10.977 -10.7605 -9.794001 -5.8725 -5.461 -6.2095 -8.240001 -10.223 -11.1265 -13.2368 -12.855 -11.9461 
-13.3558 -14.6873 -13.3542 -11.6634 -11.811 -12.835 -10.998 -12.567 -12.601 -9.800501 -6.845 -7.1325 -9.351001 -10.586 -11.177 -16.3578 -15.6808 -15.4301 
-5.1875 -4.2655 -2.186 -3.1125 -3.8755 -2.3345 -3.6065 -4.029 0 -4.3705 -3.594 0 -3.843 0 
-7.408 -5.908 -6.9115 -5.496 -4.4955 -5.725 -5.372 -4.029 -4.3705 -7.124001 -3.594 -3.843 -3.843 
-8.744 -11.2705 -9.265 -6.4585 -7.85 -8.314501 -5.372 -8.762001 -7.124001 -7.124001 -6.5925 -3.843 
-14.2645 -13.624 -10.191 -9.186001 -10.586 -8.314501 -9.9055 -11.7649 -7.124001 -9.913 -6.5925 
-16.618 -14.55 -13.0525 -12.1434 -10.586 -12.8938 -13.0008 -11.7649 -9.913 -9.913 
-3.0415 -3.3715 -4.7005 -1.7565 -4.8605 0 -3.84 0 -4.395 -3.594 -3.43 -2.3345 -2.911 -2.0935 -3.849 -1.7695 -4.2655 
-4.5985 -6.274 -4.764 -7.291 -4.8605 -3.84 -3.84 -4.395 -8.1245 -7.3505 -4.5865 -5.928 -4.1005 -7.818501 -5.4415 -6.415501 
-7.6975 -6.3465 -9.368 -7.291 -10.4035 -3.84 -9.1225 -8.1245 -12.4128 -8.611501 -8.8585 -7.072001 -10.361 -9.447001 -10.75 
-7.7735 -11.1761 -9.368 -12.9022 -10.4035 -9.1225 -13.3744 -12.4128 -13.6738 -13.0307 -9.2805 -14.7127 -11.9895 -15.0247 
-12.7979 -11.1761 -15.1446 -12.9022 -15.686 -13.3744 -17.6627 -13.6738 -18.093 -13.4527 -18.7882 -16.3412 -17.5672 
