-4.759 
n/a 
n/a 
n/a 
n/a 
-4.759 
n/a 
n/a 
n/a 
n/a 
-4.759 
n/a 
n/a 
n/a 
n/a 
-4.759 
n/a 
n/a 
n/a 
n/a 
-3.469 -3.511 -10.105 
-6.002 -14.8692 
-17.8644 
n/a 
n/a 
-10.105 -3.511 -3.469 -3.4795 0 
-13.897 -6.416 -6.654 -3.4795 
-16.802 -9.653001 -6.654 
-20.039 -9.653001 
-20.039 
-3.469 -3.3435 -1.7695 -9.8955 0 
-5.883 -5.263 -12.6472 -9.8955 
-7.5905 -16.8285 -12.6472 
-19.3028 -16.8285 
-19.3028 
-5.7475 -5.964 -12.16972 -7.4845 
-9.654 -18.76432 -19.65422 
-22.65992 -26.24882 
-30.14442 
n/a 
