-4.759 
n/a 
n/a 
n/a 
n/a 
-4.759 
n/a 
n/a 
n/a 
n/a 
-4.759 
n/a 
n/a 
n/a 
n/a 
-4.759 
n/a 
n/a 
n/a 
n/a 
-9.036501 -1.7695 -3.4225 -4.1265 -2.229 -6.0705 -3.8495 -2.7415 -4.69 -1.934 -1.4985 -3.158 -4.4245 0 
-11.3795 -5.884 -6.775001 -4.834 -7.6485 -6.45 -6.2865 -6.2025 -6.144 -2.6125 -4.178 -6.678 -4.4245 
-16.118 -8.944 -7.1265 -11.6399 -7.7465 -8.507001 -10.7595 -7.373 -6.9025 -5.265 -7.764501 -6.678 
-19.178 -9.3835 -14.5738 -11.7379 -9.712001 -13.0604 -11.93 -7.95 -9.747001 -8.179501 -7.764501 
-19.6175 -16.9696 -14.6718 -13.7034 -14.6518 -14.2309 -12.507 -10.467 -12.7837 -8.179501 
-3.4225 -3.326 -3.6215 -2.674 -3.8495 -3.2295 -3.277 -1.934 -4.4245 -2.674 -3.1125 -4.69 
-7.8165 -6.226501 -6.753 -8.3 -7.281 -5.947001 -4.5955 -5.6155 -7.8075 -3.6315 -6.4995 
-11.8374 -9.351501 -12.7224 -11.9463 -10.4805 -7.37 -8.792001 -8.785501 -8.5825 -7.180501 
-14.9624 -15.3537 -16.3687 -15.1458 -11.9035 -11.8827 -12.0718 -9.526 -12.2651 
-20.9646 -19 -19.5682 -16.5688 -16.4162 -15.1625 -12.8123 -13.2634 
-1.934 -4.4245 -3.4225 -4.0965 -4.2775 -3.8495 -2.7415 -4.69 0 
-5.6155 -7.756 -4.2 -9.321001 -8.3725 -6.2865 -6.2025 -4.69 
-9.469001 -9.038 -9.7425 -13.7876 -11.2005 -10.7595 -6.2025 
-10.2436 -14.6767 -13.9621 -16.6156 -15.6735 -10.7595 
-15.8823 -18.8963 -16.7901 -21.0886 -15.6735 
-3.818 -4.473 -2.7415 -4.69 -1.934 -1.4985 -4.4245 -1.934 -1.4985 -4.0375 -1.7565 -3.468 0 
-7.2725 -6.462 -6.2025 -6.144 -2.6125 -6.3555 -6.4765 -2.6125 -5.0015 -5.415501 -5.649 -3.468 
-9.127501 -10.757 -7.373 -6.9025 -7.258 -9.928 -7.391 -6.3075 -5.943 -8.0045 -5.649 
-13.6761 -11.9275 -7.95 -12.0104 -10.223 -11.0247 -11.3608 -7.4355 -8.653501 -8.0045 
-14.8466 -12.5045 -13.2275 -14.9754 -11.6147 -14.9945 -12.4888 -9.465 -8.653501 
