-4.759 
n/a 
n/a 
n/a 
n/a 
-4.759 
n/a 
n/a 
n/a 
n/a 
-4.759 
n/a 
n/a 
n/a 
n/a 
-4.759 
n/a 
n/a 
n/a 
n/a 
-3.6085 -3.098 -3.4815 0 -3.527 -3.9535 0 -4.536 0 -3.93 -4.3715 -3.4005 -1.7565 -3.7515 -2.3615 -2.4945 -4.3465 -1.4985 -4.4525 -1.7565 -3.6085 0 
-6.632501 -6.662 -3.4815 -3.527 -7.425 -3.9535 -4.536 -4.536 -3.93 -6.985001 -5.5295 -5.4705 -6.2335 -5.834 -5.783 -9.018001 -5.372001 -4.731 -4.6715 -5.2885 -3.6085 
-10.4425 -6.662 -7.5705 -7.425 -7.425 -9.8655 -4.536 -7.938001 -6.985001 -7.9735 -8.0905 -10.9495 -9.1785 -8.569 -12.5819 -10.112 -10.123 -4.7575 -8.263 -5.2885 
-10.4425 -12.0436 -12.2381 -7.425 -14.1578 -9.8655 -7.938001 -9.953501 -7.9735 -10.2805 -13.8063 -13.8945 -12.0079 -15.5939 -13.6759 -15.1298 -10.25 -8.377501 -8.263 
-16.1059 -16.7112 -12.2381 -14.1578 -14.1578 -13.5683 -9.953501 -11.6022 -10.2805 -15.9963 -16.7513 -16.7239 -19.0328 -16.6879 -18.6937 -15.2568 -13.87 -8.377501 
-3.6085 -3.098 -4.1325 0 -5.12 -3.9535 0 -4.536 -1.756 -3.93 -3.4005 -3.335 -1.4985 -4.4525 -1.7565 -3.6085 -3.6885 0 
-6.632501 -8.356501 -4.1325 -5.12 -7.939501 -3.9535 -4.536 -5.1985 -5.34 -4.708 -7.311 -4.7575 -4.731 -4.6715 -5.2885 -5.021 -3.6885 
-12.1256 -8.356501 -9.3865 -7.939501 -7.939501 -9.8655 -5.1985 -8.298 -6.099 -8.835001 -8.8885 -7.3165 -4.7575 -8.263 -6.45 -5.021 
-12.1256 -13.9065 -12.881 -7.939501 -14.1587 -10.3135 -8.298 -8.452001 -10.4425 -10.2695 -11.6999 -7.35 -8.377501 -9.018001 -6.45 
-17.6756 -17.401 -12.881 -14.1587 -14.6067 -13.5268 -8.452001 -13.2151 -11.877 -13.0809 -11.7334 -11.097 -9.1575 -9.018001 
-3.6085 -3.098 -3.4815 0 -3.527 -3.9535 0 -4.536 0 -3.93 -3.4005 -5.5235 -1.4985 -3.331 -1.7565 -3.6085 
-6.632501 -6.662 -3.4815 -3.527 -7.425 -3.9535 -4.536 -4.536 -3.93 -4.708 -9.5375 -6.862 -4.514 -5.1135 -5.2885 
-10.4425 -6.662 -7.5705 -7.425 -7.425 -9.8655 -4.536 -7.938001 -4.708 -11.4756 -11.0764 -10.172 -6.029 -8.854 
-10.4425 -12.0436 -12.2381 -7.425 -14.1578 -9.8655 -7.938001 -8.027 -11.4756 -13.0145 -14.3864 -11.8602 -10.0815 
-16.1059 -16.7112 -12.2381 -14.1578 -14.1578 -13.5683 -8.027 -15.3786 -13.0145 -16.3245 -16.0746 -15.9127 
-3.6085 -3.098 -4.1325 0 -1.4985 -4.321 -4.25 -1.4985 -4.029 0 -4.536 -1.756 -3.93 -4.3715 -3.4005 -2.4945 -4.25 -1.4985 -4.4525 -1.7565 -3.6085 -3.6885 0 
-6.632501 -8.356501 -4.1325 -1.4985 -5.620501 -7.9355 -5.251 -5.353001 -4.029 -4.536 -5.1985 -5.34 -6.985001 -5.5295 -6.221 -6.028 -5.251 -4.731 -4.6715 -5.2885 -5.021 -3.6885 
-12.1256 -8.356501 -5.886 -5.620501 -9.3125 -8.561501 -8.743 -5.353001 -9.0105 -5.1985 -8.298 -8.0595 -7.9735 -7.9035 -9.956 -7.184 -7.8215 -4.7575 -8.263 -6.45 -5.021 
-12.1256 -10.287 -10.485 -9.3125 -9.902 -12.3053 -8.743 -9.692501 -9.411 -8.298 -10.1635 -8.534 -10.19 -11.7827 -11.2204 -10.038 -7.854 -8.377501 -9.018001 -6.45 
-14.0561 -14.886 -14.177 -9.902 -13.6824 -12.3053 -13.3103 -10.043 -13.2569 -10.1635 -11.5626 -10.7175 -14.0692 -13.0471 -14.0744 -10.07 -11.5694 -9.1575 -9.018001 
