-4.759 
n/a 
n/a 
n/a 
n/a 
-4.759 
n/a 
n/a 
n/a 
n/a 
-4.759 
n/a 
n/a 
n/a 
n/a 
-4.759 
n/a 
n/a 
n/a 
n/a 
-4.341 -1.7565 -6.951 0 -1.8085 -3.452 0 
-5.596 -8.383 -6.951 -1.8085 -4.787 -3.452 
-13.2143 -8.383 -9.337 -4.787 -4.787 
-13.2143 -11.1276 -12.5345 -4.787 
-15.9589 -14.3251 -12.5345 
-6.951 -4.341 0 -3.452 0 
-10.4765 -4.341 -3.452 -3.452 
-10.4765 -7.7235 -3.452 
-13.859 -7.7235 
-13.859 
-5.297 -1.7565 -6.951 0 -3.452 0 
-5.9075 -8.383 -6.951 -3.452 -3.452 
-13.4592 -8.383 -11.136 -3.452 
-13.4592 -12.9266 -11.136 
-18.0028 -12.9266 
-1.4985 -4.341 -1.7565 -6.951 0 -3.452 0 
-5.0245 -5.596 -8.383 -6.951 -3.452 -3.452 
-5.85 -13.2143 -8.383 -11.136 -3.452 
-13.5841 -13.2143 -12.9266 -11.136 
-13.5841 -17.7579 -12.9266 
