-4.759 
n/a 
n/a 
n/a 
n/a 
-4.759 
n/a 
n/a 
n/a 
n/a 
-4.759 
n/a 
n/a 
n/a 
n/a 
-4.759 
n/a 
n/a 
n/a 
n/a 
-3.873 -6.1895 -1.7565 -4.146 -3.4715 -1.7695 -4.2615 -1.4985 -4.1115 -1.756 -3.681 -1.7565 -4.168 0 
-9.6775 -6.681 -6.4715 -7.1745 -5.353 -4.7355 -5.128 -4.843 -5.537 -5.4975 -5.939 -6.141 -4.168 
-10.72 -11.946 -9.745501 -8.6695 -7.8275 -5.475 -7.81 -6.016 -9.785001 -7.185 -11.3261 -6.141 
-15.985 -15.22 -11.4195 -11.8758 -8.137 -8.363501 -9.024501 -9.991501 -11.5041 -13.2679 -11.3261 
-19.259 -16.894 -14.6258 -12.1853 -10.126 -9.488001 -13.0596 -11.715 -17.587 -13.2679 
-1.4985 -3.873 -4.399 -5.5315 -1.934 -1.4985 -3.793 -9.195001 -1.756 -3.908 -3.4715 -1.756 -4.1115 -3.793 -3.952 -1.7695 -1.4985 -4.1115 -2.0935 -4.2205 -3.681 0 
-4.7405 -8.805 -10.8845 -7.34 -2.6125 -4.582 -13.9806 -11.1504 -5.51 -6.3915 -4.7575 -5.7375 -7.513 -8.449 -4.9895 -2.7955 -4.843 -6.535 -5.8435 -7.864 -3.681 
-10.243 -15.3619 -12.693 -8.004001 -5.827001 -15.2018 -15.936 -14.9044 -7.8345 -7.439 -8.026 -9.488501 -12.6676 -9.571 -5.691 -6.006001 -7.0155 -10.76 -10.001 -7.864 
-17.0039 -17.1704 -13.357 -11.3713 -16.7304 -17.1572 -19.69 -17.2289 -9.321501 -11.0829 -12.3896 -14.5773 -13.7896 -10.2715 -9.315001 -7.936 -11.5055 -14.9175 -10.001 
-18.8124 -17.8344 -16.7243 -22.2747 -18.6858 -20.9112 -22.0145 -18.7159 -13.0026 -15.4465 -17.4784 -15.6993 -14.4901 -14.0577 -11.5092 -12.5826 -15.663 -14.9175 
-4.426 -1.7565 -1.4985 -3.6115 -4.7285 -4.1555 -3.147 -3.873 -1.7565 -1.4985 -4.4925 -1.756 -4.554 -3.4715 -1.756 -3.047 -3.873 -1.934 -1.4985 -3.047 -3.681 -1.934 -4.375 -3.8245 -3.681 0 
-5.47 -2.4195 -4.081 -6.5495 -8.4455 -5.77 -7.960501 -5.197001 -2.4195 -5.303 -5.555501 -6.185 -6.396501 -4.7575 -4.7285 -7.481 -5.468 -2.6125 -5.96 -6.113 -5.219 -6.8325 -9.724501 -6.1385 -3.681 
-5.9535 -5.180501 -6.670501 -9.978001 -9.541501 -10.575 -8.9755 -5.803 -6.1245 -6.3375 -9.418501 -7.904 -7.577001 -7.952001 -9.4645 -9.333 -6.0585 -6.988 -9.998 -7.18 -10.8769 -12.7282 -12.1843 -6.1385 
-8.462501 -7.797 -10.054 -11.0524 -14.3465 -11.59 -9.2005 -10.5975 -7.0885 -10.2735 -10.1515 -9.119 -11.0361 -13.083 -11.5939 -9.897 -10.634 -11.4136 -11.065 -13.3509 -16.7726 -15.188 -12.1843 
-10.2375 -11.2985 -11.1648 -15.8574 -15.3615 -11.815 -14.4132 -11.5615 -11.1887 -11.0065 -11.3665 -12.7761 -16.1671 -15.2124 -12.1579 -14.7283 -15.1796 -12.4806 -17.2359 -19.2466 -19.2324 -15.188 
-1.4985 -4.6465 -1.7565 -1.4985 -3.873 -3.534 -4.8685 -2.264 -4.136 -3.4715 -1.756 -4.6625 -1.756 -4.1115 -5.408 -5.7525 -2.5195 -3.873 -1.7695 -4.1115 
-5.325 -7.5845 -2.4195 -4.7405 -8.039001 -9.146001 -4.9965 -6.4315 -5.5675 -4.7575 -6.033 -5.769001 -5.7375 -9.374001 -10.674 -8.3895 -6.3285 -5.7395 -5.9195 
-7.9655 -7.985 -5.411 -8.959001 -13.7754 -9.338501 -8.7255 -7.755 -6.607 -7.644 -7.526 -7.535 -10.513 -15.1696 -13.311 -12.5249 -7.610001 -8.133 
-8.274 -11.1261 -9.554001 -14.7962 -13.9679 -13.2549 -9.067 -8.7335 -10.3745 -9.045 -9.559 -12.8293 -16.3086 -17.8066 -17.4464 -13.8064 -8.319 
-11.4683 -15.2691 -15.412 -14.9887 -17.8843 -13.5964 -9.796 -12.6862 -11.7755 -10.9966 -15.1575 -18.6249 -18.9456 -21.942 -18.7279 -14.5154 
