-4.759 
n/a 
n/a 
n/a 
n/a 
-4.759 
n/a 
n/a 
n/a 
n/a 
-4.759 
n/a 
n/a 
n/a 
n/a 
-4.759 
n/a 
n/a 
n/a 
n/a 
-3.999 0 -3.0835 -2.9775 -3.602 
-3.999 -3.0835 -5.4115 -6.671 
-7.1735 -5.4115 -10.019 
-10.757 -10.019 
-15.3645 
-3.355 0 -3.0835 -2.9775 -4.584 
-3.355 -3.0835 -5.4115 -7.9265 
-7.285501 -5.4115 -11.3137 
-10.001 -11.3137 
-15.9032 
-7.3945 0 -3.9175 -2.9775 -4.928 
-7.3945 -3.9175 -4.8395 -7.925501 
-12.3152 -4.8395 -8.967 
-13.2372 -8.967 
-17.3647 

n/a 
n/a 
n/a 
n/a 
