-4.759 
n/a 
n/a 
n/a 
n/a 
-4.759 
n/a 
n/a 
n/a 
n/a 
-4.759 
n/a 
n/a 
n/a 
n/a 
-4.759 
n/a 
n/a 
n/a 
n/a 
-3.45 -4.1205 -2.5045 -8.628 -3.8185 -4.4605 0 -2.3615 -3.2645 -2.489 -3.402 -2.264 -1.4985 -3.4635 -3.824 
-7.0795 -5.3175 -12.0499 -12.8543 -5.2685 -4.4605 -2.3615 -5.153 -3.7195 -5.264 -3.793 -2.9195 -3.6265 -6.4245 
-8.566 -15.4221 -16.2762 -14.3043 -5.2685 -7.102 -5.153 -5.496 -6.1185 -5.385 -4.34 -5.317 -6.436501 
-18.6558 -19.6484 -17.7262 -14.3043 -8.4995 -8.628 -5.496 -8.0415 -6.186501 -5.8715 -6.145 -7.7425 
-22.8821 -21.0984 -17.7262 -17.5353 -10.2863 -9.012501 -8.0415 -8.088 -6.687 -7.24 -8.7685 
-3.5855 -3.7075 -2.186 -1.4985 -3.991 -1.7565 -4.7775 
-7.690001 -5.196 -3.339 -5.382501 -5.0075 -6.0635 
-10.001 -6.6385 -8.294001 -6.103001 -10.01 
-11.5341 -11.9571 -9.0635 -10.6595 
-16.8527 -12.7266 -13.6786 
-4.2665 -4.029 -2.7765 -2.489 -4.1205 -2.5045 -1.4985 -3.4635 -3.991 -2.5045 -4.4155 
-7.924 -6.8695 -3.495 -4.6245 -5.3175 -3.583 -3.6265 -6.21 -6.2475 -5.495501 
-11.3925 -7.773 -5.811501 -5.589 -6.431 -6.163 -6.2215 -8.485001 -8.630501 
-12.296 -9.438001 -6.442 -6.804 -9.552 -9.790501 -8.5045 -11.3122 
-13.961 -10.452 -7.4125 -9.738501 -13.3035 -12.1271 -11.3381 
-3.5855 -1.7565 -3.527 -2.186 -3.992 -3.4635 -2.3335 -3.527 -4.2695 -4.6225 -1.8085 -3.9005 0 
-5.385 -6.81 -5.4665 -7.491 -8.209 -6.2075 -6.54 -8.5375 -8.957001 -6.151 -5.224 -3.9005 
-11.3707 -9.111501 -11.8371 -12.3092 -10.2645 -9.666 -12.3125 -13.4268 -10.9409 -9.838001 -5.224 
-13.6722 -15.3375 -16.6553 -14.3647 -13.723 -15.5309 -17.2018 -15.4107 -14.6279 -9.838001 
-19.8982 -20.1557 -18.7108 -17.8232 -19.5879 -20.4202 -19.1857 -19.0977 -14.6279 
