-4.759 
n/a 
n/a 
n/a 
n/a 
-4.759 
n/a 
n/a 
n/a 
n/a 
-4.759 
n/a 
n/a 
n/a 
n/a 
-4.759 
n/a 
n/a 
n/a 
n/a 
-2.3615 -3.585 -2.186 -4.504 -2.9905 -3.3255 -4.5145 0 
-5.071 -5.056 -5.6115 -4.8085 -5.9875 -8.0755 -4.5145 
-5.9415 -7.411 -5.807 -6.81 -10.749 -8.0755 
-8.3125 -7.4445 -7.440001 -11.8823 -10.749 
-8.359 -9.290501 -12.6203 -11.8823 
-2.3615 -4.7555 -3.3255 -4.6955 
-8.266001 -8.621 -8.361 
-12.4989 -13.9421 
-17.82 
n/a 
-2.3615 -4.4095 -2.186 -4.5145 -2.186 -3.535 
-6.037 -5.848 -7.8435 -7.048 -6.8505 
-7.154 -12.4007 -11.086 -11.9379 
-14.0521 -15.6432 -15.9759 
-17.2946 -20.5331 
-2.3615 -2.186 -4.005 -3.3255 -4.5145 0 
-3.5005 -5.406 -7.111 -8.0755 -4.5145 
-7.8265 -8.333501 -12.2822 -8.0755 
-10.66 -13.7655 -12.2822 
-16.092 -13.7655 
