-4.759 
n/a 
n/a 
n/a 
n/a 
-4.759 
n/a 
n/a 
n/a 
n/a 
-4.759 
n/a 
n/a 
n/a 
n/a 
-4.759 
n/a 
n/a 
n/a 
n/a 
-4.237 -3.599 -3.518 0 -3.7075 -3.7805 -2.0935 -3.6615 0 -3.898 -4.686 0 -3.995 -4.07 -3.7075 -4.029 -3.6615 -3.741 -1.7695 -3.2345 -1.4985 -4.246 0 
-6.8785 -8.0965 -3.518 -3.7075 -6.981 -5.933001 -5.8275 -3.6615 -3.898 -8.070001 -4.686 -3.995 -8.1785 -7.9265 -9.618501 -8.593 -8.264501 -6.431 -3.713 -4.328 -5.5585 -4.246 
-12.1148 -8.0965 -7.923501 -6.981 -8.936001 -10.396 -5.8275 -8.416 -8.070001 -8.070001 -8.8745 -8.1785 -12.5674 -14.1739 -14.1667 -13.6288 -10.361 -8.263 -4.717 -9.5675 -5.5585 
-12.1148 -12.6924 -11.454 -8.936001 -13.5588 -10.396 -10.688 -13.061 -8.070001 -13.1499 -13.4394 -12.5674 -18.8148 -18.7221 -19.2025 -15.7253 -12.193 -9.205 -9.8605 -9.5675 
-16.7107 -16.2229 -13.409 -13.5588 -13.5588 -15.8739 -15.333 -13.061 -13.1499 -17.7148 -17.8283 -18.8148 -23.363 -23.7579 -21.299 -17.5573 -13.135 -14.4193 -9.8605 
-3.9225 -1.4985 -4.0435 -4.246 -2.4945 -3.6615 -1.934 -3.7075 -4.983 0 -5.084 -1.7565 -5.335 -1.756 -3.6615 -2.3335 -3.429 -3.5015 -1.934 -3.995 -5.5085 -3.6215 -1.4985 -3.7075 
-4.463 -5.16 -7.547501 -5.7925 -6.642 -4.437 -6.1845 -7.178 -4.983 -5.084 -6.3325 -7.023001 -6.4745 -5.509 -5.446 -5.676001 -4.918 -4.704 -6.139 -8.660001 -6.705 -4.094 -4.6235 
-9.0865 -8.863501 -9.290501 -9.1385 -7.0745 -8.769501 -9.528001 -7.178 -11.1136 -6.3325 -8.764 -7.952501 -10.1595 -7.3025 -7.4875 -6.352 -5.58 -8.745501 -11.6912 -8.865001 -7.2235 -6.608 
-12.89 -10.494 -12.6957 -9.160501 -11.7334 -12.5942 -9.528001 -13.7172 -12.3621 -8.764 -9.915001 -12.0233 -12.5426 -9.307 -7.5465 -6.849 -9.948 -14.6123 -11.8962 -8.931001 -8.385 
-14.5205 -13.8992 -12.7177 -14.0972 -15.5581 -12.5942 -16.1918 -14.9657 -14.7936 -9.915001 -14.268 -14.4064 -14.5471 -9.333 -7.932001 -10.749 -15.957 -14.8173 -11.9622 -8.944501 
-3.518 -1.7565 -4.237 -5.672 -4.8465 0 -3.6615 -1.934 -3.7075 -4.983 0 -4.8675 -5.8165 0 -3.6615 -4.4825 -1.934 -1.4985 -4.0325 -1.7565 -3.188 -5.5085 -4.07 -1.4985 -3.7075 
-4.302 -5.66 -7.6525 -9.712501 -4.8465 -3.6615 -4.437 -6.1845 -7.178 -4.983 -4.8675 -6.5105 -5.8165 -3.6615 -7.941 -5.5625 -2.6125 -4.933001 -5.3175 -5.13 -8.382 -8.417 -5.3895 -4.6235 
-7.949 -8.960501 -10.5135 -9.712501 -9.3675 -4.437 -8.769501 -9.528001 -7.178 -10.3285 -6.5105 -6.5105 -9.276 -7.941 -8.588 -6.0375 -6.071 -5.612 -9.210001 -11.2206 -10.7495 -8.880501 -7.5885 
-11.4973 -12.0067 -10.5135 -14.4325 -9.732 -8.769501 -12.5942 -9.528001 -12.9321 -11.9715 -6.5105 -9.3575 -14.8825 -8.588 -8.975 -10.673 -6.5755 -9.493501 -15.3952 -13.5881 -11.213 -9.3595 
-14.5435 -12.0067 -15.2335 -14.797 -14.1141 -12.5942 -12.5942 -15.4067 -14.5751 -11.9715 -9.3575 -15.429 -15.5295 -8.975 -13.5817 -11.1775 -10.66 -15.6775 -17.7627 -14.0516 -11.692 
-4.105 -5.232 -3.7965 -4.94 -3.9545 -4.9515 0 -3.6615 -1.934 -4.365 -6.0215 0 -4.8675 -5.8165 0 -1.756 -4.9085 -1.934 -3.995 -2.229 -5.1795 -3.6215 -1.4985 -3.7075 0 
-7.714 -9.357 -8.6975 -5.3035 -7.038 -4.9515 -3.6615 -4.437 -6.322 -8.160501 -6.0215 -4.8675 -6.5105 -5.8165 -1.756 -6.3425 -5.5315 -6.139 -5.324 -6.7015 -6.7435 -4.094 -4.6235 -3.7075 
-12.3052 -14.3214 -9.039001 -7.2725 -7.038 -8.851501 -4.437 -7.868501 -9.023001 -8.160501 -10.2865 -6.5105 -6.5105 -6.683 -6.3425 -7.053 -8.467 -6.812001 -7.111 -7.817 -7.0005 -6.608 -4.6235 
-17.2696 -14.6629 -11.3572 -7.2725 -10.264 -8.9805 -7.868501 -9.715 -9.023001 -10.293 -10.344 -6.5105 -7.546 -9.975 -7.053 -9.883 -8.607 -8.1435 -8.032001 -7.873001 -7.39 -6.608 
-17.6111 -16.9811 -11.3572 -10.31 -10.301 -10.5135 -9.715 -9.715 -10.3225 -10.345 -10.344 -7.546 -10.001 -10.011 -9.883 -9.999001 -9.0815 -9.272501 -8.0415 -7.964001 -7.39 
