-4.759 
n/a 
n/a 
n/a 
n/a 
-4.759 
n/a 
n/a 
n/a 
n/a 
-4.759 
n/a 
n/a 
n/a 
n/a 
-4.759 
n/a 
n/a 
n/a 
n/a 
-11.663 -2.5195 -5.1645 0 -4.96 -3.098 -2.871 -4.0905 0 
-14.9334 -7.8625 -5.1645 -4.96 -7.61 -4.554 -6.259 -4.0905 
-20.2764 -7.8625 -10.985 -7.61 -9.585501 -7.654 -6.259 
-20.2764 -14.11 -13.635 -9.585501 -12.8095 -7.654 
-26.5239 -16.76 -15.6105 -12.8095 -12.8095 
-3.7485 0 -10.3245 0 -5.1645 0 0 -7.11 -4.96 -2.5045 -2.871 -4.0905 0 
-3.7485 -10.3245 -10.3245 -5.1645 -5.1645 0 -7.11 -12.9746 -7.562 -4.905 -6.259 -4.0905 
-14.5554 -10.3245 -15.5616 -5.1645 -5.1645 -7.11 -12.9746 -15.5766 -9.5185 -9.580501 -6.259 
-14.5554 -15.5616 -15.5616 -5.1645 -13.3709 -12.9746 -15.5766 -17.5331 -14.6738 -9.580501 
-19.7925 -15.5616 -15.5616 -13.3709 -19.2355 -15.5766 -17.5331 -22.6884 -14.6738 
-14.6085 0 -4.96 -2.3345 -2.871 -4.0905 0 
-15.4155 -4.96 -5.912 -4.9425 -6.259 -4.0905 
-21.6004 -5.912 -8.2535 -8.944 -6.259 
-22.5524 -8.2535 -12.5674 -8.944 
-24.8939 -12.5674 -12.5674 
-3.7485 -7.649 0 -2.871 -4.0905 -3.3195 -5.442 0 
-11.8799 -7.649 -2.871 -6.259 -6.607 -8.451 -5.442 
-11.8799 -11.1288 -6.259 -9.408501 -12.5409 -8.451 
-15.3597 -14.5168 -9.408501 -15.4962 -12.5409 
-18.7477 -17.6663 -15.4962 -15.4962 
