-4.759 
n/a 
n/a 
n/a 
n/a 
-4.759 
n/a 
n/a 
n/a 
n/a 
-4.759 
n/a 
n/a 
n/a 
n/a 
-4.759 
n/a 
n/a 
n/a 
n/a 
-3.506 -3.106 -10.049 -4.3215 -2.4265 -2.186 -4.0655 -2.0935 -2.847 -3.8275 -2.356 -5.3995 -1.7565 -6.8685 -3.8325 
-5.440001 -13.685 -14.4165 -5.9075 -3.292 -5.266 -4.742 -5.239 -6.5325 -5.674 -6.9195 -7.923501 -8.7515 -10.31 
-17.0162 -18.0525 -16.0025 -6.8485 -6.5 -5.8925 -8.4355 -9.079 -8.3065 -8.5775 -9.840501 -15.4779 -12.4504 
-21.3837 -19.6385 -16.9435 -8.669001 -7.0985 -10.0185 -12.7737 -10.2705 -11.7112 -11.6795 -18.0385 -19.1768 
-22.9697 -20.5795 -18.764 -10.8545 -11.5165 -14.6905 -13.9652 -13.8476 -14.8132 -19.8775 -21.7374 
-3.506 -9.6625 -4.8165 -2.3335 -2.4265 -3.251 -7.729001 -7.228 -4.319 -2.356 -1.4985 -5.3995 -3.5435 -3.9615 -1.4985 -5.1015 -4.1355 0 
-12.4935 -14.487 -5.8995 -3.913 -4.8545 -10.4855 -15.481 -11.8708 -5.885 -3.1615 -6.675 -7.513 -8.282001 -4.716 -5.92 -7.2835 -4.1355 
-18.0068 -15.7586 -7.1 -5.7335 -12.5102 -18.2375 -20.1238 -13.4368 -6.7545 -8.190001 -7.731501 -12.8003 -9.284 -8.1575 -7.867001 -7.2835 
-19.0898 -16.9591 -8.298 -13.6318 -20.2622 -22.8803 -21.6898 -14.3063 -12.1218 -9.0495 -13.189 -13.8023 -12.8897 -8.7185 -7.867001 
-20.2903 -18.1571 -16.3697 -21.3838 -24.905 -24.4463 -22.5593 -19.6736 -12.9813 -14.7336 -14.191 -17.408 -13.4507 -8.7185 
-3.506 -3.106 -4.231 -4.3215 0 -1.4985 -3.8275 -4.241 -3.8675 -3.7015 -5.3995 -3.5435 -1.934 -7.418 -3.8875 0 
-5.440001 -7.7495 -7.865001 -4.3215 -1.4985 -4.726 -6.298 -6.448501 -7.607 -7.389501 -7.513 -5.3395 -9.257001 -11.7077 -3.8875 
-10.4105 -11.9025 -7.865001 -5.252 -4.726 -8.396 -9.922501 -10.5035 -11.832 -10.2485 -8.357 -13.6197 -13.5801 -11.7077 
-14.5635 -11.9025 -8.6225 -9.1715 -8.396 -12.3663 -13.9775 -14.7285 -14.691 -11.0925 -17.6144 -17.9428 -13.5801 
-14.5635 -12.66 -13.2042 -13.1629 -12.3663 -16.4213 -18.2025 -17.5875 -15.535 -20.3499 -21.9375 -17.9428 
-8.2005 0 -4.231 -3.251 -4.8165 -6.1495 -1.934 -1.4985 -5.1015 -4.418 -1.7565 -5.3995 0 
-8.2005 -4.231 -6.833501 -6.853001 -8.696501 -7.160501 -2.6125 -5.92 -9.651501 -5.347 -6.515 -5.3995 
-13.0523 -6.833501 -9.5635 -11.2282 -10.3225 -7.978001 -6.555 -11.9212 -10.9051 -10.9497 -6.515 
-15.6548 -9.5635 -14.2585 -12.8542 -11.14 -8.852501 -13.2448 -13.1748 -16.5078 -10.9497 
-18.3848 -14.2585 -15.8845 -13.6717 -12.0145 -16.0533 -14.4984 -18.7775 -16.5078 
