-4.759 
n/a 
n/a 
n/a 
n/a 
-4.759 
n/a 
n/a 
n/a 
n/a 
-4.759 
n/a 
n/a 
n/a 
n/a 
-4.759 
n/a 
n/a 
n/a 
n/a 
-3.6055 -3.158 -1.4985 -4.455 -3.4295 -1.4985 -3.545 -1.934 -3.539 0 -1.756 -3.6845 -4.3285 -2.7455 -1.4985 -4.6555 -3.291 -3.277 -4.477 -1.756 -3.845 
-5.061 -4.725 -5.262 -8.772501 -4.8885 -4.401 -5.182 -5.011 -3.539 -1.756 -5.0105 -8.285 -6.654 -3.637 -5.938001 -8.843 -6.6305 -8.7115 -5.8505 -5.244 
-6.213 -8.482 -9.234501 -9.394501 -8.1125 -6.1785 -7.699 -5.011 -5.941 -5.0105 -9.885 -9.867001 -7.35 -8.321 -10.0095 -12.5425 -10.1265 -10.2645 -9.347 
-9.4805 -12.5547 -9.434 -13.3473 -9.959001 -8.2075 -7.699 -6.363 -9.4245 -9.885 -11.561 -10.6098 -12.3328 -12.4369 -13.709 -16.0385 -11.6795 -13.761 
-13.8636 -12.7542 -13.62 -15.1938 -11.9532 -8.2075 -8.815001 -9.810501 -14.3928 -11.561 -12.3038 -15.5926 -16.4487 -16.1364 -17.205 -17.5915 -15.176 
-3.6055 -3.158 -4.455 -4.4665 -1.4985 -4.698 -1.934 -3.539 -3.6905 -1.756 -3.3855 -2.742 -3.6845 -1.8085 -4.3285 -2.264 -4.6555 -3.989 -1.756 -3.9115 0 
-5.061 -8.227 -8.936001 -5.9635 -5.740001 -6.177001 -5.011 -8.2185 -5.2905 -4.7435 -5.161 -4.8705 -4.7885 -5.627501 -6.0995 -6.994 -9.5415 -5.0115 -5.643 -3.9115 
-10.001 -13.0774 -10.1905 -10.6488 -7.238501 -8.170001 -9.774 -10.513 -7.8485 -6.37 -7.2045 -6.1245 -7.059 -6.943 -11.4799 -12.4528 -10.3695 -7.4495 -5.643 
-14.9468 -14.3319 -14.8758 -12.1473 -9.272501 -13.2604 -12.2491 -13.071 -9.388 -8.132501 -8.337001 -8.1545 -8.061001 -12.574 -16.9387 -13.2808 -12.8075 -7.4495 
-16.2013 -19.0172 -16.3743 -14.1813 -14.3881 -15.7355 -14.8071 -14.6105 -11.2477 -9.677 -9.7755 -8.828 -13.7782 -18.0328 -17.7667 -15.7188 -12.8075 
-3.6055 -3.158 0 -1.934 -1.4985 -3.6905 -1.7565 -3.539 -4.761 -2.742 -3.584 -4.698 0 0 -3.9075 -2.7455 -3.291 -3.158 -3.598 
-5.061 -3.158 -1.934 -2.6125 -4.7535 -5.23 -5.5745 -9.5345 -7.594501 -5.3095 -9.9615 -4.698 0 -3.9075 -4.644 -6.659 -4.883 -7.4175 
-5.061 -4.7985 -2.6125 -6.031 -5.5765 -6.825 -11.2668 -12.4562 -10.341 -12.5378 -9.9615 -4.698 -3.9075 -4.644 -7.995 -7.322 -9.195001 
-6.381001 -5.598001 -6.031 -6.32 -6.877501 -12.6825 -14.1885 -15.2027 -17.5693 -12.5378 -9.9615 -8.896001 -4.644 -7.995 -8.771 -12.0068 
-6.942 -8.097501 -6.32 -7.5915 -12.756 -15.6042 -16.935 -22.431 -17.5693 -12.5378 -14.1595 -9.876501 -7.995 -8.771 -13.5408 
-3.6055 -3.158 -3.539 -3.6905 -3.9725 -5.434 -1.4985 -4.698 -1.756 -4.3845 -2.7455 -3.291 -3.158 -2.229 -3.9115 0 
-5.061 -7.066501 -8.2185 -8.411501 -9.632501 -6.1565 -5.740001 -5.804501 -5.886 -5.9815 -6.659 -4.883 -4.5775 -5.771501 -3.9115 
-9.046 -11.8794 -13.4437 -14.3111 -11.4398 -10.647 -6.908 -9.953 -7.4945 -9.753 -7.322 -5.936 -8.251 -5.771501 
-14.0279 -17.1046 -19.3433 -16.1184 -15.9303 -11.815 -11.1609 -11.6121 -11.5366 -10.6235 -7.739 -8.894001 -8.251 
-19.2531 -23.0042 -21.1506 -20.6089 -17.0983 -16.0679 -12.82 -15.6542 -12.4071 -11.0405 -9.969501 -8.894001 
