-4.759 
n/a 
n/a 
n/a 
n/a 
-4.759 
n/a 
n/a 
n/a 
n/a 
-4.759 
n/a 
n/a 
n/a 
n/a 
-4.759 
n/a 
n/a 
n/a 
n/a 
-12.531 -4.9675 -1.7565 -8.8575 -12.16972 
-15.671 -6.9565 -11.117 -21.67322 
-17.8291 -16.82 -23.93272 
-27.7296 -29.63572 
-40.54532 
-3.5515 -1.7565 -2.664 -4.5735 -4.15 -4.9675 -3.8755 -1.934 -6.864 -3.8405 0 
-5.0325 -3.9595 -5.701 -8.375 -6.8675 -9.248501 -5.2035 -9.2825 -8.532001 -3.8405 
-6.672 -6.4905 -9.4475 -9.602 -11.6841 -10.2 -13.274 -11.1387 -8.532001 
-9.1945 -10.396 -10.2095 -14.4586 -12.6356 -18.4237 -15.1302 -11.1387 
-13.1628 -11.158 -15.0661 -15.4101 -20.8593 -20.2799 -15.1302 
-8.381001 -4.15 -4.9675 -1.7565 -8.8575 -6.864 -3.8405 
-12.9535 -6.8675 -6.9565 -11.117 -16.3675 -8.532001 
-16.2416 -8.455 -16.82 -18.627 -18.0355 
-17.8291 -18.3555 -24.33 -20.295 
-27.7296 -25.8655 -25.998 
-4.98 0 -3.401 0 -8.8575 -9.633 0 -3.9725 -3.098 0 -3.8405 -4.15 -4.9675 
-4.98 -3.401 -3.401 -8.8575 -19.1365 -9.633 -3.9725 -8.243501 -3.098 -3.8405 -8.103001 -6.8675 
-8.145 -3.401 -13.3571 -19.1365 -19.1365 -14.0763 -8.243501 -8.243501 -7.5235 -8.103001 -11.6389 
-8.145 -13.3571 -23.6361 -19.1365 -23.5798 -18.3473 -8.243501 -12.8 -12.0978 -11.6389 
-18.3415 -23.6361 -23.6361 -23.5798 -27.8508 -18.3473 -12.8 -17.3743 -15.6337 
