-4.759 
n/a 
n/a 
n/a 
n/a 
-4.759 
n/a 
n/a 
n/a 
n/a 
-4.759 
n/a 
n/a 
n/a 
n/a 
-4.759 
n/a 
n/a 
n/a 
n/a 
-3.7595 0 -3.8475 -5.3055 -3.254 
-3.7595 -3.8475 -10.451 -8.259501 
-7.7545 -10.451 -13.405 
-15.562 -13.405 
-18.516 
-3.7855 0 -3.254 -1.7565 -3.564 -5.3055 
-3.7855 -3.254 -4.0065 -4.801 -10.586 
-7.210501 -4.0065 -7.308001 -12.5276 
-7.616001 -7.308001 -15.7862 
-11.3053 -15.7862 
-3.999 0 -3.564 -4.7725 -3.568 
-3.999 -3.564 -9.874001 -8.178 
-7.678 -9.874001 -13.5989 
-14.8372 -13.5989 
-18.5621 
-3.534 0 -3.254 -1.7565 -3.564 -5.3055 
-3.534 -3.254 -4.0065 -4.801 -10.586 
-6.366 -4.0065 -7.308001 -12.5276 
-7.984 -7.308001 -15.7862 
-11.7319 -15.7862 
