-4.759 
n/a 
n/a 
n/a 
n/a 
-4.759 
n/a 
n/a 
n/a 
n/a 
-4.759 
n/a 
n/a 
n/a 
n/a 
-4.759 
n/a 
n/a 
n/a 
n/a 
-4.9335 -2.3615 0 -3.0365 -2.4945 -3.046 -3.4005 -4.285 -2.0935 -3.93 -3.4005 -2.0935 -1.4985 -4.225 -3.6215 -3.325 -3.926 -3.4985 -1.7565 -1.4985 -3.7745 -3.5435 0 
-7.39 -2.3615 -3.0365 -3.688 -5.162 -6.617001 -6.6115 -5.314 -5.5695 -4.708 -5.2725 -2.9725 -5.3335 -6.111001 -6.6965 -6.7535 -6.383 -4.622 -2.4195 -4.753 -5.717 -3.5435 
-7.39 -5.891 -3.688 -7.071001 -9.752001 -10.66 -8.33 -9.155001 -5.9635 -6.654 -6.27 -6.397501 -6.4145 -8.999001 -9.8125 -7.9675 -6.8945 -5.215 -5.5795 -6.116 -5.717 
-10.7495 -6.443501 -7.071001 -10.5975 -13.7982 -12.3785 -11.9416 -9.39 -8.0045 -7.582001 -10.2135 -7.833 -9.113501 -12.2836 -10.567 -8.070001 -7.224 -7.789001 -6.907001 -6.116 
-11.302 -9.7685 -10.5975 -14.6437 -15.5167 -15.9901 -12.1766 -11.6698 -8.718 -11.8657 -11.6598 -10.3605 -12.4111 -13.0381 -10.695 -8.2725 -9.069 -8.391001 -6.907001 
-4.685 -2.5195 -2.3615 -3.0365 -2.4945 -3.046 -3.93 -4.1135 -4.328 -2.0935 -4.225 -4.415 -7.425 -2.3345 -3.926 -3.9555 -1.7565 -3.7745 -3.5435 0 
-5.093 -4.4095 -5.891 -3.688 -5.162 -7.856001 -6.7735 -5.746 -6.11 -6.2245 -7.902 -13.1808 -8.27 -5.988 -7.814 -5.097 -5.2935 -5.717 -3.5435 
-6.587 -7.5235 -6.443501 -7.071001 -9.906 -11.5041 -7.3475 -7.4815 -11.0116 -9.915501 -17.0336 -14.0258 -12.1689 -9.197001 -8.151501 -8.804001 -7.0645 -5.717 
-7.987501 -7.8565 -9.7685 -11.8076 -14.0513 -12.0781 -9.214001 -12.8455 -14.7026 -19.4219 -17.8786 -17.9247 -15.3779 -9.5975 -12.0855 -9.535501 -7.0645 
-8.3465 -11.5859 -14.5051 -15.9529 -14.6253 -13.9446 -14.7602 -16.5365 -24.209 -20.2669 -21.7775 -21.1337 -15.7784 -13.4929 -12.817 -9.535501 
-4.685 -2.5195 -2.3615 -3.7745 -3.5435 -2.186 -5.3215 -3.046 -3.4005 -2.0935 -1.4985 -3.5585 -1.7565 -4.225 -3.6215 0 
-5.093 -4.4095 -6.7415 -5.717 -5.2365 -6.328 -9.442501 -6.617001 -5.2725 -2.9725 -4.8755 -5.4275 -5.1515 -6.111001 -3.6215 
-6.587 -7.937 -9.0655 -7.4455 -9.1805 -11.3538 -13.1181 -7.693 -6.27 -6.161 -6.3545 -10.1385 -7.145 -6.111001 
-10.089 -10.6346 -10.3105 -10.5975 -14.2285 -15.0294 -14.1941 -8.869 -8.377501 -7.3275 -11.0855 -12.132 -7.145 
-12.7866 -11.8796 -13.4625 -16.5455 -17.9041 -16.1054 -15.3701 -11.3337 -8.9145 -12.1261 -13.079 -12.132 
-2.8965 -3.1575 -2.3335 -3.7745 -6.0655 -3.5895 -2.4285 -3.4985 -3.135 -4.257 -8.4475 -3.1435 -3.046 -1.7695 -2.5685 
-4.4055 -4.92 -6.783501 -7.993 -10.1 -6.2815 -5.7075 -6.916 -7.840001 -13.6623 -11.905 -6.150001 -4.575 -4.2305 
-5.692 -9.911 -11.451 -12.9137 -12.792 -9.370001 -8.973001 -11.937 -17.5805 -17.1198 -14.9115 -7.160501 -6.48 
-11.0024 -14.6307 -16.3717 -15.6057 -15.8805 -13.1233 -14.1296 -21.6775 -21.038 -20.1263 -15.922 -9.576 
-15.7221 -19.5514 -19.0637 -18.6942 -19.6338 -18.2799 -23.8701 -25.135 -24.0445 -21.1368 -18.3375 
