-4.759 
n/a 
n/a 
n/a 
n/a 
-4.759 
n/a 
n/a 
n/a 
n/a 
-4.759 
n/a 
n/a 
n/a 
n/a 
-4.759 
n/a 
n/a 
n/a 
n/a 
-13.113 -3.5715 -3.3245 0 -3.0105 -1.4985 -3.9035 -3.325 -3.4985 -1.7565 -1.4985 -4.891 
-15.357 -5.433 -3.3245 -3.0105 -4.7935 -5.498 -7.454 -5.6905 -4.622 -2.4195 -5.891001 
-17.5841 -5.433 -5.065 -4.7935 -9.479 -8.649 -10.071 -6.535 -5.215 -7.059 
-17.5841 -6.4245 -6.5485 -9.479 -12.7338 -11.6006 -10.9155 -6.902 -10.0745 
-18.8406 -7.8885 -11.6974 -12.7338 -15.6854 -12.4451 -11.2825 -12.1507 
-12.469 -3.325 -1.4985 -3.4985 -1.7565 -6.144 -2.5045 -2.264 -3.5715 -3.3245 0 -3.0105 
-14.7005 -3.898 -4.798 -4.622 -7.7095 -8.1005 -5.495501 -4.917 -5.433 -3.3245 -3.0105 
-15.5564 -5.8625 -5.425 -9.76 -9.901 -11.5185 -8.514501 -6.430501 -5.433 -5.065 
-16.5119 -5.8915 -10.2175 -12.0065 -13.2764 -14.5375 -9.044001 -6.430501 -6.4245 
-16.7909 -10.316 -12.464 -15.3819 -16.2954 -15.067 -9.044001 -7.313001 
-1.4985 -3.7435 -1.7565 -1.8085 -4.4145 -4.7445 -2.186 -3.074 -5.016 -1.7695 -2.489 -4.992 -3.0365 0 -2.872 -2.5045 -1.7565 -3.0105 0 -2.4265 -4.461 -6.03 -1.4985 -4.464 -2.7415 -5.7305 -1.934 -4.447 0 -3.2615 -5.1395 -2.7415 -4.099 -1.934 -1.4985 -3.5165 -2.5045 -3.7875 -5.9325 -1.7695 -3.2495 -1.7565 -1.4985 -5.5515 
-4.5515 -4.905 -3.2595 -5.6225 -8.147501 -6.36 -4.156 -7.4615 -6.508 -3.1405 -6.319 -6.9615 -3.0365 -2.872 -4.9055 -4.4235 -5.2695 -3.0105 -2.4265 -5.6385 -8.376 -8.275001 -5.37 -6.3925 -7.203501 -7.03 -5.642 -4.447 -3.2615 -8.403501 -7.322001 -5.601 -5.1385 -2.6125 -4.849 -6.502501 -5.369 -8.357 -6.492001 -5.112 -4.822 -2.4195 -6.4245 
-5.2425 -5.738 -6.979 -8.7915 -9.697001 -8.625501 -7.853001 -8.47 -6.753 -6.6635 -7.9975 -6.9615 -5.3905 -4.9055 -6.699501 -6.846001 -5.2695 -5.9015 -5.6385 -9.544001 -9.691501 -12.2827 -6.897501 -9.316 -7.930501 -8.979501 -5.642 -7.3895 -8.403501 -9.6715 -10.647 -6.4465 -5.647 -5.546 -7.0435 -8.974501 -9.913 -8.982501 -9.118501 -6.699501 -5.203 -7.185 
-5.797 -9.582001 -9.8395 -10.2485 -12.0667 -12.4463 -8.841001 -8.8415 -9.694501 -8.262501 -7.9975 -8.587501 -7.4405 -6.699501 -9.075001 -6.846001 -7.3475 -8.809501 -9.544001 -10.9937 -13.6992 -13.8102 -9.415001 -10.042 -10.037 -8.979501 -7.614501 -12.8533 -9.6715 -13.1879 -11.4925 -6.942501 -7.542 -7.623 -9.244501 -13.5337 -10.227 -11.7222 -10.3745 -6.9935 -9.346001 
-9.637501 -10.3 -11.3685 -12.6182 -15.8875 -13.4343 -9.201 -11.9966 -11.4925 -8.262501 -9.537001 -10.5975 -9.218 -9.075001 -9.075001 -8.558001 -9.81 -12.904 -10.9937 -15.0014 -15.2267 -16.3277 -10.224 -12.1485 -10.037 -10.304 -13.2161 -14.1213 -13.1879 -14.0334 -11.9885 -8.4545 -8.906 -9.427 -13.8471 -13.8477 -13.3199 -12.9782 -10.6995 -10.374 
-4.418 -4.465 -2.3345 -6.144 -4.891 -2.5045 -2.264 -3.5715 -3.3245 0 -3.0105 
-8.814001 -5.2135 -8.052 -9.338 -7.63 -5.495501 -4.917 -5.433 -3.3245 -3.0105 
-8.882501 -9.935 -11.4476 -12.1726 -11.0414 -8.514501 -6.430501 -5.433 -5.065 
-13.6846 -13.4266 -14.2822 -15.584 -14.0604 -9.044001 -6.430501 -6.4245 
-17.1762 -16.2612 -17.6936 -18.603 -14.5899 -9.044001 -7.313001 
