-4.759 
n/a 
n/a 
n/a 
n/a 
-4.759 
n/a 
n/a 
n/a 
n/a 
-4.759 
n/a 
n/a 
n/a 
n/a 
-4.759 
n/a 
n/a 
n/a 
n/a 
-1.4985 -9.8915 -4.6985 -2.186 -4.09 -2.5045 -3.436 -5.084 -4.277 -3.277 0 
-8.5985 -10.322 -6.187 -5.6995 -5.8795 -7.0425 -8.5845 -7.3345 -6.336 -3.277 
-11.009 -10.737 -9.832001 -7.7515 -11.0539 -12.6065 -11.041 -8.5825 -6.336 
-12.6813 -14.7468 -11.9018 -13.3439 -16.6179 -14.446 -12.8075 -8.7405 
-16.3613 -16.8166 -17.4942 -18.9079 -18.4574 -14.5315 -10.774 
-3.436 -10.2145 -3.277 -1.4985 -3.7805 -5.3995 -1.7565 -4.8095 -2.8645 -4.8635 -1.934 -1.4985 -9.8915 -4.6985 -2.5045 -1.7565 -3.1015 0 
-13.082 -11.313 -4.839 -4.8195 -9.5425 -6.491 -5.881001 -7.7035 -5.6965 -4.9455 -2.6125 -8.5985 -10.322 -6.7425 -4.4235 -5.9795 -3.1015 
-16.2316 -13.041 -8.631001 -10.6215 -10.9424 -11.0505 -8.755501 -10.575 -5.732 -5.6805 -10.5825 -11.009 -11.1235 -9.116501 -6.276 -5.9795 
-17.9328 -16.833 -14.5348 -12.0214 -15.5019 -13.925 -11.7074 -10.5935 -6.518 -13.7293 -11.7025 -13.0678 -13.9379 -11.2752 -6.276 
-21.7248 -22.7368 -15.9347 -16.5809 -18.3764 -16.8769 -11.7259 -11.3795 -14.759 -15.3695 -14.1535 -15.5524 -16.0966 -11.2752 
-3.0365 -2.7415 -1.4985 -3.0835 -7.746 -4.612 -3.436 -5.084 -4.277 -3.277 0 -2.9705 -4.8635 -1.934 -1.4985 -3.8825 -9.8915 -4.6985 0 
-4.2225 -4.063 -3.535 -10.2485 -9.579 -7.919 -8.5845 -7.3345 -6.336 -3.277 -2.9705 -5.978001 -4.9455 -2.6125 -4.569 -11.415 -10.322 -4.6985 
-5.9605 -5.12 -10.361 -12.3875 -12.9756 -13.5312 -11.041 -8.5825 -6.336 -6.158501 -5.978001 -6.022 -5.6805 -5.421 -12.3045 -13.386 -9.1035 
-7.999001 -12.3578 -12.6538 -15.7841 -18.5878 -15.3707 -12.8075 -8.7405 -8.833 -8.64 -6.022 -6.6215 -8.549001 -13.5721 -14.1345 -13.386 
-15.2496 -14.6506 -16.0504 -21.3963 -20.4273 -15.4562 -10.774 -12.0811 -11.6985 -8.672501 -6.6215 -9.4875 -16.6625 -15.4021 -14.1345 
-3.436 -1.4985 -3.158 -1.7565 -5.084 -4.277 -3.0835 -4.5485 -5.9865 -2.5195 -4.8095 -4.3245 -5.082 -1.756 -4.8095 -2.5195 -1.4985 -4.6985 0 
-4.213 -4.178 -4.71 -6.557 -7.3345 -7.862501 -7.147 -10.862 -8.219 -7.1575 -9.345501 -8.352501 -6.218 -6.1215 -6.9005 -3.1695 -5.1995 -4.6985 
-6.8305 -5.562 -10.1375 -8.789001 -10.13 -12.5938 -13.8083 -13.0945 -13.326 -12.3323 -13.4445 -9.161 -7.442 -7.9795 -7.1835 -6.7025 -5.1995 
-8.125501 -10.156 -10.635 -11.301 -15.1986 -19.2551 -16.0408 -18.2015 -18.5008 -16.4313 -14.253 -10.5235 -9.1735 -8.3785 -8.4245 -6.7025 
-12.901 -10.689 -14.1575 -16.7117 -21.8845 -21.4876 -21.1478 -23.3763 -22.5998 -17.2398 -15.6155 -12.255 -9.750501 -9.837501 -8.4245 
