-4.759 
n/a 
n/a 
n/a 
n/a 
-4.759 
n/a 
n/a 
n/a 
n/a 
-4.759 
n/a 
n/a 
n/a 
n/a 
-4.759 
n/a 
n/a 
n/a 
n/a 
-3.188 -4.3555 -2.3345 -3.8445 -4.6195 
-7.347001 -7.4995 -6.103 -8.2655 
-10.647 -11.7882 -10.199 
-15.7209 -15.8842 
-19.8169 
-3.188 -2.186 -3.43 -1.7565 -10.6645 0 
-5.1175 -4.64 -4.9095 -13.3702 -10.6645 
-7.460501 -5.662001 -17.2268 -13.3702 
-8.094501 -18.1745 -17.2268 
-20.8742 -18.1745 
-3.188 -3.859 -2.356 -3.8445 -12.16972 0 
-7.5725 -6.293 -5.705501 -17.18722 -12.16972 
-10.078 -10.634 -19.33062 -17.18722 
-14.6232 -24.25912 -19.33062 
-28.24832 -24.25912 
-3.188 -2.186 -3.43 -1.7565 -12.16972 
-5.1175 -4.64 -4.9095 -14.87542 
-7.460501 -5.662001 -18.73202 
-8.094501 -19.67972 
-22.37942 
