-4.759 
n/a 
n/a 
n/a 
n/a 
-4.759 
n/a 
n/a 
n/a 
n/a 
-4.759 
n/a 
n/a 
n/a 
n/a 
-4.759 
n/a 
n/a 
n/a 
n/a 
-2.0935 -3.135 -4.2895 0 -1.4985 -4.431 -3.152 -4.69 -2.0935 -1.8085 -3.4985 0 -2.872 -1.4985 -3.935 -1.7565 -3.8275 -1.756 -1.4985 -4.241 -4.431 -3.152 -1.934 -3.895 -4.732 -1.4985 -3.158 -3.0105 -3.034 -1.4985 -6.899 -3.5435 -3.687 -3.1495 -3.275 -5.4305 0 
-4.4665 -6.575 -4.2895 -1.4985 -6.122001 -6.919001 -6.7585 -6.354 -3.385 -4.756001 -3.4985 -2.872 -4.035 -5.785 -6.4995 -4.8265 -5.1855 -3.0405 -5.311501 -6.247 -6.919001 -4.9115 -5.1555 -8.4425 -5.618001 -4.178 -5.481501 -6.148 -3.947 -8.336 -8.7615 -7.904 -7.125501 -5.003 -9.705 -5.4305 
-7.2345 -6.575 -5.7375 -6.122001 -7.439001 -10.341 -8.207001 -6.9015 -5.122 -4.756001 -5.9785 -4.035 -8.535 -7.7385 -10.7565 -6.071 -6.0845 -6.8175 -7.328501 -8.297501 -8.715 -8.323 -9.697001 -9.3795 -7.888 -6.349501 -8.564001 -6.891 -10.7025 -9.265 -13.309 -10.4595 -10.0475 -12.1136 -9.705 
-7.2345 -8.101 -10.275 -7.439001 -10.609 -11.7895 -9.012501 -8.046 -5.122 -6.0365 -7.2235 -8.535 -10.6747 -12.1881 -12.001 -7.037 -8.562 -9.041 -8.908501 -9.995001 -12.4195 -12.9529 -10.363 -10.4605 -9.797001 -8.941501 -9.278501 -13.9627 -11.6315 -13.8529 -15.8645 -13.3815 -17.3291 -12.1136 
-8.229 -12.8095 -11.592 -10.609 -12.0575 -12.595 -10.1595 -8.046 -6.250501 -7.294001 -11.9239 -10.6747 -15.1243 -13.4326 -12.967 -10.0575 -10.5975 -9.5175 -10.586 -13.9313 -17.0494 -13.6189 -11.712 -12.3695 -12.4328 -9.618501 -16.3542 -14.8917 -16.2194 -16.4084 -18.7865 -20.6631 -17.3291 
-4.013 -1.4985 -5.8005 -3.794 -2.7415 -2.356 -4.005 -3.851 -1.7695 -3.135 -4.2895 0 -1.4985 -3.772 -1.7565 -4.6285 -1.4985 -3.8275 -1.756 -5.8005 -4.0395 -2.7415 -1.934 -1.4985 -3.8465 -3.834 -6.899 -3.5435 -4.101 -3.8515 -6.2985 -1.934 -1.4985 -3.158 -8.263 0 
-4.7555 -7.859501 -10.3045 -5.690001 -5.5325 -7.706 -7.904 -4.0015 -4.779 -6.575 -4.2895 -1.4985 -5.215 -5.153 -6.547501 -5.836 -4.726 -5.1855 -7.5265 -11.0805 -5.929501 -4.5155 -2.6125 -5.263 -7.316501 -11.9424 -8.7615 -7.607 -6.072001 -9.807 -7.7665 -2.6125 -4.178 -10.674 -8.263 
-11.2917 -12.6373 -12.2005 -8.2155 -9.444 -9.109001 -7.937 -6.268 -8.2405 -6.575 -5.7375 -5.215 -5.5775 -10.5144 -7.2555 -7.1185 -6.0755 -11.9712 -12.8539 -12.9705 -8.2845 -5.133 -6.3035 -8.224501 -15.7185 -13.8049 -13.012 -10.1595 -12.5443 -11.3394 -8.6245 -5.265 -11.9174 -10.674 
-16.0695 -14.5333 -14.726 -12.3214 -11.0182 -9.113501 -10.2865 -8.277 -8.2405 -8.101 -9.7615 -5.5775 -11.1269 -11.2224 -8.3015 -8.278501 -13.1104 -17.2986 -14.7439 -15.3255 -8.815001 -9.93 -9.201 -17.2145 -17.581 -18.0554 -15.5645 -16.7096 -14.0767 -12.1974 -11.4458 -13.6828 -11.9174 
-17.9655 -17.0588 -18.8319 -13.8956 -11.0227 -12.2272 -12.4695 -8.277 -9.450001 -12.296 -10.1365 -11.1269 -11.8349 -12.2684 -9.369 -15.5598 -18.4378 -19.1886 -17.0989 -15.856 -13.9824 -13.0299 -18.9184 -19.077 -21.8315 -20.6079 -22.1146 -18.242 -14.9347 -15.0187 -19.8636 -13.6828 
-2.0935 -3.135 -4.031 0 -3.929 -1.4985 -4.431 -3.152 -4.69 -2.0935 -3.135 -3.8405 -4.732 -4.628 -5.939 -3.5435 -4.0555 -2.9905 -1.7565 -1.4985 -4.241 -3.585 0 -5.263 -3.898 -1.756 -4.241 -4.2645 -3.152 -1.934 -4.6975 -4.732 -3.0105 0 
-4.4665 -5.323501 -4.031 -3.929 -4.8985 -6.122001 -6.919001 -6.7585 -6.354 -4.4665 -6.777 -7.943 -10.0815 -5.9615 -7.053 -7.2145 -5.1245 -3.6185 -2.4195 -5.311501 -5.9545 -3.585 -5.263 -6.269001 -5.242001 -5.515 -7.189 -6.7615 -4.9115 -5.8345 -8.732 -7.9125 -3.0105 
-5.3455 -5.323501 -7.257 -4.8985 -9.151501 -7.439001 -10.341 -8.207001 -8.059 -7.111501 -11.7651 -13.6631 -11.0014 -7.0565 -10.468 -8.635 -5.862 -4.3385 -5.868001 -6.284 -5.9545 -9.515501 -6.269001 -7.420001 -8.9825 -8.196 -9.779 -8.443501 -7.5265 -9.59 -12.1749 -7.9125 
-5.3455 -7.804001 -8.3995 -9.151501 -9.9835 -10.609 -11.7895 -9.9505 -10.0315 -12.4628 -17.4852 -14.583 -12.0964 -10.4675 -11.8885 -9.803 -6.2435 -8.576501 -7.0975 -6.284 -10.5975 -10.704 -7.420001 -9.0495 -12.1381 -10.9964 -11.461 -11.5899 -11.7112 -13.0299 -12.1749 
-7.807001 -8.772 -12.7257 -9.9835 -13.1535 -12.0575 -13.533 -12.2926 -15.1048 -18.1829 -18.4051 -15.678 -15.5074 -11.888 -13.0565 -10.0845 -10.434 -9.170001 -7.0975 -11.2938 -11.786 -11.855 -9.0495 -12.3615 -14.9385 -12.6784 -14.6074 -15.7746 -15.1511 -13.0299 
-3.851 -1.7695 -3.135 -4.2895 0 -1.4985 -3.7535 -3.152 -4.69 -1.756 -1.4985 -6.1495 -4.0555 -1.7695 -2.664 -3.498 -5.7865 -1.4985 -3.158 -3.0105 -3.2615 -2.3335 -3.098 -1.4985 -4.628 -5.939 -3.5435 -3.251 -5.2645 -2.5195 -1.4985 -3.7535 -4.126 0 
-4.0015 -4.779 -6.575 -4.2895 -1.4985 -4.9135 -7.3665 -6.7585 -6.0285 -3.0405 -6.842 -8.837501 -4.7475 -4.185 -5.1155 -9.836 -7.099 -4.178 -5.481501 -6.353001 -5.0495 -5.0465 -4.514 -6.298 -5.9615 -7.053 -6.0535 -7.117001 -6.094 -3.1695 -4.9135 -8.048 -4.126 
-6.268 -8.2405 -6.575 -5.7375 -4.9135 -7.986501 -11.1532 -7.812 -6.9545 -8.693501 -9.118501 -10.1075 -6.349 -5.6315 -12.2555 -11.2325 -9.003 -6.349501 -8.865001 -8.31 -7.9095 -5.999 -9.5825 -6.5895 -7.0565 -9.099 -9.125501 -7.696001 -6.4725 -6.8535 -8.34 -8.048 
-8.277 -8.2405 -8.101 -9.1925 -7.986501 -11.8424 -12.2067 -8.6145 -12.9295 -10.7175 -10.443 -10.26 -6.4995 -12.6295 -13.652 -13.1365 -10.7335 -9.396501 -10.513 -11.5254 -8.725 -11.2409 -9.794 -7.161001 -9.108001 -12.1776 -10.0195 -8.002501 -9.964001 -10.2485 -8.34 
-8.277 -9.450001 -11.727 -12.6221 -11.8424 -12.8959 -13.0092 -14.7695 -14.9535 -12.042 -10.557 -10.3075 -13.9107 -14.026 -15.556 -14.867 -13.7805 -11.1051 -13.7284 -12.3409 -14.1293 -11.4524 -10.4815 -9.134501 -12.1888 -13.0716 -10.3535 -11.6628 -13.5282 -10.2485 
