-4.759 
n/a 
n/a 
n/a 
n/a 
-4.759 
n/a 
n/a 
n/a 
n/a 
-4.759 
n/a 
n/a 
n/a 
n/a 
-4.759 
n/a 
n/a 
n/a 
n/a 
-3.5715 -3.106 -6.535 -6.028 -5.571 -2.5195 -1.4985 -3.275 -1.7565 -3.757 
-5.5525 -10.254 -6.643 -8.8915 -6.3935 -3.1695 -4.7845 -5.893 -5.584 
-13.7805 -10.468 -9.219501 -9.785001 -6.6955 -6.444 -6.356 -7.7555 
-13.9945 -13.0445 -10.0575 -10.0475 -8.406 -7.8615 -7.853001 
-16.571 -13.8825 -10.2 -10.6965 -8.863 -9.319 
-1.934 -3.5715 -3.106 0 -4.4935 -3.757 -6.535 -6.028 -4.3215 -3.091 -5.4735 -2.5195 -1.4985 -3.4425 -1.7565 -3.757 0 
-5.0835 -5.5525 -3.106 -4.4935 -7.4165 -7.0225 -6.643 -8.696501 -6.2485 -6.3955 -6.8655 -3.1695 -4.548 -4.3385 -5.584 -3.757 
-7.8745 -5.5525 -8.0625 -7.4165 -8.021 -7.0305 -9.0375 -9.403001 -7.365 -7.451 -7.1675 -5.94 -4.8815 -6.7525 -5.584 
-7.8745 -10.6875 -10.6215 -8.021 -8.029 -9.211 -9.679001 -9.548501 -8.2075 -7.685 -8.940001 -6.155 -6.8005 -6.7525 
-13.5703 -13.2465 -10.754 -8.029 -10.3885 -9.7675 -9.743 -10.5636 -8.3985 -9.42 -9.161 -8.6435 -6.8005 
-3.5715 -7.599501 -4.2245 -6.535 -6.028 -5.571 -3.091 -3.6175 
-10.509 -12.1625 -8.923 -6.643 -8.8915 -6.8665 -5.6515 
-15.2533 -14.2118 -8.940001 -9.219501 -10.7335 -8.705 
-16.8368 -14.2238 -11.5857 -11.1775 -12.572 
-16.8488 -16.8695 -13.5437 -13.016 
-12.9235 -3.757 -6.535 -6.028 -5.627 -2.5195 -3.091 -3.275 
-16.3249 -7.0225 -6.643 -9.5655 -6.5885 -4.8225 -6.0575 
-16.9294 -7.0305 -10.228 -10.689 -7.6125 -7.0015 
-16.9374 -10.434 -11.3515 -11.713 -8.186501 
-20.4727 -11.5575 -12.3755 -12.287 
