-4.759 
n/a 
n/a 
n/a 
n/a 
-4.759 
n/a 
n/a 
n/a 
n/a 
-4.759 
n/a 
n/a 
n/a 
n/a 
-4.759 
n/a 
n/a 
n/a 
n/a 
-3.2615 -1.4985 -4.5855 -1.7565 -3.8275 -4.2755 0 -4.3935 0 -4.185 0 -5.579 -4.39 -4.882 -3.152 -4.7715 -1.934 -3.875 0 
-4.032 -5.3935 -4.9095 -4.8265 -8.958 -4.2755 -4.3935 -4.3935 -4.185 -4.185 -5.579 -8.388 -9.776001 -8.892 -7.5015 -6.7395 -4.7225 -3.875 
-6.3935 -5.4515 -9.7005 -10.064 -8.958 -6.901501 -4.3935 -6.909 -4.185 -9.752001 -8.388 -14.106 -14.0644 -13.3409 -8.591001 -9.9585 -4.7225 
-6.41 -9.901 -15.2278 -10.064 -12.0672 -6.901501 -6.909 -6.909 -9.752001 -12.666 -14.106 -18.3944 -18.5133 -14.4304 -12.2028 -9.9585 
-9.9915 -15.7791 -15.2278 -13.334 -12.0672 -9.019001 -6.909 -13.8748 -12.666 -18.384 -18.3944 -22.8433 -19.6028 -18.0422 -12.2028 
-3.034 -1.4985 -3.8275 -4.4945 -3.098 -1.4985 -6.191 0 -9.116501 0 -4.185 0 -12.16972 -3.959 -2.4945 -3.307 -1.934 -1.4985 -3.8685 
-3.947 -4.726 -8.4915 -7.6035 -4.514 -7.3535 -6.191 -9.116501 -9.116501 -4.185 -4.185 -12.16972 -16.12872 -5.624 -7.7105 -5.094501 -2.6125 -4.916 
-6.7535 -8.7615 -11.8287 -8.9285 -10.6728 -7.3535 -16.2229 -9.116501 -13.6679 -4.185 -17.29672 -16.12872 -17.79372 -11.4846 -9.828 -6.042 -6.0365 
-9.2925 -12.1799 -13.1537 -15.1941 -10.6728 -17.6188 -16.2229 -13.6679 -13.6679 -17.29672 -21.25572 -17.79372 -23.65432 -13.6021 -10.9577 -10.1765 
-12.7477 -13.5049 -19.4193 -15.1941 -20.9381 -17.6188 -20.7743 -13.6679 -26.77962 -21.25572 -22.92072 -23.65432 -25.77182 -14.7318 -15.0922 
-3.2615 -1.4985 -3.8275 -2.8645 -4.434 0 -6.191 0 -5.875 -3.873 0 -4.185 0 -8.314 -3.959 -2.674 -3.1125 -3.8225 -1.934 -3.875 
-4.032 -4.726 -6.32 -5.9035 -4.434 -6.191 -6.191 -5.875 -10.8215 -3.873 -4.185 -4.185 -8.314 -12.6432 -5.6485 -3.6315 -6.972 -5.496 -4.7225 
-6.0085 -6.965 -7.9035 -5.9035 -11.9456 -6.191 -12.9814 -10.8215 -10.8215 -8.796 -4.185 -11.08 -12.6432 -14.3327 -6.743 -7.298 -7.754001 -7.6955 
-8.5835 -8.2845 -7.9035 -13.6129 -11.9456 -12.9814 -17.9279 -10.8215 -15.7445 -8.796 -11.08 -15.4092 -14.3327 -15.4272 -10.7781 -8.134 -9.455001 
-9.0865 -8.2845 -16.0227 -13.6129 -18.736 -17.9279 -17.9279 -15.7445 -15.7445 -15.9286 -15.4092 -17.0987 -15.4272 -19.4623 -11.6141 -9.8065 
-3.2615 -3.498 -1.7565 -3.8275 0 -6.015 -3.873 0 -4.3935 0 -4.185 -3.959 -3.098 -3.1495 -3.959 -2.186 -3.307 -1.7695 -1.4985 -3.982 -3.959 
-7.0065 -4.005 -4.8265 -3.8275 -6.015 -8.404501 -3.873 -4.3935 -4.3935 -4.185 -8.5585 -6.3035 -6.3255 -5.772 -6.092 -7.210501 -5.5175 -2.7955 -4.566 -5.6075 
-7.152 -7.543 -4.8265 -10.3285 -8.404501 -8.404501 -7.815001 -4.3935 -6.909 -8.5585 -11.4006 -10.022 -9.236501 -7.4375 -11.5595 -9.123001 -6.756001 -5.8815 -7.0455 
-9.594001 -7.543 -11.7681 -13.3292 -8.404501 -12.6979 -7.815001 -6.909 -12.6813 -11.4006 -15.1191 -12.933 -11.0578 -13.0152 -13.472 -9.941001 -10.389 -8.647 
-9.594001 -14.729 -14.7688 -13.3292 -12.6979 -12.6979 -11.6263 -12.6813 -15.5234 -15.1191 -18.0301 -14.7543 -16.6355 -14.9277 -14.29 -13.574 -13.1545 
