-4.759 
n/a 
n/a 
n/a 
n/a 
-4.759 
n/a 
n/a 
n/a 
n/a 
-4.759 
n/a 
n/a 
n/a 
n/a 
-4.759 
n/a 
n/a 
n/a 
n/a 
-2.5045 -1.4985 -3.4975 -4.795 -5.0515 -1.934 -3.934 -1.756 -2.8965 -4.682 -4.418 -1.934 -5.5435 0 -4.6185 -4.185 -1.7695 -7.11 -3.277 0 
-3.583 -4.3125 -6.322001 -9.5625 -6.698 -5.185 -5.656 -3.751 -7.485 -8.214001 -5.746 -6.953 -5.5435 -4.6185 -9.297501 -6.528001 -7.664501 -8.625 -3.277 
-6.304501 -7.473001 -11.5813 -11.2468 -9.8485 -6.316 -7.512001 -7.929 -9.7465 -9.711 -11.531 -6.953 -10.5435 -9.297501 -9.408501 -11.0065 -9.115001 -8.611501 
-9.391001 -12.8551 -13.2656 -14.3973 -11.2141 -8.02 -9.413 -9.894 -11.6045 -15.4338 -11.531 -12.5298 -15.2225 -9.408501 -13.4532 -13.969 -9.937501 
-14.8861 -14.5394 -16.4161 -15.7629 -12.9181 -9.7845 -12.2962 -11.9738 -17.3273 -15.4338 -17.1078 -17.2088 -15.3335 -13.4532 -16.9797 -13.969 
-1.934 -5.5435 -4.185 -7.9935 -1.7695 -12.16972 
-6.953 -9.257501 -13.1205 -10.1265 -14.92142 
-9.7685 -18.5016 -15.2535 -23.27842 
-19.0382 -20.6346 -28.40542 
-21.1712 -33.78652 
-1.4985 -4.6165 -5.0515 -1.7565 -3.934 -1.756 -2.8965 -3.8195 -1.7565 -4.031 -1.7565 -5.6305 -3.43 -4.185 -1.7695 -3.6845 -2.4265 -3.8515 -1.934 -1.4985 -3.158 -5.5435 
-5.7985 -9.318001 -5.5125 -5.16 -5.656 -3.751 -5.3235 -4.542 -6.433001 -5.741 -6.561501 -9.406 -8.623 -6.528001 -4.2695 -4.9705 -5.71 -5.486 -2.6125 -4.178 -8.3815 
-10.1805 -9.662001 -9.109501 -6.5055 -7.512001 -6.188 -5.8135 -9.136001 -8.0485 -6.8025 -10.0575 -14.7674 -11.4 -8.990001 -5.66 -6.4125 -7.2225 -6.086 -5.265 -8.505 
-10.3545 -13.4338 -10.013 -8.597 -9.122001 -6.693 -10.9039 -10.1115 -8.606501 -10.6139 -15.4289 -17.5444 -13.862 -10.4901 -7.217 -8.356501 -7.824 -8.871 -8.863001 
-14.1263 -14.3373 -12.4807 -10.316 -9.743501 -11.9902 -11.8794 -10.9399 -12.5881 -15.9853 -18.2059 -20.0064 -15.3621 -12.0471 -8.902 -9.003 -10.8742 -12.564 
-4.185 -3.251 -1.7695 -3.6845 -2.925 -3.934 -1.756 -3.3715 -2.8965 -3.8195 -1.934 -5.5435 -3.4635 -4.0415 -4.717 -2.3345 -1.4985 -2.985 -2.229 -1.934 -3.934 
-7.373001 -4.3285 -4.2695 -5.1185 -7.545001 -5.656 -4.6545 -4.827001 -5.3235 -5.221 -6.953 -9.636501 -7.89 -6.7475 -6.532 -3.233 -4.1115 -3.482 -4.573 -5.185 
-8.839001 -6.371 -5.5655 -9.7635 -9.104501 -8.2825 -5.28 -6.838 -6.531 -10.9014 -9.8715 -14.398 -10.1345 -8.283501 -7.017 -5.391 -4.1465 -5.978 -8.016001 
-10.5135 -6.917 -10.185 -10.384 -12.0056 -8.671 -7.376 -8.0935 -12.7324 -13.8199 -14.7648 -16.6425 -11.7679 -8.7205 -8.8785 -5.4065 -6.1115 -9.238001 
-10.776 -11.8255 -10.8055 -13.9277 -12.3941 -10.4185 -8.652 -14.5769 -15.6509 -18.7132 -17.0093 -18.2759 -12.2049 -9.9835 -8.9125 -7.8335 -9.288501 
