-4.759 
n/a 
n/a 
n/a 
n/a 
-4.759 
n/a 
n/a 
n/a 
n/a 
-4.759 
n/a 
n/a 
n/a 
n/a 
-4.759 
n/a 
n/a 
n/a 
n/a 
-3.6705 0 -2.3615 -4.4945 -3.423 -2.6165 -3.228 -4.103 0 
-3.6705 -2.3615 -6.306 -7.8405 -4.4935 -6.226501 -6.1045 -4.103 
-5.211 -6.306 -8.916 -9.5255 -7.7965 -7.794001 -6.1045 
-9.373501 -8.916 -10.4115 -13.1115 -9.5865 -7.794001 
-12.2855 -10.4115 -14.1681 -14.9015 -9.5865 
-3.2615 -2.3335 -2.3615 -3.6825 -2.7765 -2.6165 -5.1605 -2.0935 -3.3715 -3.277 0 
-5.0495 -4.2805 -6.2875 -6.3655 -4.9255 -6.960501 -7.1085 -4.713 -4.9255 -3.277 
-7.566501 -8.003501 -8.5885 -8.186001 -10.513 -9.855 -9.096001 -5.244 -4.9255 
-11.4575 -9.779 -10.7906 -14.1705 -14.0059 -11.9997 -9.284 -5.244 
-13.233 -12.1035 -16.7751 -17.6634 -16.1506 -12.1877 -9.284 
-3.4765 -3.321 -2.3615 -4.2645 -3.423 -2.6165 -5.392 -2.0935 -3.469 -2.95 0 
-5.827001 -5.4245 -6.905001 -7.844 -4.4935 -7.314501 -7.782001 -5.214 -4.7535 -2.95 
-8.001 -10.304 -9.3155 -9.027 -8.7105 -9.658001 -10.1855 -6.855 -4.7535 
-13.0161 -12.7145 -10.4515 -13.2906 -11.2662 -12.1695 -11.8265 -6.855 
-15.4266 -13.8505 -14.7151 -15.8463 -13.7777 -13.8105 -11.8265 
-2.872 -2.3615 -4.2645 -2.186 -3.098 -3.511 -3.815 -3.8405 0 
-4.6665 -6.905001 -6.3055 -4.5535 -6.49 -8.078001 -5.7745 -3.8405 
-9.222501 -7.897 -9.1045 -9.1185 -11.897 -10.4285 -5.7745 
-10.1855 -10.6335 -13.8249 -14.8743 -14.2475 -10.4285 
-12.922 -15.3539 -19.5807 -17.2248 -14.2475 
