-4.759 
n/a 
n/a 
n/a 
n/a 
-4.759 
n/a 
n/a 
n/a 
n/a 
-4.759 
n/a 
n/a 
n/a 
n/a 
-4.759 
n/a 
n/a 
n/a 
n/a 
-3.717 0 -5.1845 -4.248 -4.891 
-3.717 -5.1845 -9.3135 -10.533 
-8.818501 -9.3135 -16.1411 
-13.1811 -16.1411 
-20.0087 
-3.717 0 -4.891 -1.7565 -5.1845 -6.844 
-3.717 -4.891 -6.8725 -6.580501 -6.9655 
-9.505501 -6.8725 -7.181 -7.1625 
-11.6242 -7.181 -7.202001 
-11.9327 -7.202001 
-3.548 0 -12.16972 -6.8745 
-3.548 -12.16972 -19.04422 
-17.12012 -19.04422 
-23.99462 
n/a 
-5.1845 -10.0425 -9.145 
-16.5214 -10.2185 
-16.6974 
n/a 
n/a 
