-4.759 
n/a 
n/a 
n/a 
n/a 
-4.759 
n/a 
n/a 
n/a 
n/a 
-4.759 
n/a 
n/a 
n/a 
n/a 
-4.759 
n/a 
n/a 
n/a 
n/a 
-3.898 -1.7565 -2.915 -4.6905 -3.6215 -1.756 -3.898 -1.7565 -7.915501 -4.3465 -4.9285 -1.7695 -4.4035 -1.4985 -3.5485 0 
-4.9795 -4.387 -7.772 -10.3105 -5.3685 -5.4225 -4.9795 -8.9055 -12.0515 -9.635 -6.0495 -4.8505 -5.915 -5.0185 -3.5485 
-7.940001 -9.241 -13.759 -11.9549 -10.4265 -6.2355 -11.853 -13.8554 -18.2824 -9.8205 -8.744 -6.24 -9.425 -5.0185 
-13.3142 -15.455 -15.4034 -17.0129 -11.2395 -13.8005 -18.3811 -20.1811 -18.4679 -12.515 -10.4855 -9.6995 -9.425 
-19.5282 -17.0994 -20.4614 -17.8259 -18.9491 -19.8572 -23.8956 -20.3666 -21.1624 -14.2565 -13.945 -9.6995 
-3.3825 -1.934 -1.4985 -3.6445 -1.7565 -4.0045 -1.756 -3.8565 -3.3825 -2.8645 -3.7855 -5.411 -4.053 -1.7695 -3.5485 
-5.027 -2.6125 -4.4795 -4.775001 -5.224 -5.167 -4.9165 -4.849 -6.0895 -5.325 -7.4255 -6.6675 -4.4285 -5.526 
-5.6325 -4.8345 -5.062 -7.611501 -6.207 -8.870501 -5.765 -7.4875 -8.586 -8.901 -7.8545 -6.867 -8.3835 
-7.3875 -5.2075 -7.6545 -8.366501 -9.848001 -9.514001 -8.297501 -9.884501 -12.3028 -10.4265 -7.895 -10.9804 
-7.486001 -7.803 -8.403001 -12.2931 -10.5559 -12.3225 -10.7175 -13.5893 -13.8283 -10.799 -12.4284 
-2.915 -3.433 -2.186 -3.7855 -3.3715 -3.958 -2.0935 -4.1105 0 
-4.682 -5.308 -4.9225 -7.049001 -6.110001 -4.843 -6.191 -4.1105 
-6.7625 -8.607 -8.607 -8.233001 -6.5855 -9.366501 -6.191 
-10.4675 -12.3429 -9.894501 -9.476501 -11.3074 -9.366501 
-14.2034 -13.6304 -11.108 -14.1984 -11.3074 
-3.851 -1.7695 -1.4985 -3.3825 -1.934 -2.915 -3.433 -3.6215 -1.756 -5.4075 -3.898 -2.8645 -3.43 -3.3715 -4.2055 -1.7695 -4.1105 0 
-4.0015 -2.7955 -4.4135 -5.027 -5.4615 -4.682 -6.309 -5.3685 -6.1405 -8.0745 -6.1945 -4.9155 -6.2845 -8.7075 -4.621 -6.628 -4.1105 
-4.5775 -5.4835 -6.748 -7.1025 -6.115 -6.968 -7.9675 -10.5556 -9.0525 -10.287 -8.369501 -7.0635 -12.1019 -9.4405 -11.0419 -6.628 
-7.465 -8.033501 -9.5895 -8.584001 -9.42 -8.473001 -13.3196 -13.4676 -11.2912 -12.462 -10.4185 -13.0433 -12.8349 -15.856 -11.0419 
-9.2065 -10.5325 -9.919001 -12.12 -11.2148 -13.8009 -16.2316 -15.7063 -13.4662 -14.511 -16.3983 -13.7763 -19.2504 -15.856 
