-4.759 
n/a 
n/a 
n/a 
n/a 
-4.759 
n/a 
n/a 
n/a 
n/a 
-4.759 
n/a 
n/a 
n/a 
n/a 
-4.759 
n/a 
n/a 
n/a 
n/a 
-1.4985 -3.2795 -3.6885 -3.9535 -2.5045 -4.86 -1.756 -3.1015 -3.074 -3.6515 
-4.423 -7.3035 -7.045 -5.6505 -8.4595 -6.6075 -4.642 -5.884 -6.258 
-8.701 -11.2798 -8.7205 -12.1471 -10.1035 -9.121 -7.2275 -9.103001 
-12.6935 -12.9553 -15.6887 -13.7911 -12.8026 -11.8343 -10.7175 
-14.369 -19.9235 -17.3327 -16.4902 -15.5159 -15.3243 
-2.5195 -4.86 -5.648 -4.9185 -6.5055 -4.331 
-7.0375 -9.023001 -10.8215 -13.1256 -10.096 
-9.1415 -14.2793 -19.0286 -16.7161 
-14.402 -22.4864 -22.6191 
-22.6091 -26.0769 
-1.934 -4.129 -1.7565 -4.86 -12.16972 -5.759501 -4.448 0 
-6.2175 -6.9015 -6.745 -17.62612 -17.92922 -10.3545 -4.448 
-9.237 -12.4374 -19.89032 -23.38562 -22.52422 -10.3545 
-14.6913 -25.58272 -25.64982 -27.98062 -22.52422 
-27.83662 -31.34222 -30.24482 -27.98062 
-2.5195 -4.86 -5.648 0 -7.4995 -1.756 -5.2015 -3.9535 -4.683 -4.321 0 
-7.0375 -9.023001 -5.648 -7.4995 -8.4475 -6.8575 -8.918001 -7.051001 -8.4005 -4.321 
-9.1415 -9.023001 -13.7241 -8.4475 -13.6768 -10.396 -12.1589 -10.1945 -8.4005 
-9.1415 -17.1819 -14.6721 -13.6768 -17.2153 -13.6369 -15.3024 -10.1945 
-17.3046 -18.1299 -19.9014 -17.2153 -20.4562 -16.7804 -15.3024 
