-4.759 
n/a 
n/a 
n/a 
n/a 
-4.759 
n/a 
n/a 
n/a 
n/a 
-4.759 
n/a 
n/a 
n/a 
n/a 
-4.759 
n/a 
n/a 
n/a 
n/a 
-1.934 -4.8955 -3.676 -2.8645 -4.196 -4.1385 -4.1115 -5.3085 -4.191 -3.9235 
-6.147 -9.431 -5.929501 -5.5955 -9.035501 -7.5325 -8.7295 -6.580501 -9.5815 
-10.0345 -11.7999 -8.718 -11.2048 -12.5849 -12.9843 -9.8205 -10.6095 
-12.4696 -14.5884 -14.5713 -14.7542 -18.0367 -14.0753 -14.3849 
-15.2581 -20.4417 -18.1207 -20.206 -19.1277 -18.6397 
-3.676 -3.5015 -1.4985 -5.3085 -4.191 -4.697 -1.934 -4.1385 -4.3355 0 
-8.009001 -4.9995 -6.114 -6.580501 -7.704 -6.7265 -6.352 -5.686 -4.3355 
-9.834001 -10.1945 -7.836501 -10.674 -9.684501 -11.7169 -8.025001 -5.686 
-15.1532 -11.917 -12.2978 -12.6545 -14.7545 -13.3899 -8.025001 
-16.8757 -16.3783 -14.2783 -17.7245 -16.4275 -13.3899 
-4.426 -1.7565 -1.4985 -3.6115 -4.7285 -4.1555 -3.147 0 
-5.47 -2.4195 -4.081 -6.5495 -8.4455 -5.77 -3.147 
-5.9535 -5.180501 -6.670501 -9.978001 -9.541501 -5.77 
-8.462501 -7.797 -10.054 -11.0524 -9.541501 
-10.2375 -11.2985 -11.1648 -11.0524 
-1.4985 -3.4225 -3.468 -4.196 -1.4985 -4.1385 -5.3085 -4.191 -3.307 0 -7.723001 0 -3.0365 -1.934 -4.8955 0 
-3.9655 -3.628 -7.539001 -5.5315 -5.0575 -7.2475 -6.580501 -7.1035 -3.307 -7.723001 -7.723001 -3.0365 -5.238 -6.147 -4.8955 
-4.053 -7.745 -8.6085 -9.2015 -7.566501 -7.4175 -7.299 -7.1035 -8.813 -7.723001 -11.4421 -5.238 -8.919001 -6.147 
-7.8355 -8.785 -12.3893 -10.533 -7.665 -7.5115 -7.299 -8.8195 -8.813 -11.4421 -13.6436 -8.919001 -8.919001 
-8.796 -12.5928 -13.7208 -10.55 -7.763 -7.5115 -8.825001 -8.8195 -12.8661 -13.6436 -17.3246 -8.919001 
