-4.759 
n/a 
n/a 
n/a 
n/a 
-4.759 
n/a 
n/a 
n/a 
n/a 
-4.759 
n/a 
n/a 
n/a 
n/a 
-4.759 
n/a 
n/a 
n/a 
n/a 
-2.4265 -4.507 -1.4985 -6.171 -2.3335 -5.127 0 -5.508 0 -10.445 -5.1245 -4.678 -2.4945 -6.6595 -1.4985 -4.983 
-6.2875 -5.318 -7.05 -8.558001 -6.983001 -5.127 -5.508 -5.508 -10.445 -15.5695 -9.094501 -6.382501 -8.465 -7.735 -6.109 
-6.693 -10.0755 -9.295 -14.1145 -6.983001 -7.809501 -5.508 -17.1084 -15.5695 -19.5395 -11.1654 -13.0978 -9.255501 -12.7419 
-11.3445 -12.402 -14.7932 -14.2067 -9.378501 -7.809501 -17.1084 -22.2329 -19.5395 -21.6104 -17.8807 -13.8883 -14.6872 
-14.3622 -18.4612 -14.8216 -16.6436 -9.378501 -20.3591 -22.2329 -26.2029 -21.6104 -28.3257 -18.6712 -19.32 
-2.5045 -1.4985 -3.0835 -3.6765 -1.7565 -4.1985 -2.186 -5.463 -1.7565 -1.4985 -4.392 -3.4425 -1.756 -2.4265 -4.3245 -1.4985 -5.127 -1.756 -6.216 -1.756 -1.4985 -3.402 -1.7565 -1.4985 -4.3355 -1.756 -10.429 -5.1715 -9.116501 -1.756 -10.2055 -5.1245 -2.4265 -2.186 -1.4985 -4.983 -5.221 -1.4985 -3.602 0 
-3.583 -3.535 -5.29 -5.5875 -5.948501 -6.708 -6.731501 -9.089001 -2.4195 -5.0065 -7.861 -4.9015 -3.949 -7.381001 -5.431 -6.5045 -6.5575 -7.778 -7.6365 -3.0405 -7.325001 -7.0365 -2.4195 -5.199 -5.8165 -13.1936 -15.6005 -15.1244 -11.117 -12.9701 -15.9772 -8.062 -3.292 -3.339 -6.109 -9.383501 -6.2085 -4.593 -3.602 
-5.4425 -5.5235 -7.5375 -10.749 -7.798 -11.6049 -11.2331 -9.897 -6.06 -8.574 -9.302501 -6.869 -9.4785 -8.33 -9.757 -8.1095 -8.1645 -9.224501 -9.3675 -8.958 -8.983001 -7.632 -5.9315 -6.3065 -18.1883 -18.3651 -25.5534 -17.1249 -22.3311 -18.7418 -18.9147 -8.457001 -4.5995 -8.592 -10.1765 -9.811501 -9.122001 -4.593 
-7.764 -7.5695 -13.4742 -12.5985 -12.8617 -16.1065 -12.0411 -13.5375 -9.541 -9.7775 -11.282 -12.7265 -10.623 -12.9096 -11.4528 -9.6475 -9.651001 -10.265 -15.3236 -10.708 -9.3585 -11.3598 -6.922 -18.8333 -23.3598 -28.318 -27.5539 -28.339 -28.1028 -21.6793 -19.3097 -9.8655 -9.429 -12.9661 -10.7147 -12.7928 -9.122001 
-9.313001 -13.6244 -15.3237 -17.6622 -17.3633 -16.9145 -15.6816 -17.0185 -10.7843 -11.7668 -17.1395 -13.871 -15.2026 -14.6054 -12.9908 -11.2284 -10.7893 -16.2211 -17.0736 -11.0835 -13.0863 -12.3503 -19.6352 -24.0048 -33.3127 -30.3185 -38.768 -34.1107 -31.0403 -22.0743 -20.7182 -14.695 -14.3357 -13.5043 -13.696 -12.7928 
-3.213 -3.6505 -2.186 -12.16972 -1.934 -4.237 -6.546 -4.916 -1.7565 -5.127 0 -10.2505 0 -12.16972 0 -7.424 -10.0455 0 -3.9545 -2.985 -4.029 -5.7495 0 
-7.4895 -5.316 -15.56612 -14.10372 -6.2135 -10.447 -11.339 -6.371 -6.071001 -5.127 -10.2505 -10.2505 -12.16972 -12.16972 -7.424 -18.1273 -10.0455 -3.9545 -8.2225 -6.555 -10.6475 -5.7495 
-9.382 -19.30432 -17.50012 -18.38322 -12.9435 -14.888 -13.141 -11.5009 -6.071001 -16.4733 -10.2505 -22.42022 -12.16972 -19.59372 -18.1273 -18.1273 -14 -8.2225 -11.9959 -13.2605 -10.6475 
-23.46732 -21.23832 -21.77962 -25.11322 -17.3085 -17.369 -18.5677 -11.5009 -18.0257 -16.4733 -22.42022 -22.42022 -19.59372 -30.29702 -18.1273 -22.0818 -18.268 -11.9959 -18.7014 -13.2605 
-25.40132 -25.51782 -28.50962 -29.47822 -19.7895 -22.7957 -18.5677 -23.4556 -18.0257 -28.64302 -22.42022 -29.84422 -30.29702 -30.29702 -22.0818 -26.3498 -22.0414 -18.7014 -18.7014 
-2.5195 -3.6175 -4.6225 0 -3.1385 -2.229 -3.772 -3.4905 -5.0765 -3.892 -2.229 -4.237 -5.291 -3.974 0 -3.3255 -2.3615 -5.127 0 -5.508 0 -3.325 -5.0765 -3.892 0 -5.135 0 -7.5075 0 -5.8135 -5.1245 -4.942 -4.4565 -1.7695 -6.039001 -3.7075 -4.983 0 
-6.6405 -8.927 -4.6225 -3.1385 -4.6125 -5.663 -8.004001 -9.399501 -8.691501 -5.4595 -6.606 -9.5085 -9.609001 -3.974 -3.3255 -5.044001 -8.102 -5.127 -5.508 -5.508 -3.325 -8.772 -8.691501 -3.892 -5.135 -5.135 -7.5075 -7.5075 -5.8135 -6.1815 -10.1905 -9.4305 -4.9325 -8.2995 -10.634 -7.178 -4.983 
-12.5584 -8.927 -7.9905 -4.6125 -7.8535 -9.854501 -13.9292 -13.1209 -10.5188 -9.812 -12.2303 -13.8551 -9.609001 -6.903 -5.044001 -11.1685 -8.102 -7.809501 -5.508 -8.707001 -8.772 -12.7174 -8.691501 -8.874001 -5.135 -10.5135 -7.5075 -10.907 -6.1815 -12.1137 -14.679 -9.476001 -12.0361 -13.0985 -14.9029 -7.178 
-12.5584 -12.8004 -9.023001 -7.8535 -12.2934 -15.9265 -17.6506 -14.9482 -14.8713 -15.6779 -16.5769 -13.8551 -12.563 -8.418501 -11.1685 -11.1685 -9.084001 -7.809501 -8.707001 -14.4734 -12.7174 -12.7174 -13.9333 -8.874001 -10.5135 -10.5135 -10.907 -11.275 -12.1137 -16.6022 -14.7245 -16.6074 -16.8351 -17.3674 -14.9029 
-16.4318 -13.8329 -12.7188 -12.2934 -18.3654 -19.6479 -19.4779 -19.3007 -20.7372 -20.0245 -16.5769 -16.8091 -14.0785 -15.3874 -11.1685 -12.1505 -9.084001 -11.9577 -14.4734 -18.4188 -12.7174 -17.9592 -13.9333 -14.5811 -10.5135 -13.913 -11.275 -17.2072 -16.6022 -16.6477 -21.8559 -21.4064 -21.104 -17.3674 
