-4.759 
n/a 
n/a 
n/a 
n/a 
-4.759 
n/a 
n/a 
n/a 
n/a 
-4.759 
n/a 
n/a 
n/a 
n/a 
-4.759 
n/a 
n/a 
n/a 
n/a 
-1.934 -1.4985 -3.158 -1.7565 -3.3635 -1.8085 -3.7955 -4.25 -1.4985 -3.5125 -1.7565 -7.5605 -2.186 -4.0925 0 
-2.6125 -4.178 -4.71 -5.5755 -5.679501 -5.1665 -7.3995 -5.251 -4.7015 -4.312 -9.578 -10.329 -5.4975 -4.0925 
-5.265 -5.562 -7.794001 -7.4635 -9.3655 -8.2045 -8.075001 -8.0665 -4.846 -12.6757 -12.3465 -13.6405 -5.4975 
-6.3135 -8.248 -9.795501 -11.3875 -12.5469 -8.742001 -10.6595 -8.14 -13.6123 -15.4442 -15.658 -13.6405 
-8.713501 -10.3815 -13.8023 -14.5689 -13.0844 -11.4091 -10.7245 -17.1123 -16.3808 -18.7557 -15.658 
-1.8085 -3.8195 -2.7415 -3.793 -1.934 -3.3635 -1.934 -1.4985 -3.098 -1.7565 0 -7.5605 0 -2.9705 -5.847 -3.091 -3.3435 -3.5125 0 
-5.3355 -5.97 -5.337501 -4.752 -4.921 -5.687 -2.6125 -4.3095 -4.3615 -1.7565 -7.5605 -7.5605 -2.9705 -7.917001 -7.915 -5.029 -6.0675 -3.5125 
-7.914001 -9.2445 -5.761 -7.1065 -6.585501 -6.514 -5.285501 -4.5915 -4.3615 -9.578 -7.5605 -11.367 -7.917001 -10.1465 -9.75 -8.356501 -6.0675 
-11.4153 -9.6575 -7.776 -8.2185 -7.398001 -9.032001 -5.3625 -4.5915 -12.8314 -9.578 -11.367 -16.3135 -10.1465 -11.9815 -13.2063 -8.356501 
-11.8283 -11.7223 -9.149501 -8.885501 -10.203 -9.042001 -5.3625 -13.3242 -12.8314 -13.3845 -16.3135 -18.543 -11.9815 -15.4378 -13.2063 
-1.8085 -3.8195 -2.7415 -3.793 -1.934 -3.3635 -1.934 -1.4985 -3.098 -1.7565 0 -7.5605 0 -2.9705 -5.847 -3.091 -3.3435 -3.5125 0 
-5.3355 -5.97 -5.337501 -4.752 -4.921 -5.687 -2.6125 -4.3095 -4.3615 -1.7565 -7.5605 -7.5605 -2.9705 -7.917001 -7.915 -5.029 -6.0675 -3.5125 
-7.914001 -9.2445 -5.761 -7.1065 -6.585501 -6.514 -5.285501 -4.5915 -4.3615 -9.578 -7.5605 -11.367 -7.917001 -10.1465 -9.75 -8.356501 -6.0675 
-11.4153 -9.6575 -7.776 -8.2185 -7.398001 -9.032001 -5.3625 -4.5915 -12.8314 -9.578 -11.367 -16.3135 -10.1465 -11.9815 -13.2063 -8.356501 
-11.8283 -11.7223 -9.149501 -8.885501 -10.203 -9.042001 -5.3625 -13.3242 -12.8314 -13.3845 -16.3135 -18.543 -11.9815 -15.4378 -13.2063 
-2.5045 -3.3635 0 -1.4985 -3.8195 -3.6915 -1.934 -1.4985 -3.098 -1.7565 -7.5605 -2.9705 -2.186 -1.4985 -3.5125 -1.7565 -8.445001 
-6.83 -3.3635 -1.4985 -4.771 -7.265 -5.7075 -2.6125 -4.3095 -4.3615 -9.578 -11.367 -3.89 -3.339 -4.7015 -4.312 -10.2485 
-6.83 -5.0395 -4.771 -8.4935 -9.038 -6.363 -5.285501 -4.5915 -12.8314 -13.3845 -12.2865 -5.027 -6.656 -4.846 -13.3462 
-9.217501 -8.311001 -8.4935 -9.910501 -9.870001 -9.251 -5.3625 -13.3242 -16.6379 -14.304 -13.4235 -8.884501 -6.757 -14.2828 
-12.563 -12.3287 -9.910501 -10.692 -12.8146 -9.264501 -14.2628 -17.1307 -17.5574 -15.441 -17.281 -8.97 -16.4284 
