-4.759 
n/a 
n/a 
n/a 
n/a 
-4.759 
n/a 
n/a 
n/a 
n/a 
-4.759 
n/a 
n/a 
n/a 
n/a 
-4.759 
n/a 
n/a 
n/a 
n/a 
-4.278 -2.186 -1.8085 -3.781 -3.8015 -4.2115 -2.4265 -5.0545 -3.326 -3.794 0 -4.451 -7.485 0 -4.9095 0 0 -5.463 -3.509 0 -3.397 -3.594 0 -3.7545 -4.019 0 -4.1495 -3.9355 -4.3225 
-5.364 -3.164 -5.643 -7.9485 -8.3505 -6.8505 -6.7355 -9.6595 -7.115001 -3.794 -4.451 -12.9824 -7.485 -4.9095 -4.9095 0 -5.463 -9.786501 -3.509 -3.397 -6.151 -3.594 -3.7545 -6.972 -4.019 -4.1495 -7.304501 -7.817 
-5.389501 -6.784 -9.409 -12.9109 -11.3055 -12.1095 -12.0107 -13.5915 -7.115001 -9.5755 -12.9824 -12.9824 -12.9415 -4.9095 -4.9095 -5.463 -9.786501 -9.786501 -7.4065 -6.151 -6.151 -8.384001 -6.972 -6.972 -9.599501 -7.304501 -11.602 
-11.6093 -10.5745 -14.5146 -15.8659 -16.5645 -17.3847 -15.9427 -13.5915 -13.2149 -18.2493 -12.9824 -18.4389 -12.9415 -4.9095 -11.136 -9.786501 -9.786501 -13.7688 -9.616 -6.151 -10.543 -11.8811 -6.972 -13.0849 -12.8997 -11.602 
-15.3998 -15.6801 -17.4696 -21.1249 -21.8397 -21.3167 -15.9427 -19.6914 -21.8887 -18.2493 -18.4389 -18.4389 -12.9415 -11.136 -15.4595 -9.786501 -13.7688 -15.9783 -9.616 -10.543 -14.0401 -11.8811 -13.0849 -16.3851 -17.1972 
-4.278 -3.781 -3.2 -2.229 -3.254 0 -3.4605 -3.4635 -3.326 -3.711 0 -4.9095 0 -5.463 0 -3.594 0 -3.7545 -3.9105 0 -4.3225 
-9.166 -6.188 -5.4225 -5.408 -3.254 -3.4605 -6.517 -6.1105 -6.1815 -3.711 -4.9095 -4.9095 -5.463 -5.463 -3.594 -3.594 -3.7545 -6.0785 -3.9105 -4.3225 
-11.8174 -8.8955 -8.712501 -5.408 -7.179501 -6.517 -10.1035 -10.2865 -6.1815 -7.883 -4.9095 -11.136 -5.463 -8.581 -3.594 -8.384001 -6.0785 -6.0785 -9.669001 
-14.5249 -12.2865 -8.712501 -8.893001 -10.485 -10.1035 -14.2795 -10.2865 -10.8407 -7.883 -11.136 -11.136 -8.581 -8.581 -8.384001 -10.0415 -6.0785 -12.3808 
-17.9159 -12.2865 -12.9521 -12.6359 -14.0715 -14.2795 -14.2795 -14.9457 -10.8407 -14.5911 -11.136 -14.254 -8.581 -13.6696 -10.0415 -10.0415 -12.3808 
-1.934 -4.278 -3.6645 -3.7855 -3.254 -3.4605 -3.326 -3.711 0 -4.9095 0 -4.3285 -3.8625 0 -3.5825 -3.594 0 -3.7545 -1.756 -3.9105 0 -4.5345 -3.9355 -3.308 0 
-6.2645 -9.327001 -8.3925 -6.561501 -7.179501 -7.2515 -6.1815 -3.711 -4.9095 -4.9095 -4.3285 -7.9215 -3.8625 -3.5825 -7.509501 -3.594 -3.7545 -5.274 -5.502501 -3.9105 -4.5345 -7.659 -7.573501 -3.308 
-12.0517 -14.2272 -11.4041 -10.396 -11.5403 -10.6876 -6.1815 -7.883 -4.9095 -9.0145 -7.9215 -7.9215 -7.4065 -7.509501 -7.509501 -8.384001 -5.274 -5.8195 -5.502501 -9.765501 -7.659 -11.8798 -7.573501 
-16.9519 -17.2388 -15.2386 -15.0092 -14.9764 -10.6876 -10.8407 -7.883 -9.0145 -13.1893 -7.9215 -11.7007 -9.164001 -7.509501 -13.0675 -9.621 -5.8195 -5.8195 -12.0899 -12.89 -11.8798 -11.8798 
-19.9635 -21.0733 -19.8518 -18.4453 -14.9764 -15.3468 -10.8407 -12.4696 -13.1893 -13.1893 -11.7007 -13.4582 -9.164001 -13.0675 -14.3045 -9.6835 -5.8195 -12.7425 -15.2144 -17.1108 -11.8798 
-4.49 -2.0935 -3.781 -4.278 -3.8875 -3.4605 0 -4.9095 0 -3.9075 -3.8625 0 -3.5825 -3.594 0 -3.6175 -1.756 -3.9105 0 -4.4195 
-6.4735 -5.412 -8.885 -10.0445 -8.665001 -3.4605 -4.9095 -4.9095 -3.9075 -8.1455 -3.8625 -3.5825 -7.509501 -3.594 -3.6175 -4.811 -5.502501 -3.9105 -4.4195 
-10.4185 -10.4595 -14.9237 -14.822 -8.665001 -9.1565 -4.9095 -8.6255 -8.1455 -8.1455 -7.4065 -7.509501 -7.509501 -7.900001 -4.811 -7.3235 -5.502501 -9.512501 
-15.7194 -16.4982 -19.7012 -14.822 -14.7132 -9.1565 -8.6255 -12.9821 -8.1455 -12.0989 -9.164001 -7.509501 -12.5835 -8.5795 -7.3235 -7.3235 -11.8369 
-21.7581 -21.2757 -19.7012 -20.8702 -14.7132 -13.1847 -12.9821 -12.9821 -12.0989 -13.8564 -9.164001 -12.5835 -13.263 -12.3886 -7.3235 -14.0141 
