-4.759 
n/a 
n/a 
n/a 
n/a 
-4.759 
n/a 
n/a 
n/a 
n/a 
-4.759 
n/a 
n/a 
n/a 
n/a 
-4.759 
n/a 
n/a 
n/a 
n/a 
-1.934 -7.102 -4.4245 -4.474 -2.229 -6.016 -3.6505 -2.7415 -1.4985 -3.0835 -2.871 0 
-8.3865 -12.1733 -8.990499 -6.085 -7.7115 -9.416 -5.932 -4.063 -3.535 -5.3085 -2.871 
-13.775 -16.7393 -10.7939 -12.4067 -11.5759 -12.1979 -7.5625 -5.12 -5.406 -5.3085 
-18.341 -18.5427 -17.1156 -16.2711 -14.3578 -13.8284 -8.884501 -6.8535 -5.406 
-20.1444 -24.8644 -20.98 -19.053 -15.9883 -15.1504 -10.725 -6.8535 
-1.934 -3.1495 -4.474 -6.8125 -3.193 -2.186 -1.4985 -3.0835 -3.845 -1.934 -4.4245 
-4.5395 -7.8575 -12.6193 -7.796 -5.2605 -3.339 -3.535 -7.6295 -5.878 -5.6155 
-10.1265 -16.9488 -13.6028 -9.43 -6.566 -4.8925 -8.0205 -10.1895 -9.659 
-19.3382 -17.9323 -15.2368 -10.1395 -8.013 -9.519501 -10.7733 -14.0127 
-20.3217 -19.5663 -15.9463 -12.5187 -13.1534 -12.2665 -14.5965 
-3.1495 -4.4245 -4.184 -3.158 -4.474 -6.8125 -3.193 -4.1665 -1.7565 -3.0835 -2.871 0 
-9.462001 -9.054001 -6.6165 -7.877501 -12.6193 -7.796 -7.7005 -5.517 -5.237 -5.3085 -2.871 
-14.1737 -11.6755 -11.6672 -16.432 -13.6028 -12.6385 -8.922 -9.1525 -8.4095 -5.3085 
-16.7952 -16.7262 -20.2217 -17.4155 -18.4453 -13.86 -12.5981 -12.6424 -8.4095 
-21.8459 -25.2807 -21.2052 -22.258 -19.6668 -17.5361 -16.088 -12.6424 
-1.934 -3.1495 -12.16972 -6.8125 -3.193 -3.845 -2.186 -4.208 -3.5015 
-4.5395 -16.61442 -18.98222 -7.796 -7.389 -6.026501 -6.9875 -5.946 
-18.47902 -23.42692 -19.96572 -12.327 -9.312 -11.5334 -9.025001 
-25.29152 -24.41042 -24.49672 -14.25 -14.9321 -13.5709 
-26.27502 -28.94142 -26.41972 -19.8701 -16.9696 
