-4.759 
n/a 
n/a 
n/a 
n/a 
-4.759 
n/a 
n/a 
n/a 
n/a 
-4.759 
n/a 
n/a 
n/a 
n/a 
-4.759 
n/a 
n/a 
n/a 
n/a 
-4.977 -3.6605 -4.7425 -3.4635 -3.6175 -1.756 -5.2785 
-8.4355 -4.8735 -8.036 -5.837 -4.811 -6.314 
-9.403001 -8.085501 -10.6697 -7.116 -8.281 
-12.8266 -10.7604 -11.9487 -11.0134 
-15.5015 -12.0394 -15.8461 
-4.977 -2.229 -3.6605 -4.7425 -3.4635 -3.7545 -1.756 -5.2785 
-6.4415 -5.4945 -4.8735 -8.036 -6.620501 -5.274 -6.314 
-9.159 -7.0535 -8.085501 -11.4532 -7.9265 -10.007 
-10.61 -10.0775 -11.5439 -12.7592 -13.3881 
-13.634 -13.8023 -12.8499 -18.2208 
-4.977 -2.229 -3.4635 -3.7545 -4.019 -1.7565 -1.4985 -3.995 -4.593 
-6.4415 -6.2685 -6.620501 -6.972 -6.8555 -2.4195 -4.712 -8.961 
-11.601 -9.715501 -9.880501 -10.0065 -7.5115 -5.2205 -9.271501 
-15.048 -13.3029 -12.915 -10.6625 -10.6899 -10.007 
-18.6354 -16.3374 -13.571 -13.8409 -15.4764 
-3.6175 -1.756 -4.019 -3.4635 -1.7695 -3.995 -3.8255 -5.094 -2.925 -2.3345 -4.977 
-4.811 -5.298 -7.370501 -4.2045 -5.497 -8.127 -8.073501 -6.768001 -4.9745 -6.912001 
-5.401 -7.7355 -7.6565 -8.0755 -9.422001 -12.8296 -8.8765 -8.38 -10.316 
-7.7555 -7.8095 -11.8689 -12.5099 -14.4424 -13.6326 -10.564 -13.9851 
-7.822 -12.1683 -16.3033 -17.5303 -15.2454 -15.3201 -16.1691 
