-4.759 
n/a 
n/a 
n/a 
n/a 
-4.759 
n/a 
n/a 
n/a 
n/a 
-4.759 
n/a 
n/a 
n/a 
n/a 
-4.759 
n/a 
n/a 
n/a 
n/a 
-3.2615 -1.4985 -3.956 -1.7565 -12.16972 -1.934 -5.23 0 -3.2615 -4.8655 -3.277 0 -10.526 0 -3.0695 -2.186 -1.4985 -3.6115 -4.2245 -1.7565 -7.359 -9.228001 0 -4.3195 -1.4985 -3.9725 0 -5.5025 0 
-4.032 -4.8985 -4.932 -14.87542 -14.10372 -7.8695 -5.23 -3.2615 -7.214 -6.113 -3.277 -10.526 -10.526 -3.0695 -4.2675 -3.339 -4.081 -6.644 -4.942 -8.974501 -17.2158 -9.228001 -4.3195 -5.1515 -4.88 -3.9725 -5.5025 -5.5025 
-6.1535 -5.16 -18.91912 -16.80942 -20.03922 -7.8695 -9.4505 -7.214 -7.661 -6.113 -14.8792 -10.526 -14.0857 -4.2675 -5.455 -5.563 -7.239 -7.1965 -12.9816 -19.1919 -17.2158 -13.7453 -5.1515 -7.9445 -4.88 -8.632 -5.5025 
-6.1865 -19.37352 -20.85312 -22.74492 -20.03922 -12.6966 -13.446 -7.661 -7.661 -18.166 -14.8792 -14.0857 -15.2837 -5.455 -8.2205 -8.467501 -7.4315 -15.5887 -23.199 -19.1919 -21.7331 -14.5773 -7.9445 -7.9445 -9.779 -8.632 
-20.73582 -21.30752 -26.78862 -22.74492 -24.86632 -16.6921 -13.893 -7.661 -20.3624 -18.166 -18.4389 -15.2837 -16.4712 -8.2205 -9.978001 -8.574 -15.8381 -25.8061 -23.199 -23.7092 -22.5651 -17.3703 -7.9445 -13.5533 -9.779 
-3.2615 -2.846 -3.277 -1.934 -5.23 -8.035001 -4.2245 -1.7565 -7.359 -8.164001 -4.3195 -1.4985 -3.9725 -3.2615 -1.4985 -3.956 -1.7565 -8.8575 -8.164001 0 
-6.1825 -5.3175 -4.8125 -7.8695 -13.915 -13.1171 -4.942 -8.974501 -16.1518 -13.0071 -5.1515 -4.88 -7.3585 -4.032 -4.8985 -4.932 -11.117 -17.6675 -8.164001 
-6.9835 -6.7155 -11.5062 -17.1611 -18.9971 -13.8346 -12.9816 -18.1279 -20.9949 -13.8391 -7.9445 -7.948 -8.133 -6.1535 -5.16 -15.1607 -19.927 -17.6675 
-7.962501 -13.7364 -20.7978 -22.2432 -19.7146 -21.8742 -22.135 -22.971 -21.8269 -16.6321 -10.0475 -8.7635 -9.018001 -6.1865 -15.6151 -23.9707 -19.927 
-15.234 -23.028 -25.8799 -22.9607 -27.7542 -31.0276 -26.9781 -23.803 -24.6199 -18.7351 -10.9524 -9.838 -9.025001 -16.9774 -24.4251 -23.9707 
-3.2615 -2.846 -3.277 -9.682501 -8.164001 -2.7415 -4.424 0 -1.934 -11.1725 0 -3.6115 -1.7565 -7.359 -8.164001 0 -8.3365 -8.164001 -2.7415 -4.3195 -1.4985 -3.9725 0 
-6.1825 -5.3175 -14.0357 -18.1137 -10.5645 -8.262 -4.424 -1.934 -14.5709 -11.6305 -3.6115 -5.8005 -8.974501 -16.1518 -8.164001 -8.3365 -9.855 -10.5645 -8.178 -5.1515 -4.88 -3.9725 
-6.9835 -16.4812 -22.4669 -20.5142 -16.085 -8.262 -5.195 -14.5709 -14.5709 -15.9205 -5.8005 -14.0255 -18.1279 -16.1518 -17.0241 -9.855 -12.3623 -16.001 -9.0975 -7.9445 -4.88 
-18.7642 -24.9124 -24.8674 -26.0347 -16.085 -9.086 -18.8091 -14.5709 -18.8609 -18.615 -14.0255 -23.1789 -18.1279 -25.0119 -18.5426 -12.3623 -17.7988 -16.9205 -11.8981 -7.9445 
-27.1954 -27.3129 -30.3879 -26.0347 -16.909 -22.8219 -18.8091 -18.8609 -21.5554 -27.191 -23.1789 -23.1789 -26.988 -26.5304 -21.0499 -17.7988 -18.7183 -19.7211 -11.8981 
-3.2615 -2.846 -3.277 -5.23 -1.934 -8.8575 -8.164001 -3.2615 -3.956 -3.0465 -3.275 -1.7565 -8.726501 -8.164001 -3.6115 -4.2245 -8.035001 -3.9725 0 
-6.1825 -5.3175 -9.171 -7.9475 -10.66 -17.6675 -11.9491 -6.0445 -7.6055 -6.534 -5.893 -10.209 -17.2005 -12.2991 -6.644 -13.0603 -12.8651 -3.9725 
-6.9835 -11.6165 -11.9087 -16.9703 -19.9212 -21.4526 -14.7321 -9.856501 -11.8174 -10.0185 -14.9913 -18.683 -21.3356 -15.3316 -15.926 -17.8904 -12.8651 
-13.8995 -14.3542 -20.9315 -26.2315 -23.7063 -24.2356 -18.5441 -14.0684 -15.3019 -19.2734 -23.4653 -22.8181 -24.3681 -24.6136 -20.7561 -17.8904 
-16.6372 -23.377 -30.1927 -30.0166 -26.4893 -28.0476 -22.756 -17.5529 -24.5568 -27.7474 -27.6004 -25.8506 -33.6501 -29.4437 -20.7561 
