-4.759 
n/a 
n/a 
n/a 
n/a 
-4.759 
n/a 
n/a 
n/a 
n/a 
-4.759 
n/a 
n/a 
n/a 
n/a 
-4.759 
n/a 
n/a 
n/a 
n/a 
-10.0655 0 -9.8175 -1.756 -3.135 -4.7275 -3.2785 0 
-10.0655 -9.8175 -11.9303 -4.5755 -7.440001 -8.621501 -3.2785 
-20.069 -11.9303 -14.7498 -8.852 -11.839 -8.621501 
-22.1818 -14.7498 -19.0263 -13.3102 -11.839 
-25.0013 -19.0263 -23.4845 -13.3102 
-9.156 0 -7.2965 -2.229 -5.6405 -2.4945 -3.074 -3.2785 
-9.156 -7.2965 -8.743 -6.406 -7.304 -4.4205 -7.697001 
-16.7319 -8.743 -13.4226 -8.372 -9.326 -9.486 
-18.1784 -13.4226 -15.3886 -10.243 -14.4375 
-22.858 -15.3886 -17.2596 -15.3545 
-1.4985 -4.9405 -2.4945 -9.156 0 -7.2965 0 -3.843 0 
-6.1425 -8.121 -13.0787 -9.156 -7.2965 -7.2965 -3.843 -3.843 
-8.955 -19.0122 -13.0787 -16.7319 -7.2965 -10.784 -3.843 
-20.137 -19.0122 -20.6546 -16.7319 -10.784 -10.784 
-20.137 -26.5881 -20.6546 -20.2194 -10.784 
-1.4985 -5.6635 -10.638 -1.756 -9.1415 0 -1.756 -3.2785 0 
-7.166 -17.3593 -12.7022 -11.9061 -9.1415 -1.756 -5.3975 -3.2785 
-19.4438 -19.4235 -22.8523 -11.9061 -10.8625 -5.3975 -5.3975 
-21.508 -29.5736 -22.8523 -13.6271 -14.504 -5.3975 
-31.6581 -29.5736 -24.5733 -17.2686 -14.504 
