-4.759 
n/a 
n/a 
n/a 
n/a 
-4.759 
n/a 
n/a 
n/a 
n/a 
-4.759 
n/a 
n/a 
n/a 
n/a 
-4.759 
n/a 
n/a 
n/a 
n/a 
-8.446 -3.319 -1.7565 -4.1395 -2.186 -3.2955 -1.934 -7.641 
-12.38 -4.165 -5.72 -6.856 -4.348001 -4.2285 -10.0925 
-13.226 -8.400001 -7.8085 -8.7815 -5.3545 -12.8974 
-17.461 -10.9819 -9.93 -10.209 -14.2988 
-20.0429 -13.1034 -10.692 -19.1765 
-1.4985 -4.0245 -3.7865 -3.2955 -1.934 -1.4985 -4.7885 -3.9965 -1.7565 -7.641 -5.0075 -1.7695 0 -8.446 0 -3.6885 0 
-5.1005 -8.1565 -8.3555 -4.2285 -2.6125 -5.282001 -6.823501 -5.462 -9.287001 -13.2105 -5.113 -1.7695 -8.446 -8.446 -3.6885 -3.6885 
-9.998 -13.7053 -9.1225 -4.839 -6.3055 -7.1165 -7.4055 -13.8511 -14.9471 -13.316 -5.113 -11.08 -8.446 -12.7495 -3.6885 
-15.6016 -14.4723 -9.7925 -8.460501 -8.322001 -7.552001 -16.6222 -19.5112 -15.0526 -13.316 -14.8403 -11.08 -12.7495 -12.7495 
-16.3686 -15.1423 -13.4622 -10.901 -8.756001 -16.9327 -22.2823 -19.6167 -15.0526 -23.0433 -14.8403 -15.3835 -12.7495 
-1.4985 -6.568 -4.8345 -3.2955 -1.934 -7.641 -5.0075 -1.7695 -1.4985 -3.717 -5.4365 0 
-7.974501 -9.439 -8.7465 -4.2285 -10.0925 -13.2105 -5.113 -2.7955 -5.2815 -10.0225 -5.4365 
-11.2965 -13.8232 -9.500501 -12.8974 -15.662 -13.316 -5.7335 -6.515 -12.2796 -10.0225 
-15.6807 -14.5772 -18.1966 -18.4669 -15.7675 -13.9365 -8.014501 -13.8689 -12.2796 
-16.4347 -23.2733 -23.7661 -18.5724 -16.388 -16.2175 -16 -13.8689 
-1.4985 -4.1395 -3.2955 -1.934 -5.7105 -5.9185 -2.4945 -1.7565 -9.3105 -3.319 -1.7565 -4.1395 
-5.2875 -7.5505 -4.2285 -8.05 -6.078 -8.788501 -5.101 -12.0162 -12.7825 -4.165 -5.72 
-8.212001 -7.9855 -10.434 -8.6385 -8.972501 -11.615 -16.3327 -15.4882 -13.6285 -8.400001 
-8.567 -14.5914 -10.4985 -11.79 -11.8818 -22.8467 -19.8047 -16.3342 -17.8635 
-15.6029 -14.6559 -13.65 -14.6993 -23.1135 -26.3187 -20.6507 -20.5692 
