-4.759 
n/a 
n/a 
n/a 
n/a 
-4.759 
n/a 
n/a 
n/a 
n/a 
-4.759 
n/a 
n/a 
n/a 
n/a 
-4.759 
n/a 
n/a 
n/a 
n/a 
-1.4985 -3.6065 -2.95 -3.8405 0 -2.8645 -3.6065 -3.9675 -1.934 -3.3435 0 
-4.8665 -6.1455 -5.133 -3.8405 -2.8645 -6.1805 -6.878 -5.608 -5.009501 -3.3435 
-7.625501 -7.4985 -5.133 -6.226 -6.1805 -9.706 -8.4445 -9.494 -5.009501 
-9.528001 -7.4985 -7.498 -9.752001 -9.706 -11.3535 -12.5603 -9.494 
-9.528001 -10.243 -10.7575 -13.5089 -11.3535 -15.4693 -12.5603 
-3.929 -2.4265 -4.101 -3.3255 -3.845 -1.7565 -3.6615 -3.5455 -3.6065 -3.8405 0 -3.1435 -4.519 -4.2215 -1.934 -4.4165 -4.628 -5.939 -3.9675 -2.229 -3.699 -3.9035 -3.115 -4.8525 0 -3.9885 0 -4.1545 -2.0935 -1.4985 -3.3975 -4.0925 0 -4.972 -1.934 -4.483 0 
-5.029 -5.6825 -5.5385 -8.0825 -4.13 -5.23 -6.3665 -6.9005 -7.445001 -3.8405 -3.1435 -7.488501 -9.0565 -5.563001 -5.5415 -9.892 -5.9615 -8.6765 -6.4655 -5.301 -6.5465 -6.951 -8.4835 -4.8525 -3.9885 -3.9885 -4.1545 -5.2635 -2.9725 -4.584001 -6.4905 -4.0925 -4.972 -6.3755 -6.528 -4.483 
-8.2355 -7.083 -9.961501 -8.934001 -6.8195 -8.189 -9.2465 -9.975 -7.445001 -7.459001 -7.488501 -12.3814 -11.0768 -9.691501 -11.8316 -10.3925 -8.6905 -11.4021 -10.1185 -10.0575 -9.061001 -12.4789 -8.4835 -11.046 -3.9885 -10.368 -5.2635 -5.853 -5.9285 -8.131001 -6.4905 -9.531 -6.3755 -7.1985 -6.528 
-9.3035 -11.6278 -10.0485 -10.2985 -8.939501 -11.3976 -12.3196 -9.975 -11.5275 -12.0324 -12.3814 -14.4017 -15.2053 -16.2586 -12.3321 -13.9727 -11.4169 -15.0551 -14.875 -12.572 -14.8845 -12.4789 -15.0184 -11.046 -10.368 -11.477 -5.853 -8.2905 -10.1385 -8.131001 -12.6732 -10.7585 -7.1985 -7.1985 
-14.0659 -11.7148 -11.413 -12.4185 -12.4551 -14.4707 -12.3196 -14.1755 -16.1009 -16.9253 -14.4017 -18.5302 -21.7724 -16.7591 -15.9123 -16.6991 -15.0699 -19.8116 -17.3895 -18.3955 -14.8845 -19.0138 -15.0184 -17.4255 -11.477 -12.0665 -8.2905 -12.8197 -10.1385 -14.9989 -13.9007 -11.5815 -7.1985 
-3.3715 -3.319 -1.7565 -4.763 -3.3715 -3.6615 -1.7565 -3.5795 0 -6.6585 -3.9675 -4.4525 0 -3.301 -4.53 -4.335 -1.756 -4.5735 -1.7695 -3.4865 0 
-7.602501 -4.165 -6.619501 -8.113 -6.038 -5.606 -6.993001 -3.5795 -6.6585 -11.0145 -8.6595 -4.4525 -3.301 -7.883 -7.3145 -5.863 -6.045 -6.0425 -5.74 -3.4865 
-7.992501 -9.8245 -10.0925 -10.9429 -6.487 -10.2925 -6.993001 -10.9872 -11.0145 -15.7065 -8.6595 -8.688001 -7.883 -9.285501 -8.9545 -10.9772 -7.545 -10.4265 -5.74 
-13.8316 -13.2975 -13.074 -11.3919 -12.8897 -10.2925 -14.8797 -15.3432 -15.7065 -15.7065 -13.372 -13.4138 -9.285501 -11.2091 -14.1163 -12.4772 -12.1266 -10.4265 
-17.3046 -16.279 -13.523 -17.7946 -12.8897 -18.1792 -19.2357 -20.0352 -15.7065 -20.419 -18.0978 -14.8163 -11.2091 -16.3709 -15.6163 -17.0588 -12.1266 
-4.013 -5.339 -1.7695 -3.948 -3.6615 -4.4985 -3.893 -1.4985 -4.287 -4.644 -2.3335 -1.4985 -3.535 -4.4445 -1.7565 -4.628 -5.939 -3.9675 -3.115 -5.1375 -4.769 -4.1545 -2.0935 -3.3975 -4.0925 -1.756 -4.972 -1.934 -5.7795 -2.4945 -3.5725 -5.461 -5.32 -2.186 -3.1435 -4.043 -3.913 
-9.175501 -5.388 -5.414001 -6.769 -7.136001 -5.606 -4.573 -5.4565 -9.103001 -6.74 -3.3515 -4.255 -7.002501 -4.5845 -6.107501 -5.9615 -8.6765 -7.2365 -8.2255 -10.127 -9.067 -5.2635 -5.4985 -6.4905 -5.4815 -6.391 -6.3755 -8.117001 -8.356501 -4.6825 -8.138 -10.533 -8.691501 -5.462 -5.99 -6.5445 
-9.203501 -7.7045 -8.38 -10.7025 -8.362 -5.874001 -8.6155 -10.0125 -11.373 -8.021 -6.182 -7.318501 -7.2315 -9.095501 -7.357501 -8.6905 -12.1731 -12.5942 -13.3784 -14.834 -9.7945 -8.0745 -8.9545 -7.765 -9.701501 -7.54 -13.2267 -9.943001 -10.513 -9.278501 -13.5844 -13.9045 -12.1811 -7.854501 -8.4895 
-11.5998 -10.223 -12.7539 -11.9285 -8.6525 -9.786 -13.2131 -12.5085 -12.654 -11.0741 -9.601501 -7.447001 -11.9825 -9.717501 -9.466001 -12.1879 -17.5308 -17.7471 -18.0854 -15.5615 -12.8685 -12.2201 -10.068 -12.3162 -10.72 -14.6176 -15.0527 -12.2475 -15.109 -15.0975 -16.9559 -17.3941 -14.5736 -9.876 
-14.1183 -14.5969 -13.9799 -12.219 -12.6963 -14.4564 -15.7091 -13.7895 -15.7071 -14.4936 -9.7215 -12.2354 -12.6045 -10.3575 -12.9868 -17.5456 -22.6837 -22.4541 -18.8129 -18.6355 -17.0141 -13.3336 -14.6192 -13.3347 -17.7976 -16.4436 -17.3572 -16.8435 -20.928 -18.469 -20.4455 -19.7866 -16.5951 
