-4.759 
n/a 
n/a 
n/a 
n/a 
-4.759 
n/a 
n/a 
n/a 
n/a 
-4.759 
n/a 
n/a 
n/a 
n/a 
-4.759 
n/a 
n/a 
n/a 
n/a 
-4.7715 -2.4265 -2.186 -3.4635 -4.1335 -3.7095 -5.4075 -4.1695 
-6.2455 -3.292 -6.0705 -8.546 -7.9895 -10.019 -10.0285 
-7.0905 -7.831501 -11.9796 -12.6842 -15.0462 -14.8118 
-12.0292 -14.1628 -16.1178 -19.7409 -19.839 
-18.3605 -18.301 -23.1745 -24.5337 
-4.62 -2.8645 -1.8085 -4.7715 -3.8565 -4.002 0 
-7.1215 -3.9785 -5.8005 -8.659 -6.251 -4.002 
-7.684501 -7.785 -9.8125 -10.634 -6.251 
-11.7274 -12.4814 -11.8969 -10.634 
-16.4238 -14.5658 -11.8969 
-2.4265 -2.8645 -3.8225 -3.518 -3.8565 -3.2275 0 
-4.1435 -7.437 -7.531 -7.4985 -5.584 -3.2275 
-8.5365 -11.5869 -12.1119 -9.435 -5.584 
-12.8746 -16.1678 -14.0484 -9.435 
-17.4555 -18.1043 -14.0484 
-2.4265 -2.8645 -3.723 -3.8565 -3.7075 0 
-4.1435 -7.3835 -7.474 -8.150001 -3.7075 
-8.5015 -11.4001 -12.4083 -8.150001 
-12.6425 -16.3344 -12.4083 
-17.5768 -16.3344 
