-4.759 
n/a 
n/a 
n/a 
n/a 
-4.759 
n/a 
n/a 
n/a 
n/a 
-4.759 
n/a 
n/a 
n/a 
n/a 
-4.759 
n/a 
n/a 
n/a 
n/a 
-3.5195 -14.4095 -4.1205 -3.757 -6.421 -6.133 -2.7415 -4.493 -1.934 -4.803 -4.299 -1.934 -7.081 -6.5805 
-17.369 -19.091 -5.728 -9.492001 -6.555 -7.5175 -5.5985 -5.1865 -6.77 -6.564501 -5.88 -9.556001 -14.2233 
-22.7129 -20.6985 -10.316 -9.548 -7.978001 -8.2995 -6.158 -7.984 -7.782501 -6.989001 -14.164 -17.2687 
-24.3204 -25.2865 -10.3325 -10.7365 -8.943501 -8.636001 -10.6605 -8.528 -7.9445 -16.54 -21.8767 
-28.9084 -25.303 -11.521 -11.702 -9.402 -14.2001 -11.2045 -9 -18.8201 -24.2527 
-3.5195 -3.2815 0 -4.4935 -3.0755 -3.757 -12.16972 -5.3515 -1.7695 -6.639 -4.704 -1.934 -5.452 -2.0935 -4.803 -3.515 0 
-5.68 -3.2815 -4.4935 -8.504 -7.995001 -16.97372 -17.52122 -7.385 -8.354 -12.083 -7.409 -8.815001 -7.3465 -6.5525 -8.9615 -3.515 
-5.68 -8.146 -8.504 -13.9181 -21.59932 -22.32522 -19.55472 -14.3943 -14.1848 -14.788 -14.8138 -10.8719 -12.5163 -11.3252 -8.9615 
-10.389 -12.6359 -13.9181 -27.52242 -26.95082 -24.35872 -26.56402 -20.2251 -16.8898 -22.1928 -16.8707 -16.0417 -17.289 -11.3252 
-14.8789 -18.05 -27.52242 -32.87392 -28.98432 -31.36802 -32.39482 -22.9301 -24.2946 -24.2497 -22.0405 -20.8144 -17.289 
-3.5195 -7.775001 -2.229 -4.1205 -4.432 -4.328 -6.421 -6.133 -2.7415 -4.493 -1.934 -1.8085 -4.803 -4.299 -1.934 -6.639 
-10.5445 -9.495501 -5.7835 -6.354 -4.899 -7.387 -6.555 -7.5175 -5.5985 -5.1865 -3.2685 -6.0365 -6.564501 -5.88 -7.3765 
-11.772 -11.7995 -7.745501 -6.377 -7.388 -7.4 -7.978001 -8.2995 -6.158 -6.1955 -7.2245 -7.3675 -6.989001 -9.073501 
-14.0809 -12.1429 -7.7565 -7.629 -7.401 -8.7285 -8.943501 -8.636001 -6.6645 -7.751 -7.898 -8.120001 -9.638501 
-14.3859 -12.1479 -8.526 -7.6355 -8.7285 -9.5655 -9.402 -8.7325 -8.6485 -8.453 -8.488501 -9.92 
-3.5195 -3.2815 -4.4935 -2.229 -4.1205 -4.432 -4.328 -9.849501 -8.606 -4.493 -2.3345 -1.8085 -4.803 -4.299 -1.934 -6.639 0 
-5.68 -8.146 -5.843 -5.7835 -6.354 -4.899 -15.4747 -18.8825 -13.4986 -5.523 -3.8605 -6.0365 -6.564501 -5.88 -7.3765 -6.639 
-10.389 -9.529 -8.113501 -7.745501 -6.377 -16.7545 -24.5077 -23.7751 -14.5286 -6.354 -7.566 -7.3675 -6.989001 -9.073501 -7.3765 
-11.772 -11.8379 -8.418501 -7.7565 -19.0603 -25.7875 -29.4003 -24.8051 -15.3596 -8.2345 -9.257 -8.120001 -9.638501 -9.073501 
-14.0809 -12.1429 -8.4235 -20.5494 -28.0933 -30.6801 -30.4303 -25.6361 -17.2401 -10.1225 -9.8715 -9.92 -9.638501 
