-4.759 
n/a 
n/a 
n/a 
n/a 
-4.759 
n/a 
n/a 
n/a 
n/a 
-4.759 
n/a 
n/a 
n/a 
n/a 
-4.759 
n/a 
n/a 
n/a 
n/a 
-2.5045 -1.4985 -3.228 -5.804 -4.255 -4.153 -6.864 -3.966 -3.091 -4.255 -3.5015 -1.7565 -7.365 -1.7695 -1.4985 -9.041 0 
-3.1915 -3.9575 -8.682001 -8.539001 -6.9075 -9.5205 -11.6178 -5.7645 -6.803 -9.297501 -4.783 -8.3225 -9.8835 -2.7955 -11.6333 -9.041 
-5.681 -9.885501 -13.9235 -10.7275 -13.0242 -14.4563 -13.4163 -10.19 -13.0079 -9.701 -12.0464 -10.718 -10.9095 -13.1655 -11.6333 
-11.1695 -14.3733 -14.4338 -16.1129 -17.96 -16.2548 -17.8418 -16.7159 -13.4114 -17.6618 -14.4419 -11.744 -21.2795 -13.1655 
-16.2396 -15.087 -21.9337 -21.9307 -19.7585 -20.6803 -24.3677 -17.1194 -21.3722 -20.0573 -15.4679 -22.114 -21.2795 
-4.4175 -3.6115 -4.153 -5.5285 0 -9.23 -3.429 -7.365 -2.5045 -3.9515 
-8.324 -6.6045 -9.338501 -5.5285 -9.23 -12.846 -12.2302 -9.855 -6.5205 
-10.5325 -12.4934 -9.338501 -15.4535 -12.846 -21.6472 -14.7202 -13.9956 
-16.8192 -12.4934 -19.3659 -19.0695 -21.6472 -24.1372 -18.8608 
-16.8192 -22.5208 -22.9819 -27.8707 -24.1372 -28.2778 
-1.4985 -12.16972 -4.9385 -1.4985 -3.5015 -1.7565 -7.193 -1.4985 -3.535 -3.307 -1.7565 -7.4885 0 
-14.76202 -17.10822 -5.916501 -4.737 -4.783 -8.663501 -9.0065 -4.255 -7.432 -4.8035 -9.320001 -7.4885 
-19.70052 -18.08622 -9.239501 -5.5595 -12.3874 -9.767501 -12.0246 -7.8205 -8.152 -13.2782 -9.320001 
-20.67852 -21.40922 -10.2722 -13.2555 -13.4914 -12.9408 -15.5901 -8.2875 -16.7249 -13.2782 
-24.00152 -22.44192 -17.9682 -14.3595 -16.6647 -16.5063 -16.0571 -16.8868 -16.7249 
-3.0365 -2.186 -2.847 -4.4695 -4.0745 -3.858 -1.934 -6.933001 -4.245 -2.4285 -2.5195 -1.4985 -3.5455 -4.1865 -3.534 -2.0935 -3.2775 -2.664 -5.1495 0 
-3.66 -4.1045 -7.8215 -7.9615 -7.443 -5.4805 -8.7335 -8.585001 -6.5905 -5.113 -3.1695 -4.554 -6.670501 -8.5285 -4.7905 -4.911 -4.899 -6.5055 -5.1495 
-4.256001 -8.659 -8.9045 -11.5116 -8.703501 -12.7402 -9.3935 -11.1611 -8.544001 -5.755001 -5.8305 -7.757 -11.8557 -10.1385 -7.886001 -6.2395 -8.2875 -6.5055 
-8.67 -9.1055 -12.8852 -12.7721 -16.1844 -13.4002 -12.0814 -13.1146 -9.279501 -8.582001 -9.168 -13.1326 -13.4657 -13.234 -9.217001 -9.096001 -8.2875 
-9.1075 -13.3574 -14.1457 -20.253 -16.8444 -16.0881 -14.0349 -13.8501 -12.1397 -12.0883 -14.5684 -14.7426 -16.5612 -14.565 -12.2181 -9.096001 
