-4.759 
n/a 
n/a 
n/a 
n/a 
-4.759 
n/a 
n/a 
n/a 
n/a 
-4.759 
n/a 
n/a 
n/a 
n/a 
-4.759 
n/a 
n/a 
n/a 
n/a 
-3.135 -3.535 -3.853 -2.4945 -6.0695 0 
-5.962501 -7.823501 -5.8385 -8.182501 -6.0695 
-9.995001 -9.5485 -12.2377 -8.182501 
-11.72 -16.0623 -12.2377 
-18.2338 -16.0623 
-4.26 -3.135 -3.535 -3.815 -6.8525 
-6.6455 -5.962501 -7.213 -8.85 
-9.805 -9.5135 -12.757 
-13.8404 -15.2991 
-19.626 
-3.3715 -3.535 -3.853 -4.3845 
-6.0235 -7.823501 -8.223001 
-9.48 -12.6441 
-14.3956 
n/a 
-4.3845 -2.7455 -3.3715 -3.535 -3.853 
-5.9815 -6.3585 -6.0235 -7.823501 
-9.169001 -9.443001 -9.48 
-12.3629 -12.9119 
-15.8318 
