-4.759 
n/a 
n/a 
n/a 
n/a 
-4.759 
n/a 
n/a 
n/a 
n/a 
-4.759 
n/a 
n/a 
n/a 
n/a 
-4.759 
n/a 
n/a 
n/a 
n/a 
-7.532001 -4.4145 -2.95 -4.9295 
-10.814 -6.467 -8.656 
-13.0631 -12.8044 
-20.0549 
n/a 
-7.532001 0 -4.4145 -2.95 
-6.476501 -4.4145 -6.467 
-10.543 -6.467 
-13.7175 
n/a 
-7.532001 0 -4.4145 -2.95 -5.1605 
-6.476501 -4.4145 -6.467 -8.508 
-10.543 -6.467 -12.6564 
-13.7175 -12.6564 
-19.9069 
-7.532001 0 -2.9805 -4.3375 -7.5455 -2.95 0 
-6.476501 -2.9805 -5.565001 -13.2436 -9.2895 -2.95 
-8.911 -5.565001 -15.6775 -14.9876 -9.2895 
-9.956501 -15.6775 -17.4215 -14.9876 
-20.6674 -17.4215 -17.4215 
