-4.759 
n/a 
n/a 
n/a 
n/a 
-4.759 
n/a 
n/a 
n/a 
n/a 
-4.759 
n/a 
n/a 
n/a 
n/a 
-4.759 
n/a 
n/a 
n/a 
n/a 
-3.433 -1.7565 -2.3615 -6.864 -4.795 -4.101 -1.7695 -3.5455 0 
-4.1845 -3.523 -9.8125 -12.4468 -7.924 -4.6905 -5.643 -3.5455 
-5.5485 -11.4182 -15.6567 -15.5758 -8.7325 -7.8935 -5.643 
-13.5187 -17.2624 -18.7857 -16.3843 -12.1159 -7.8935 
-19.3629 -20.3914 -19.5942 -19.7677 -12.1159 
-3.433 -1.7565 -2.3615 0 -6.864 -4.348 -5.9045 -4.33 -3.5455 0 
-4.1845 -3.523 -2.3615 -6.864 -10.1855 -8.3925 -7.9175 -7.573501 -3.5455 
-5.5485 -3.523 -9.8125 -10.1855 -14.23 -10.0925 -11.329 -7.573501 
-5.5485 -11.4182 -13.3954 -14.23 -15.93 -13.8018 -11.329 
-13.5187 -15.0011 -17.4399 -15.93 -19.6393 -13.8018 
-3.851 -1.7695 -3.091 -4.031 -6.864 -2.229 -3.9665 -4.101 -1.7695 -4.319 -1.934 -3.5455 0 
-4.0015 -4.458 -6.92 -11.9238 -8.205501 -6.733 -8.149 -4.6905 -4.9595 -6.011 -4.8495 -3.5455 
-6.1325 -8.5465 -15.245 -13.2653 -13.5917 -10.361 -8.742001 -7.994 -6.602 -9.0115 -4.8495 
-10.65 -17.0421 -16.5865 -18.6515 -17.2197 -10.954 -12.2757 -8.602 -9.5845 -9.0115 
-19.1456 -18.3836 -21.9727 -22.2795 -17.8127 -14.4877 -12.8837 -12.0095 -9.5845 
-3.433 -1.7565 -2.3615 0 -6.864 -4.795 -4.101 -1.7695 -1.4985 -3.5455 
-4.1845 -3.523 -2.3615 -6.864 -12.4468 -7.924 -4.6905 -2.7955 -4.554 
-5.5485 -3.523 -9.8125 -12.4468 -15.5758 -8.7325 -5.3325 -5.5335 
-5.5485 -11.4182 -15.6567 -15.5758 -16.3843 -9.4895 -8.146501 
-13.5187 -17.2624 -18.7857 -16.3843 -17.1413 -12.3311 
