-4.759 
n/a 
n/a 
n/a 
n/a 
-4.759 
n/a 
n/a 
n/a 
n/a 
-4.759 
n/a 
n/a 
n/a 
n/a 
-4.759 
n/a 
n/a 
n/a 
n/a 
-1.4985 -3.2825 -4.052 -2.0935 -3.16 -3.5765 -4.413 -2.95 -2.186 -2.5045 -4.3535 
-3.712 -8.243 -5.6635 -5.238 -7.441 -8.482 -6.247 -4.817 -4.8175 -4.576 
-8.5035 -9.116501 -8.937 -9.8015 -12.5517 -10.411 -7.591001 -7.6325 -5.515501 
-9.262 -12.4886 -14.0837 -15.057 -14.4807 -11.755 -10.4855 -8.5655 
-12.6683 -17.6353 -19.3392 -16.986 -15.8247 -14.6495 -11.4185 
-3.2825 0 -3.4605 -5.259 -4.413 -2.95 -4.53 -3.3755 -3.6845 
-3.2825 -3.4605 -9.4375 -10.3475 -6.247 -8.3155 -10.287 -6.937 
-6.592501 -9.4375 -14.71 -12.4235 -12.2669 -14.5015 -13.8485 
-13.5167 -14.71 -16.786 -18.4434 -18.4529 -18.063 
-18.7892 -16.786 -22.8059 -24.6294 -22.0144 
-3.4865 0 -3.8385 -4.413 -2.95 -4.3705 -3.3755 -3.4635 
-3.4865 -3.8385 -8.6265 -6.247 -6.2715 -7.337 -7.587 
-7.5655 -8.6265 -9.328 -10.2229 -10.3294 -11.7135 
-13.0241 -9.328 -13.6107 -14.2808 -14.7059 
-13.7256 -13.6107 -17.6686 -18.6573 
-3.644 0 -3.432 -3.571 -3.6885 -4.413 -2.95 -1.7565 -3.723 -4.029 -4.3895 0 
-3.644 -3.432 -7.536 -6.1615 -8.9475 -6.247 -4.3785 -5.533 -7.505501 -9.005501 -4.3895 
-7.972 -7.536 -10.5159 -12.2109 -11.4121 -7.646 -8.9215 -9.0795 -12.844 -9.005501 
-12.6028 -10.5159 -16.5653 -14.6755 -12.8111 -12.8034 -12.5946 -14.769 -12.844 
-15.5827 -16.5653 -19.0299 -16.0745 -17.9685 -16.4765 -18.2841 -14.769 
