-4.759 
n/a 
n/a 
n/a 
n/a 
-4.759 
n/a 
n/a 
n/a 
n/a 
-4.759 
n/a 
n/a 
n/a 
n/a 
-4.759 
n/a 
n/a 
n/a 
n/a 
-2.0935 -4.5905 -4.593 -2.5045 -2.95 -1.7695 -2.9645 -4.834 -4.237 -4.2485 
-7.056 -9.938001 -7.183001 -5.375 -4.11 -3.812 -9.4005 -9.8785 -7.728 
-13.2767 -12.7258 -10.7595 -7.954 -6.726 -10.292 -14.7074 -13.5761 
-16.0645 -16.3023 -13.3385 -10.621 -13.5946 -15.5989 -18.405 
-19.641 -18.8813 -16.0055 -17.4896 -18.9015 -19.2965 
-3.034 -4.5905 -6.138 0 -5.8545 -4.2485 -2.186 -4.2815 -2.356 -3.6605 -3.784 -4.2485 
-9.092501 -8.649 -6.138 -5.8545 -11.16 -5.843 -6.0975 -4.868001 -5.9705 -6.7875 -6.329 
-13.3232 -8.649 -13.1933 -11.16 -12.7545 -9.097 -6.6115 -8.637001 -9.113501 -7.533501 
-13.3232 -15.7299 -18.4988 -12.7545 -16.0085 -9.562501 -10.4765 -10.523 -9.432501 
-20.4041 -21.0354 -20.0933 -16.0085 -16.474 -13.7247 -12.3625 -10.842 

n/a 
n/a 
n/a 
n/a 
-3.995 -1.7565 -4.1975 -2.0935 -4.2485 -1.7695 -3.188 -4.0005 -3.784 -1.7565 -4.079 0 
-6.804 -5.5295 -6.596001 -6.533 -6.2815 -5.663 -4.969501 -7.318501 -5.042 -5.819 -4.079 
-11.1198 -7.805501 -11.8153 -8.6745 -10.9278 -7.357 -8.951 -8.2115 -10.533 -5.819 
-13.3958 -13.204 -13.9568 -13.669 -12.6218 -11.4893 -9.861 -13.9665 -10.533 
-18.7943 -15.3455 -18.9513 -15.363 -16.7541 -12.3993 -15.616 -13.9665 
