-4.759 
n/a 
n/a 
n/a 
n/a 
-4.759 
n/a 
n/a 
n/a 
n/a 
-4.759 
n/a 
n/a 
n/a 
n/a 
-4.759 
n/a 
n/a 
n/a 
n/a 
-5.4425 -6.182 -2.8635 -4.2215 -1.934 -5.029 -2.5045 -3.502 -3.8735 -1.934 -1.8085 -4.23 -3.3975 
-10.802 -8.4995 -7.107 -4.885 -6.3695 -7.6575 -5.995501 -6.2275 -5.938 -3.2685 -5.4495 -6.992 
-13.1195 -13.3444 -8.0485 -8.049001 -8.287001 -10.7025 -9.7405 -8.062 -7.4045 -6.7415 -7.325 
-17.9644 -14.2859 -11.4027 -9.876 -11.5758 -14.4475 -11.575 -9.4525 -10.1425 -8.234 
-18.9059 -17.6401 -13.2297 -12.9692 -15.3208 -16.282 -12.9655 -12.3489 -12.184 
-5.4425 -6.5625 -2.7415 -4.2215 -1.934 -7.627 0 -3.502 -6.557 -1.934 -1.4985 -1.4985 -3.158 -1.7565 -5.029 -1.934 -7.85 -3.3975 0 
-7.282 -8.714001 -4.7885 -4.885 -9.084001 -7.627 -3.502 -9.1485 -8.4335 -2.6125 -4.935 -4.178 -4.71 -7.244 -7.0185 -9.814501 -10.6345 -3.3975 
-9.127 -10.214 -5.2365 -12.7854 -9.084001 -10.598 -9.1485 -11.1028 -9.3975 -6.1305 -8.079 -5.562 -9.401 -8.992001 -15.0654 -12.8056 -10.6345 
-10.5535 -10.5415 -13.2023 -12.7854 -12.2002 -16.9469 -11.1028 -12.0668 -13.0155 -9.160001 -8.9915 -9.901001 -11.2624 -17.1981 -18.0565 -12.8056 
-10.881 -18.5073 -13.2023 -15.9016 -18.5491 -18.9012 -12.0668 -15.6848 -16.045 -9.887501 -13.4965 -11.7624 -19.4685 -20.1892 -18.0565 
-8.6685 -2.7415 -4.2215 -1.934 -5.029 -2.5045 -3.502 -6.557 -7.627 -1.934 -1.8085 -4.23 -3.3975 
-11.046 -4.7885 -4.885 -6.3695 -7.6575 -5.995501 -9.1485 -10.784 -9.538501 -3.2685 -5.4495 -6.992 
-13.093 -5.2365 -8.049001 -8.287001 -10.7025 -12.201 -13.4533 -12.6955 -11.2714 -6.7415 -7.325 
-13.541 -8.34 -9.876 -11.5758 -16.908 -16.5058 -15.3648 -14.4284 -14.7444 -8.234 
-16.6445 -9.9665 -12.9692 -17.7813 -21.2128 -18.4173 -17.0977 -17.9014 -16.2369 
-5.4425 -6.5625 -2.186 -4.2215 -5.029 -1.934 -3.502 -6.557 -7.6325 -1.7695 -3.383 -4.23 -3.3975 0 
-7.282 -8.5115 -5.737 -7.903501 -7.0185 -4.8155 -9.1485 -10.8415 -9.468 -5.849 -5.819 -6.992 -3.3975 
-8.9595 -12.3167 -9.856501 -8.849501 -9.911 -10.0345 -13.5108 -12.677 -13.7481 -7.710501 -8.1455 -6.992 
-12.7827 -16.4362 -10.8025 -12.0092 -15.238 -14.3968 -15.3463 -16.9571 -15.6096 -9.795 -8.1455 
-16.9022 -17.3822 -13.9622 -17.3362 -19.6003 -16.2323 -19.6264 -18.8186 -17.6941 -9.795 
