-4.759 
n/a 
n/a 
n/a 
n/a 
-4.759 
n/a 
n/a 
n/a 
n/a 
-4.759 
n/a 
n/a 
n/a 
n/a 
-4.759 
n/a 
n/a 
n/a 
n/a 

n/a 
n/a 
n/a 
n/a 
-2.8965 -3.681 -3.917 -4.33 -1.4985 -3.498 0 
-5.023 -8.835501 -9.272 -4.900001 -4.0295 -3.498 
-9.980501 -14.4813 -9.477 -5.89 -4.0295 
-15.6263 -14.6863 -9.9805 -5.89 
-15.8313 -15.1898 -9.9805 
-3.45 -3.917 -1.7695 -1.4985 -3.826 
-6.9485 -5.5125 -2.7955 -4.4325 
-8.0135 -6.8675 -5.745 
-9.3995 -9.452001 
-12.0006 
-2.8965 -3.917 -2.0935 -3.826 
-6.789001 -5.367001 -5.7695 
-9.9805 -8.545 
-13.2629 
n/a 
