-4.759 
n/a 
n/a 
n/a 
n/a 
-4.759 
n/a 
n/a 
n/a 
n/a 
-4.759 
n/a 
n/a 
n/a 
n/a 
-4.759 
n/a 
n/a 
n/a 
n/a 
-3.5315 -3.0105 -4.1145 -4.474 -3.8905 -1.4985 -3.801 -3.802 -2.543 -1.756 -3.06 -3.8315 
-4.774 -7.982 -8.649 -9.238501 -5.052 -5.1485 -8.6945 -6.342 -4.873 -5.488 -5.1215 
-10.078 -13.0513 -13.7735 -10.0655 -9.144501 -9.9805 -11.8687 -8.904 -8.001 -6.827 
-15.4459 -18.1758 -14.6005 -14.3656 -14.3081 -13.8447 -14.4307 -12.2884 -10.228 
-20.5704 -19.0028 -18.9006 -19.5292 -18.1723 -16.4067 -17.8151 -14.5154 
-1.934 -3.5315 -3.0105 0 -4.278 -4.692 -4.4495 -1.4985 -3.818 -4.688 -2.9195 -2.5045 -4.8085 -2.0935 -2.543 -5.7215 -3.8315 -1.934 -4.474 -3.801 
-5.027 -4.774 -3.0105 -4.278 -10.298 -10.164 -6.382 -5 -8.2305 -8.279 -5.7175 -7.6765 -7.236 -5.2395 -7.926001 -8.8555 -5.7185 -7.043 -5.7825 
-6.373 -4.774 -7.825001 -10.298 -15.77 -10.4265 -9.433001 -9.46 -12.1419 -11.4166 -11.8653 -10.5645 -10.8606 -11.4679 -11.1354 -10.76 -10.287 -8.4585 
-6.373 -9.2535 -14.165 -15.77 -16.0325 -14.3525 -14.4158 -13.5336 -15.2795 -17.5644 -14.7533 -14.1891 -17.089 -14.6773 -13.0399 -15.3285 -11.9905 
-10.0405 -15.9651 -19.637 -16.0325 -19.9585 -19.3353 -18.4894 -16.6712 -21.4273 -20.4524 -18.3779 -20.4175 -20.2984 -16.5818 -17.6084 -17.032 
-2.264 -3.5315 -3.0105 0 -4.278 -4.4495 -3.7825 -3.06 -3.8315 -4.8085 -2.5195 -4.474 -3.801 
-4.8735 -4.774 -3.0105 -4.278 -10.223 -8.602501 -7.6215 -5.1215 -8.208 -7.313001 -6.59 -5.7825 
-8.3015 -4.774 -7.825001 -10.223 -14.376 -10.7575 -9.721001 -9.484 -10.27 -9.755001 -7.443501 
-8.3015 -9.2535 -14.09 -14.376 -16.531 -14.0732 -14.1379 -11.532 -12.712 -10.6699 
-12.7696 -15.8901 -18.243 -16.531 -19.8467 -18.4901 -16.1859 -13.974 -13.6269 
-1.934 -3.5315 -3.0105 0 -4.278 -6.466 -1.8085 -3.399 -4.8085 -5.038 -3.8195 -2.356 -3.3365 -4.6955 -1.934 -4.474 -2.0935 -4.869 -3.8315 0 
-5.027 -4.774 -3.0105 -4.278 -12.0066 -8.212501 -4.5825 -8.2915 -9.8505 -8.5065 -6.1075 -5.38 -7.886 -5.785501 -7.043 -7.061 -7.824 -9.008501 -3.8315 
-6.373 -4.774 -7.825001 -12.0066 -13.7531 -11.3703 -8.5415 -13.7229 -13.5206 -10.4265 -9.4505 -8.788 -9.4415 -11.5753 -10.304 -13.4635 -12.3425 -9.008501 
-6.373 -9.2535 -15.8736 -13.7531 -16.9109 -15.3293 -14.1171 -17.393 -15.4406 -13.7695 -12.9183 -10.281 -15.2861 -14.8363 -16.7065 -17.982 -12.3425 
-10.0405 -17.6737 -17.6201 -16.9109 -20.8699 -20.9049 -17.7872 -19.313 -18.7836 -17.2373 -14.4113 -16.1256 -18.5471 -21.2388 -21.225 -17.982 
