-4.759 
n/a 
n/a 
n/a 
n/a 
-4.759 
n/a 
n/a 
n/a 
n/a 
-4.759 
n/a 
n/a 
n/a 
n/a 
-4.759 
n/a 
n/a 
n/a 
n/a 
-3.436 -4.065 -4.742 0 -3.135 -3.535 -4.088 -1.7565 -7.912 -2.229 -3.152 -3.325 -5.0075 -1.7695 -3.769 0 
-8.155001 -7.4565 -4.742 -3.135 -5.962501 -7.354 -5.4975 -9.5175 -8.968 -5.943501 -6.104 -10.293 -5.113 -5.104 -3.769 
-10.4265 -7.4565 -8.210501 -5.962501 -9.460501 -9.316 -14.3737 -10.294 -13.0697 -8.964001 -13.7018 -10.4445 -8.02 -5.104 
-10.4265 -10.523 -11.2024 -9.460501 -11.5559 -18.308 -15.1502 -14.3957 -16.0902 -16.6824 -13.8533 -13.3515 -8.02 
-13.493 -13.5149 -14.7004 -11.5559 -20.5479 -19.0845 -19.2519 -17.4162 -23.8086 -16.8339 -16.7603 -13.3515 
-1.4985 -4.088 -7.8435 -2.3345 -3.9725 -9.9875 -4.0555 -3.325 -1.4985 -3.4985 -1.7565 -7.746 0 
-5.6785 -13.0357 -9.0965 -6.142 -14.903 -14.5552 -6.2735 -3.898 -4.798 -4.622 -9.0115 -7.746 
-15.5924 -14.2887 -13.1996 -17.6773 -19.4707 -16.7732 -6.9505 -5.8625 -5.425 -12.547 -9.0115 
-16.8454 -18.3918 -24.7349 -22.245 -21.6887 -17.4502 -7.88 -5.8915 -13.5924 -12.547 
-20.9485 -29.9271 -29.3026 -24.463 -22.3657 -18.3797 -7.8865 -14.5329 -13.5924 
-4.732 -1.4985 -5.0515 -4.065 0 -7.462 -2.229 -4.9295 -3.4425 -4.4715 -2.6165 -5.8285 -2.3345 -2.9995 -2.8965 
-5.618001 -5.901 -8.6595 -4.065 -7.462 -9.246 -6.0535 -9.706 -7.805501 -6.9475 -7.873 -6.6595 -4.818 -4.1905 
-9.6155 -10.061 -8.6595 -13.055 -9.246 -13.3385 -11.2544 -14.2206 -10.4149 -12.6398 -8.817 -9.0915 -5.822 
-14.1875 -10.061 -18.1711 -14.839 -13.3385 -18.5394 -15.769 -16.83 -16.1072 -13.5838 -10.1635 -9.8905 
-14.1875 -19.5726 -19.9551 -18.9315 -18.5394 -23.054 -18.3784 -22.5223 -17.0512 -14.9303 -11.4745 
-1.4985 -3.535 -3.86 -1.7565 -3.873 -1.7565 -7.2555 -2.7415 -2.6165 -5.198 -2.3345 -3.9555 -4.732 -3.0365 -2.7415 -1.8085 -3.8275 -2.356 -4.065 0 
-4.8385 -7.018001 -5.204 -5.002 -5.197001 -9.4255 -10.078 -4.266 -7.4075 -5.898001 -5.6965 -8.194 -7.165 -4.2225 -3.891 -5.421 -5.674 -6.432 -4.065 
-8.1035 -8.168 -7.757 -7.2205 -13.6748 -12.3014 -11.6025 -8.306 -8.1485 -8.993501 -10.238 -11.494 -7.543 -4.725 -7.042 -6.801001 -9.3155 -6.432 
-9.553 -10.467 -9.910501 -16.0771 -16.5507 -13.8259 -15.6425 -8.944 -10.4345 -13.5526 -13.538 -11.872 -8.927 -7.668 -8.957001 -10.634 -9.3155 
-11.9354 -12.6205 -18.7671 -18.953 -18.0752 -17.8659 -16.2805 -10.733 -14.9936 -16.8526 -13.916 -13.256 -11.9556 -9.364 -12.798 -10.634 
