-4.759 
n/a 
n/a 
n/a 
n/a 
-4.759 
n/a 
n/a 
n/a 
n/a 
-4.759 
n/a 
n/a 
n/a 
n/a 
-4.759 
n/a 
n/a 
n/a 
n/a 
-4.422 -4.536 -1.934 -1.4985 -7.4735 
-7.5235 -6.526 -2.6125 -8.696501 
-8.516001 -7.213 -9.768001 
-9.529 -14.018 
-16.6874 
-4.536 -2.4945 -3.8055 -1.934 -1.4985 -4.7855 -1.756 -4.0655 -2.0935 -7.190001 0 
-7.291 -5.9265 -4.951 -2.6125 -5.798 -6.1835 -5.431 -4.742 -8.856001 -7.190001 
-10.348 -6.571 -5.774 -6.6985 -6.8705 -10.2645 -6.0815 -10.459 -8.856001 
-10.9925 -7.392 -8.5755 -7.6925 -11.3317 -10.723 -12.2779 -10.459 
-11.8135 -10.1675 -9.620001 -12.3063 -11.7902 -16.9194 -12.2779 
-2.688 -4.7855 -1.7695 -3.2955 -2.664 -7.190001 -7.9535 0 
-7.6825 -6.781 -6.642001 -6.01 -11.0724 -15.9543 -7.9535 
-9.7995 -12.1545 -9.329 -14.645 -19.8367 -15.9543 
-15.1926 -14.8415 -18.0698 -23.4093 -19.8367 
-17.8796 -23.5823 -26.8341 -23.4093 

n/a 
n/a 
n/a 
n/a 
