-4.759 
n/a 
n/a 
n/a 
n/a 
-4.759 
n/a 
n/a 
n/a 
n/a 
-4.759 
n/a 
n/a 
n/a 
n/a 
-4.759 
n/a 
n/a 
n/a 
n/a 
-3.473 -3.704 -1.7695 -4.2485 -4.4145 -3.8725 -1.7565 -4.287 -3.222 -3.644 -1.7565 -6.702 -8.316 0 
-7.7275 -6.320001 -6.549 -9.649 -7.1645 -5.1155 -5.798501 -7.185 -6.87 -6.118001 -8.2745 -15.5426 -8.316 
-10.9403 -11.6599 -12.3695 -12.399 -7.975501 -7.6515 -8.6125 -11.1592 -10.4035 -13.595 -17.4189 -15.5426 
-16.2802 -17.4804 -15.1195 -13.21 -10.7139 -11.4889 -12.6883 -14.6927 -18.6547 -22.7394 -17.4189 
-22.1007 -20.2304 -15.9305 -15.9484 -14.5513 -15.5647 -16.2218 -22.9439 -27.7991 -22.7394 
-1.4985 -5.6595 -3.704 -4.983 -2.186 -1.4985 -4.4145 -4.1625 -1.7565 -4.669 -1.7565 -5.279 -4.983 -2.5195 -1.4985 -4.285 -4.35 -1.7565 -4.6985 -1.7695 -1.4985 -3.999 -4.35 -2.186 -3.999 -3.1575 -1.4985 -4.983 -2.5195 -3.999 -4.35 -1.7565 -4.6985 -1.7695 -1.4985 -4.285 -3.518 0 
-7.007501 -9.307 -8.107 -7.295 -3.339 -4.8425 -8.486 -6.165501 -6.5185 -5.4095 -6.933001 -10.234 -6.811501 -3.1695 -4.774 -6.4325 -5.3865 -6.739501 -6.511 -2.7955 -4.7585 -6.432 -5.8735 -5.804501 -5.164 -4.1355 -6.109 -6.811501 -6.362 -6.432 -5.3865 -6.739501 -6.511 -2.7955 -4.774 -5.863501 -3.518 
-10.1675 -14.2104 -10.382 -8.562 -6.2495 -9.014501 -9.6595 -11.8837 -8.5705 -9.271501 -10.4875 -11.3565 -7.275001 -6.3485 -6.806 -7.509501 -8.557 -8.493 -7.4095 -6.013 -6.866 -7.964 -8.8955 -6.081501 -5.69 -8.595 -8.042001 -11.3416 -8.764501 -7.877 -8.557 -8.493 -7.4095 -6.0745 -6.578 -5.863501 
-15.0683 -16.4854 -11.649 -11.6267 -10.7071 -9.7355 -15.8327 -13.9357 -11.765 -12.4065 -11.3185 -11.076 -10.243 -8.16 -7.666 -10.3095 -10.254 -9.071 -9.85 -8.061501 -8.102 -11.328 -9.019501 -6.4855 -10.7127 -10.513 -13.0043 -13.7441 -10.5567 -10.7325 -10.254 -9.071 -10.0635 -7.636 -6.578 
-17.3433 -17.7524 -14.7137 -16.0843 -11.4281 -15.9507 -17.8847 -17.1302 -15.226 -13.9065 -11.636 -14.153 -12.0545 -9.0235 -10.574 -12.0065 -10.7115 -11.6341 -12.5181 -9.4495 -11.5414 -11.452 -9.486001 -11.6544 -12.6307 -15.4753 -15.4068 -15.5363 -13.4122 -12.4295 -10.7115 -11.8476 -11.8966 -7.636 
-4.7275 -4.983 0 -4.507 -2.5045 -1.4985 -4.4145 -3.519 -1.7565 -4.2485 0 -1.4985 -3.893 -1.7565 -4.237 -6.283 -2.5195 -1.4985 -3.995 -3.222 -3.7345 -4.507 -2.356 -1.4985 -4.2485 -1.7565 -3.995 -2.229 -4.1455 -1.756 -4.6985 0 
-8.800001 -4.983 -4.507 -6.295501 -3.583 -4.8425 -7.4975 -4.6225 -5.969 -4.2485 -1.4985 -4.3925 -4.1785 -5.66 -8.0735 -7.361501 -3.1695 -4.712 -7.1915 -6.0775 -7.966001 -6.095 -3.1615 -5.307 -5.5065 -5.423 -5.324 -5.863501 -5.5035 -6.3315 -4.6985 
-8.800001 -9.008 -6.295501 -6.800001 -6.7915 -7.712 -7.999001 -9.2355 -5.969 -6.0865 -4.3925 -4.5425 -6.799 -8.958 -8.415501 -7.6885 -6.2025 -7.499001 -8.812 -10.2645 -9.337 -6.704 -7.101 -5.982501 -8.389001 -6.4595 -6.186 -6.9725 -7.948501 -6.3315 
-13.0562 -10.4855 -6.800001 -9.707001 -8.806001 -8.0535 -9.523001 -9.2355 -7.7495 -8.404 -4.5425 -7.094 -9.239 -9.423 -8.6125 -8.8795 -8.646501 -9.147501 -10.7025 -10.697 -9.789001 -9.030001 -8.001 -8.742001 -8.847501 -7.653 -7.239501 -8.351501 -7.948501 
-14.5337 -10.689 -9.707001 -9.734 -8.8795 -9.559501 -9.523001 -10.224 -10.078 -8.4285 -7.094 -9.293 -9.7235 -9.6075 -9.2275 -10.3745 -9.5445 -10.703 -10.7275 -10.721 -10.326 -9.690001 -10.4505 -9.1175 -9.377501 -8.424001 -8.4245 -8.351501 
-1.934 -3.704 -4.983 -2.4945 -3.299 -8.704 -1.756 -3.321 -3.539 -3.7575 -4.017 
-5.4025 -8.107 -6.5395 -5.663 -9.998001 -10.1035 -4.0055 -6.734 -6.5305 -8.444 
-10.316 -9.489501 -9.1265 -12.7544 -11.3975 -12.353 -7.1065 -10.609 -11.8026 
-11.6985 -12.1301 -17.1633 -14.1539 -13.647 -15.454 -11.0995 -15.8811 
-14.3391 -20.1669 -18.5628 -16.4034 -16.748 -19.447 -16.3716 
