-4.759 
n/a 
n/a 
n/a 
n/a 
-4.759 
n/a 
n/a 
n/a 
n/a 
-4.759 
n/a 
n/a 
n/a 
n/a 
-4.759 
n/a 
n/a 
n/a 
n/a 
-3.1335 -4.636 -12.16972 0 -2.871 -2.645 -12.16972 -3.485 -2.9775 -4.1085 -3.6615 
-8.256001 -18.14512 -12.16972 -2.871 -5.038 -15.88812 -15.65472 -5.757 -7.933001 -8.408501 
-22.25512 -18.14512 -15.04072 -5.038 -18.97852 -19.37312 -17.92672 -11.4781 -12.5342 
-22.25512 -21.01612 -17.20772 -18.97852 -22.46352 -21.64512 -23.64782 -16.0793 
-25.12612 -23.18312 -31.14824 -22.46352 -24.73552 -27.36622 -28.24902 
-4.237 -1.7565 -3.1335 -4.285 -2.4945 -3.4405 -2.6165 -3.8755 -2.5045 -1.4985 -2.688 -3.64 0 -1.756 -3.074 -4.037 -1.4985 -4.244 -3.64 -2.0935 -1.4985 -3.6055 -4.237 0 
-7.4265 -4.0965 -6.021 -6.158 -7.408 -3.7415 -5.948 -5.988501 -3.583 -3.702 -6.356501 -3.64 -1.756 -4.566 -7.1105 -6.005 -4.685 -7.630501 -5.559 -2.9725 -6.5345 -9.998001 -4.237 
-10.1911 -7.791 -7.706 -11.5741 -8.2775 -8.932 -8.121 -7.210001 -5.7095 -7.5565 -6.356501 -5.2805 -4.566 -8.8175 -7.661 -9.253 -7.9315 -9.634501 -6.584001 -7.756001 -13.4324 -9.998001 
-13.8856 -9.802501 -13.5173 -12.4436 -13.5972 -11.5352 -9.56 -9.475 -9.734501 -7.5565 -7.577001 -7.926001 -8.8175 -9.2745 -11.0538 -12.6647 -9.940001 -10.3305 -11.8241 -14.9783 -13.4324 
-15.8971 -15.872 -14.3868 -17.7633 -16.2004 -12.9742 -11.8784 -13.514 -9.734501 -8.6955 -10.361 -12.4131 -9.2745 -12.7657 -14.4655 -14.6732 -10.3855 -15.5706 -19.0464 -14.9783 
-3.5495 -4.1805 -4.2915 0 -1.934 -3.571 -3.6885 -3.013 -2.6165 -3.5185 -3.16 -2.9775 -3.6615 
-7.837001 -9.7215 -4.2915 -1.934 -4.9705 -6.1615 -6.691501 -3.724 -5.739 -6.5235 -4.6715 -6.835 
-14.0904 -9.7215 -5.985 -4.9705 -6.727 -9.097 -7.6635 -6.5515 -9.490001 -8.1695 -8.22 
-14.0904 -11.6814 -9.5555 -6.727 -9.613001 -9.8785 -10.4855 -10.0005 -11.3236 -12.0928 
-16.0503 -15.2519 -11.3566 -9.613001 -10.3235 -12.7005 -13.9345 -11.9405 -15.2469 
-1.4985 -4.2915 -2.0935 -1.4985 -3.5495 -2.4945 -3.2955 -2.0935 -3.098 -3.737 -3.6615 -1.934 -3.485 -3.64 -2.6165 -3.737 -2.688 -3.64 
-6.151 -6.256 -2.9725 -4.612 -6.3955 -4.6305 -4.307 -5.109 -6.823 -6.004001 -4.437 -5.457 -6.910501 -6.7485 -5.8555 -6.241 -6.356501 
-7.719 -7.2295 -6.319 -7.281 -8.291 -5.574501 -7.655 -8.976 -9.2065 -7.104001 -7.416 -10.223 -10.564 -10.2815 -8.567 -8.7895 
-9.023001 -10.411 -8.720501 -9.474501 -9.327001 -8.778501 -10.749 -11.5909 -10.287 -10.292 -12.8112 -14.0213 -14.097 -12.993 -11.2465 
-12.2459 -13.1585 -11.2298 -10.0105 -12.802 -11.9975 -13.3639 -12.6714 -13.475 -15.6872 -16.6095 -17.5543 -16.8085 -15.6725 
