-4.759 
n/a 
n/a 
n/a 
n/a 
-4.759 
n/a 
n/a 
n/a 
n/a 
-4.759 
n/a 
n/a 
n/a 
n/a 
-4.759 
n/a 
n/a 
n/a 
n/a 
-3.2615 -2.3335 0 -3.995 -2.229 -4.0995 -4.3305 -4.4515 -5.377 0 
-5.0495 -2.3335 -3.995 -5.324 -6.336 -9.436001 -7.644 -9.584501 -5.377 
-5.0495 -6.8535 -5.324 -9.6425 -12.1443 -12.9511 -13.4364 -9.584501 
-9.745001 -7.7065 -9.6425 -15.83 -15.6594 -18.7435 -13.4364 
-10.7152 -12.1916 -15.83 -19.3451 -21.4518 -18.7435 
-3.321 -4.4515 -2.7415 -3.8755 -2.5045 -1.4985 -8.464001 -2.0935 -3.995 0 
-8.876 -6.620001 -5.065001 -5.988501 -3.583 -9.505501 -10.964 -5.767 -3.995 
-10.76 -8.8255 -6.633 -7.210001 -10.8635 -12.1256 -14.1396 -5.767 
-12.9655 -10.4425 -7.813001 -14.5645 -14.4194 -15.1644 -14.1396 
-14.5825 -11.8263 -15.4387 -18.3864 -16.9784 -15.1644 
-3.2615 -2.3615 -4.4515 -1.4985 -4.0995 -7.4025 -1.7565 -3.995 -3.8755 
-5.276 -7.603001 -6.087501 -5.3665 -12.3028 -10.1115 -5.423 -7.981501 
-10.4505 -9.387 -10.396 -14.1634 -15.0118 -13.8892 -9.212501 
-12.2345 -13.7561 -19.6027 -16.8724 -18.7895 -17.6787 
-16.6036 -22.9628 -22.3117 -20.6501 -22.579 
-2.3335 -2.186 -1.4985 -3.995 -1.934 -4.0995 -4.4515 -3.898 0 -1.934 -8.43 0 
-3.7085 -3.339 -4.712 -5.975 -5.7735 -9.4595 -10.013 -3.898 -1.934 -11.11 -9.436001 
-4.897 -6.807 -6.419001 -10.76 -12.1949 -15.3954 -10.013 -4.962501 -12.1714 -12.1714 
-8.706 -8.996 -11.398 -17.1814 -18.1308 -15.3954 -11.1901 -15.5639 -12.1714 
-10.4505 -14.21 -17.8194 -23.1173 -18.1308 -16.5725 -21.7915 -15.5639 
