-4.759 
n/a 
n/a 
n/a 
n/a 
-4.759 
n/a 
n/a 
n/a 
n/a 
-4.759 
n/a 
n/a 
n/a 
n/a 
-4.759 
n/a 
n/a 
n/a 
n/a 
-2.7835 -2.985 -3.465 -1.7695 -3.0785 -3.188 0 -4.567 -4.8795 -1.4985 -3.188 
-5.5305 -6.165 -3.665 -3.9555 -7.016 -3.188 -4.567 -7.148001 -5.794001 -3.619 
-6.569 -6.6675 -5.753 -7.578001 -7.016 -8.075001 -7.148001 -7.896 -8.386001 
-6.994 -8.9835 -10.1225 -7.578001 -12.9478 -10.4595 -7.896 -10.813 
-9.164001 -13.6524 -10.1225 -14.594 -15.3323 -11.2075 -10.813 
-2.7835 -2.3585 -3.465 -1.7695 -3.013 -3.301 -2.0935 -1.4985 -3.188 0 -3.013 -5.651501 -3.9075 -4.613 -1.7565 -1.4985 -3.188 -1.756 -3.197 -4.7195 -2.356 -3.769 0 
-3.296 -3.9825 -3.665 -3.7215 -5.9475 -4.815 -2.9725 -3.619 -3.188 -3.013 -8.529501 -7.936001 -8.636001 -6.891001 -2.4195 -3.619 -4.863 -4.884501 -6.837501 -6.515 -5.021501 -3.769 
-4.464 -4.1935 -5.191 -6.455501 -7.4455 -5.6755 -5.522 -3.619 -6.299 -7.7565 -12.187 -13.3675 -8.970501 -7.4965 -4.4095 -5.0875 -7.6835 -8.311501 -7.0205 -8.566 -5.021501 
-4.614 -5.715 -7.8025 -7.795501 -8.086 -7.596 -5.522 -6.404 -11.884 -10.5635 -14.4445 -13.247 -9.480501 -9.915001 -5.738501 -7.8725 -11.5117 -8.5445 -8.811501 -8.566 
-6.414001 -8.623 -8.911 -8.438001 -8.9425 -7.596 -9.0235 -12.135 -14.691 -14.4445 -14.53 -13.446 -12.0992 -11.244 -8.817501 -11.8061 -11.7447 -10.041 -8.811501 
-2.7835 -2.985 -3.465 -1.7695 -3.0785 -1.4985 -3.8475 0 -3.234 -3.013 -5.651501 -4.8795 -1.4985 -3.188 -1.756 -3.013 -5.651501 -3.8905 -1.4985 -4.811 0 
-5.5305 -6.165 -3.665 -3.9555 -4.869 -5.09 -3.8475 -3.234 -5.035501 -8.529501 -8.005001 -5.794001 -3.619 -4.863 -4.674 -8.529501 -7.325001 -5.052 -6.2165 -4.811 
-6.569 -6.6675 -5.753 -5.319 -7.8625 -5.09 -6.4025 -5.035501 -10.165 -12.852 -10.7175 -8.386001 -5.0875 -7.726501 -9.9875 -11.702 -9.977 -10.494 -6.2165 
-6.994 -8.9835 -7.1205 -8.401501 -7.8625 -8.144501 -9.0675 -9.472 -14.7979 -13.973 -13.5946 -9.698001 -7.9045 -12.8745 -12.088 -11.645 -15.9274 -10.494 
-9.164001 -10.6335 -10.1805 -8.401501 -10.4185 -9.9505 -13.427 -15.2047 -16.0953 -16.7315 -15.0434 -12.7632 -13.0589 -15.5415 -13.5375 -17.4414 -15.9274 
-2.7835 -2.3585 -4.331 -1.7695 -3.0785 -1.4985 -3.188 -2.3585 -3.013 -2.6165 -4.8795 -1.4985 -3.188 0 
-3.296 -7.4845 -4.593 -3.9555 -4.869 -3.619 -5.79 -4.239 -3.724 -6.759001 -5.794001 -3.619 -3.188 
-8.321501 -7.708 -6.4195 -5.319 -7.011 -6.0445 -8.0375 -4.5815 -7.177001 -7.401 -8.386001 -3.619 
-8.559001 -9.884501 -7.689001 -7.369 -9.542001 -8.286501 -8.330001 -8.8175 -7.8135 -9.932501 -8.386001 
-10.8799 -11.1236 -9.305 -9.7335 -11.8466 -8.559501 -12.8536 -9.723001 -10.381 -9.932501 
