-4.759 
n/a 
n/a 
n/a 
n/a 
-4.759 
n/a 
n/a 
n/a 
n/a 
-4.759 
n/a 
n/a 
n/a 
n/a 
-4.759 
n/a 
n/a 
n/a 
n/a 
-5.009 -1.934 -3.5315 -2.8845 0 
-6.2945 -5.027 -4.6505 -2.8845 
-9.1495 -6.3075 -4.6505 
-10.2095 -6.3075 
-10.2095 
-2.0935 -3.5315 -2.8845 -3.371 
-5.9175 -4.6505 -6.5185 
-7.2575 -8.388 
-10.647 
n/a 
-3.135 -2.8965 -3.371 -4.0875 -3.5015 -2.264 -3.5315 -3.279 -2.7415 
-4.9085 -5.5745 -7.1565 -5.143 -5.1645 -4.8735 -5.5205 -6.9815 
-8.1885 -9.002501 -7.204 -6.0865 -7.4045 -6.443 -9.1365 
-11.9671 -9.061501 -8.402 -7.7665 -9.1025 -9.546 
-12.0261 -10.5335 -10.232 -9.424 -12.0403 
-2.0935 -3.818 -2.645 -3.5315 -2.8845 -7.063 
-4.7185 -6.7 -6.591001 -4.6505 -10.6819 
-8.1225 -11.0644 -8.177501 -13.1437 
-13.0015 -12.6509 -16.9951 
-14.588 -21.4685 
