-4.759 
n/a 
n/a 
n/a 
n/a 
-4.759 
n/a 
n/a 
n/a 
n/a 
-4.759 
n/a 
n/a 
n/a 
n/a 
-4.759 
n/a 
n/a 
n/a 
n/a 
-12.826 0 -2.6615 -4.114 0 
-13.5604 -2.6615 -5.679 -4.114 
-16.2797 -5.679 -5.679 
-19.2972 -5.679 
-19.2972 
-2.8845 0 -9.941501 0 -4.191 -7.997 0 
-2.8845 -9.941501 -9.941501 -4.191 -13.2208 -7.997 
-13.5604 -9.941501 -14.1903 -13.2208 -13.2208 
-13.5604 -14.1903 -23.2201 -13.2208 
-17.8092 -23.2201 -23.2201 
-2.8845 0 -12.16972 0 -4.191 -4.114 0 
-2.8845 -12.16972 -12.16972 -4.191 -7.6985 -4.114 
-15.78862 -12.16972 -16.36072 -7.6985 -7.6985 
-15.78862 -16.36072 -19.86822 -7.6985 
-19.97962 -19.86822 -19.86822 
-2.8845 0 -9.941501 0 -4.191 -4.619 0 
-2.8845 -9.941501 -9.941501 -4.191 -8.9835 -4.619 
-13.5604 -9.941501 -14.1903 -8.9835 -8.9835 
-13.5604 -14.1903 -18.9828 -8.9835 
-17.8092 -18.9828 -18.9828 
