-4.759 
n/a 
n/a 
n/a 
n/a 
-4.759 
n/a 
n/a 
n/a 
n/a 
-4.759 
n/a 
n/a 
n/a 
n/a 
-4.759 
n/a 
n/a 
n/a 
n/a 
-7.424 -12.16972 -3.326 -3.602 
-20.06432 -15.49572 -5.896501 
-23.39032 -18.06622 
-25.96082 
n/a 
-7.044 -5.87 -1.934 -3.326 -4.928 
-13.4418 -7.2425 -5.401 -7.7795 
-14.8143 -11.3229 -10.111 
-18.8947 -16.0329 
-23.6047 
-5.355 -4.245 -3.326 -7.630001 0 
-10.3615 -6.548501 -12.2614 -7.630001 
-12.8852 -16.5509 -12.2614 
-22.8876 -16.5509 
-22.8876 
-6.933001 -4.245 -3.326 -4.928 
-8.585001 -6.548501 -7.7795 
-11.1191 -12.069 
-16.6396 
n/a 
