-4.759 
n/a 
n/a 
n/a 
n/a 
-4.759 
n/a 
n/a 
n/a 
n/a 
-4.759 
n/a 
n/a 
n/a 
n/a 
-4.759 
n/a 
n/a 
n/a 
n/a 
-4.193 -1.7565 -4.361 -5.2465 -1.756 -4.955 -1.7565 -4.361 -5.2465 
-4.7225 -5.442 -8.602 -6.862 -6.318 -7.837001 -5.442 -8.602 
-8.895 -10.0445 -9.4945 -11.9672 -8.8345 -11.9695 -10.0445 
-14.0787 -10.937 -14.7339 -14.4837 -12.9484 -16.572 
-14.9712 -16.1764 -17.2504 -18.5976 -17.5509 
-3.6115 -3.584 -3.4865 -3.9515 0 -4.361 -3.8685 -4.129 -1.756 -4.6285 
-6.7325 -6.852 -5.632 -3.9515 -4.361 -7.448 -7.716001 -6.0335 -5.72 
-11.2387 -10.7595 -5.632 -7.4995 -7.448 -11.6791 -9.894001 -6.76 
-15.1462 -10.7595 -9.7206 -11.5465 -11.6791 -13.8571 -10.3255 
-15.1462 -14.8481 -13.7676 -15.7776 -13.8571 -14.2886 
-6.4145 -4.129 -12.16972 -4.179 -12.16972 0 -3.4295 -1.756 -3.639 -1.4985 -4.126 -1.7565 -3.8315 
-11.4125 -17.73552 -16.34872 -17.33212 -12.16972 -3.4295 -4.9735 -5.443501 -5.152 -5.0885 -5.221001 -5.5375 
-25.01902 -21.91452 -29.50184 -17.33212 -15.59922 -4.9735 -6.404 -6.3015 -9.209001 -6.211 -9.562501 
-29.19802 -35.06764 -29.50184 -20.76162 -17.14322 -6.404 -7.11 -10.7369 -10.5317 -10.749 
-42.35114 -35.06764 -32.93134 -22.30562 -18.57372 -7.11 -11.7684 -12.0596 -15.0697 
-6.966001 -9.73 -12.16972 -9.156 -12.16972 0 -4.129 -3.8315 -4.763 -1.756 -4.4945 
-17.5414 -22.01852 -21.32572 -21.45232 -12.16972 -4.129 -8.8435 -8.908001 -6.161 -5.8415 
-29.82992 -31.17452 -33.62204 -21.45232 -16.29872 -8.8435 -14.4082 -11.2182 -9.512501 
-38.98592 -43.47084 -33.62204 -25.58132 -21.01322 -14.4082 -16.7184 -14.5697 
-51.28224 -43.47084 -37.75104 -30.29582 -26.57792 -16.7184 -20.0699 
