-4.759 
n/a 
n/a 
n/a 
n/a 
-4.759 
n/a 
n/a 
n/a 
n/a 
-4.759 
n/a 
n/a 
n/a 
n/a 
-4.759 
n/a 
n/a 
n/a 
n/a 
-5.147 -2.4265 -2.186 -4.4695 -2.0935 -3.594 -1.7565 -4.6845 0 -4.6845 -2.229 -3.0435 -4.6845 -2.229 -4.042 0 -2.4265 -2.186 -3.383 -4.079 -3.452 -2.0935 -2.915 -2.7455 -4.0215 0 -5.6155 0 -5.5255 0 -4.7615 
-8.081501 -3.292 -6.053 -5.6265 -5.823 -4.857 -5.661 -4.6845 -4.6845 -6.48 -5.0405 -9.069 -6.48 -5.339 -4.042 -2.4265 -3.292 -4.438 -5.4065 -7.243 -5.378 -4.646501 -4.0865 -7.3115 -4.0215 -5.6155 -5.6155 -5.5255 -5.5255 -4.7615 
-8.923501 -7.377 -6.184 -9.369 -7.957001 -8.9715 -5.661 -6.651 -6.48 -9.3325 -11.6886 -11.2267 -9.745501 -5.339 -6.2535 -3.292 -5.166 -6.259 -7.920001 -7.989 -7.509501 -5.304 -8.576501 -7.3115 -8.276501 -5.6155 -7.6095 -5.5255 -8.646501 
-13.1033 -7.509 -10.0405 -11.679 -12.5273 -8.9715 -7.215 -8.786 -9.3325 -16.562 -13.8463 -14.4922 -9.745501 -7.375501 -6.787001 -5.166 -7.0275 -10.0925 -8.613001 -10.4513 -8.811001 -9.881001 -8.576501 -12.2041 -8.276501 -7.6095 -7.6095 -8.646501 
-13.2353 -11.6743 -12.3443 -16.2493 -12.5273 -10.6095 -9.4285 -11.8229 -16.562 -18.7197 -17.1118 -14.4922 -11.8304 -7.805501 -8.77 -7.0275 -10.585 -10.381 -11.1477 -11.7528 -13.5098 -9.881001 -13.8301 -12.2041 -10.2285 -7.6095 -10.123 
-2.3615 -3.452 -3.383 -4.079 -2.0935 -3.781 -2.7455 -4.6285 -2.229 -3.594 0 -3.433 0 -3.5855 0 -1.756 -3.074 -4.0215 0 -5.002 0 -5.6155 0 -8.462001 0 -3.843 
-4.5465 -6.9825 -5.4065 -5.1445 -5.412 -5.5265 -7.609 -6.9365 -5.7155 -3.594 -3.433 -3.433 -3.5855 -3.5855 -1.756 -4.566 -8.4165 -4.0215 -5.002 -5.002 -5.6155 -5.6155 -8.462001 -8.462001 -3.843 
-7.530001 -8.345 -6.281 -7.803 -6.8565 -9.737 -9.417 -10.0675 -5.7155 -6.192 -3.433 -5.49 -3.5855 -4.5585 -4.566 -9.752001 -8.4165 -8.927 -5.002 -8.457001 -5.6155 -10.1995 -8.462001 -10.8415 
-8.568001 -9.238001 -8.8815 -8.1805 -11.3096 -11.6532 -12.6472 -10.0675 -9.307501 -6.192 -5.49 -5.49 -4.5585 -7.968 -9.752001 -9.752001 -13.5996 -8.927 -8.457001 -8.457001 -10.1995 -10.1995 -10.8415 
-9.574 -11.9375 -9.844001 -13.2904 -13.2258 -14.8834 -12.6472 -13.6595 -9.307501 -8.895 -5.49 -7.1615 -7.968 -13.3292 -9.752001 -14.9351 -13.5996 -12.7634 -8.457001 -13.6202 -10.1995 -12.579 
-2.3615 -3.452 -2.7415 -4.6805 -4.845 -2.915 -2.264 -4.6285 -3.7865 0 -4.6285 -3.433 0 -4.6285 -3.9155 0 -1.756 -3.074 -2.4265 -2.8645 -2.915 -1.934 -4.0215 0 -4.8465 0 -5.6155 0 -4.4735 -1.756 -3.873 -3.115 -3.948 -4.418 -2.915 0 
-4.5465 -5.778 -9.785001 -11.6953 -7.8365 -4.093 -7.0585 -9.179001 -3.7865 -4.6285 -8.6705 -3.433 -4.6285 -8.4265 -3.9155 -1.756 -4.566 -5.653 -4.1435 -6.195 -4.628 -5.666 -4.0215 -4.8465 -4.8465 -5.6155 -5.6155 -4.4735 -5.5225 -5.383 -7.213 -7.759501 -6.7795 -7.513 -2.915 
-6.311 -13.3973 -16.5208 -14.6868 -8.656501 -8.973001 -12.2716 -9.179001 -9.226001 -8.6705 -8.6705 -9.163 -8.4265 -8.4265 -5.008 -4.566 -6.903501 -7.085501 -7.594501 -8.3715 -7.9095 -5.666 -9.054001 -4.8465 -10.9575 -5.6155 -7.7425 -5.5225 -9.427501 -8.672001 -12.2091 -10.7828 -9.542 -7.513 
-14.2877 -20.1331 -19.5123 -15.5068 -13.9231 -14.3429 -12.2716 -14.8333 -13.4676 -8.6705 -10.168 -13.0514 -8.4265 -9.4085 -8.2145 -6.903501 -8.351501 -10.4345 -9.737 -11.9774 -7.9095 -10.4675 -9.054001 -10.9575 -10.9575 -7.7425 -9.272 -9.427501 -13.1629 -14.1335 -15.2324 -13.5453 -9.542 
-21.0235 -23.1246 -20.3323 -20.7734 -19.293 -14.3429 -17.9259 -19.0749 -13.4676 -10.168 -14.0564 -13.0514 -9.4085 -12.9386 -10.7642 -8.351501 -11.7255 -12.7574 -13.4633 -11.9774 -13.3856 -10.4675 -15.9024 -10.9575 -13.0845 -9.272 -13.5034 -13.1629 -18.6244 -17.1568 -17.9949 -13.5453 
-6.4575 0 -9.240001 -3.594 0 -9.240001 -3.433 0 -9.240001 -3.9155 0 -3.1495 -4.098 -3.098 0 -1.756 -3.074 -3.0785 -2.791 -3.7555 -3.135 -2.915 -2.7455 -4.0215 0 -9.2495 0 -6.037 0 -4.4735 0 -4.7615 0 
-6.4575 -9.240001 -13.129 -3.594 -9.240001 -12.968 -3.433 -9.240001 -13.4505 -3.9155 -3.1495 -8.526 -7.9095 -3.098 -1.756 -4.566 -5.531 -4.7485 -6.701 -5.555 -5.6755 -4.0865 -7.3115 -4.0215 -9.2495 -9.2495 -6.037 -6.037 -4.4735 -4.4735 -4.7615 -4.7615 
-16.6841 -13.129 -13.129 -13.8224 -12.968 -12.968 -13.8112 -13.4505 -13.4505 -7.551001 -8.526 -12.5155 -7.9095 -4.558 -4.566 -7.05 -6.945 -9.7865 -8.9245 -8.049001 -6.315001 -8.576501 -7.3115 -14.3296 -9.2495 -15.5277 -6.037 -10.2385 -4.4735 -7.5165 -4.7615 
-20.5731 -13.129 -23.3574 -17.5504 -12.968 -23.3462 -18.0217 -13.4505 -17.086 -13.2465 -12.5155 -12.5155 -8.872 -7.5975 -7.05 -8.456 -12.3912 -12.3108 -11.5607 -8.799001 -11.222 -8.576501 -18.2572 -14.3296 -15.5277 -15.5277 -10.2385 -10.2385 -7.5165 -7.5165 
-20.5731 -23.3574 -27.0854 -17.5504 -23.3462 -27.5567 -18.0217 -17.086 -22.7815 -17.236 -12.5155 -13.478 -12.9757 -10.7575 -8.456 -14.2098 -14.9155 -14.947 -12.3107 -13.8282 -11.222 -19.8832 -18.2572 -20.6078 -15.5277 -19.7292 -10.2385 -13.2815 -7.5165 
