-4.759 
n/a 
n/a 
n/a 
n/a 
-4.759 
n/a 
n/a 
n/a 
n/a 
-4.759 
n/a 
n/a 
n/a 
n/a 
-4.759 
n/a 
n/a 
n/a 
n/a 
-1.7695 -3.619 -4.2085 -4.2225 -1.756 -4.587 -2.645 -4.5675 -2.8645 -3.1125 -4.5485 
-4.5275 -8.295501 -7.103001 -5.3695 -6.1725 -7.435501 -6.7465 -6.527 -3.5345 -6.2335 
-9.092001 -11.7272 -8.501501 -6.8715 -9.0625 -11.9836 -10.502 -7.4885 -6.6345 
-12.6579 -13.1257 -9.795501 -9.809001 -13.6486 -15.7391 -11.4635 -9.4905 
-14.0564 -14.4197 -12.829 -14.4375 -17.4041 -16.7006 -13.4655 
-4.1435 -4.2085 -2.4945 -6.785501 -2.3345 -4.628 -5.939 -3.5435 
-9.418501 -7.068001 -8.2075 -7.009501 -6.797 -5.9615 -7.053 
-12.5284 -12.9972 -8.479 -12.2808 -7.905 -7.0565 
-18.4576 -13.2687 -14.0911 -13.3888 -9.0245 
-18.7291 -18.8808 -15.1991 -14.5083 
-3.17 -3.441 -3.614 -4.7615 -1.7695 -4.1335 -1.4985 -4.282 -4.9545 0 
-7.133 -5.596001 -8.619 -7.074501 -5.1125 -5.546 -5.0715 -7.9185 -4.9545 
-9.070001 -11.2828 -10.9114 -9.822001 -5.8015 -9.712501 -8.734 -7.9185 
-14.9242 -13.5752 -13.6589 -10.5968 -9.871 -14.0714 -8.734 
-17.2166 -16.3227 -14.4337 -14.6663 -14.3377 -14.0714 
-3.849 -5.0235 -3.3155 -3.8755 -1.7695 -4.241 -1.4985 -4.5335 -4.2085 -3.892 
-8.166 -8.337001 -7.722001 -5.463 -4.518 -4.978 -4.918 -7.8 -7.2425 
-11.9789 -12.8481 -9.293001 -7.455501 -5.142 -8.0635 -8.187 -11.3912 
-16.49 -14.4191 -11.3473 -7.9705 -8.193001 -9.639501 -11.7148 
-18.061 -16.4734 -11.8623 -11.2239 -9.721001 -13.3185 
