-4.759 
n/a 
n/a 
n/a 
n/a 
-4.759 
n/a 
n/a 
n/a 
n/a 
-4.759 
n/a 
n/a 
n/a 
n/a 
-4.759 
n/a 
n/a 
n/a 
n/a 
-2.4265 -2.186 -1.7695 -2.489 -4.4155 -2.3335 -4.5005 -4.243 -2.7415 -5.3075 -2.3345 -1.8085 -4.2085 
-3.292 -3.8745 -3.1405 -5.37 -4.943 -7.679501 -6.863501 -6.506 -6.283 -6.2735 -3.8605 -5.677 
-5.165 -4.7485 -6.5695 -5.5165 -10.731 -9.836 -9.8105 -9.3385 -6.828 -7.424 -7.203 
-5.818501 -6.925 -6.8205 -11.4143 -12.8875 -12.892 -12.643 -9.868 -7.7895 -9.236 
-6.955 -7.0105 -12.8723 -13.5708 -15.9435 -15.7245 -13.1725 -11.0451 -9.4335 
-2.4265 -2.186 -3.699 -1.7695 -3.6595 -2.3335 -4.5005 -4.243 -2.7415 -3.8755 -2.3345 -1.8085 -4.2085 0 
-3.292 -4.636 -4.585 -5.264 -4.406 -7.679501 -6.863501 -6.506 -5.065001 -4.4955 -3.8605 -5.677 -4.2085 
-4.8835 -4.967 -5.705 -5.5015 -10.4035 -9.836 -9.8105 -9.2495 -5.7145 -5.999001 -7.203 -5.677 
-5.073 -5.8195 -5.7795 -11.6486 -12.56 -12.892 -12.554 -9.7925 -6.731 -8.9945 -7.203 
-5.8275 -5.8835 -12.0312 -13.8051 -15.616 -15.6355 -13.097 -10.9272 -9.7665 -8.9945 
-3.1435 -7.885 -2.3335 -4.5005 -4.243 -3.5065 -2.186 -3.8755 -2.3345 -1.8085 -4.2085 -4.2005 0 
-10.674 -9.257501 -7.679501 -6.863501 -6.354 -5.196 -5.2415 -4.4955 -3.8605 -5.677 -8.0705 -4.2005 
-12.0465 -14.7263 -9.836 -8.377501 -8.262 -8.507501 -5.98 -5.999001 -7.203 -8.802 -8.0705 
-17.5153 -16.8828 -11.459 -10.543 -11.8917 -9.2235 -7.1905 -8.9945 -10.107 -8.802 
-19.6718 -18.5058 -13.6245 -14.1727 -12.6077 -10.173 -10.4272 -12.2053 -10.107 
-4.211 -2.7415 -4.4895 -2.3345 -1.8085 -4.2085 0 
-7.4755 -5.4595 -5.5805 -3.8605 -5.677 -4.2085 
-9.566 -6.502 -7.082 -7.203 -5.677 
-10.762 -7.9375 -10.292 -7.203 
-12.1975 -11.3677 -10.292 
