-4.759 
n/a 
n/a 
n/a 
n/a 
-4.759 
n/a 
n/a 
n/a 
n/a 
-4.759 
n/a 
n/a 
n/a 
n/a 
-4.759 
n/a 
n/a 
n/a 
n/a 
-6.643 0 -5.1645 -3.8195 -3.3195 -3.819 
-6.643 -5.1645 -7.0965 -5.852 -6.1505 
-12.7009 -7.0965 -8.001 -8.554001 
-14.6329 -8.001 -10.4675 
-15.5374 -10.4675 
-6.643 0 -5.1645 -3.3195 -3.819 
-6.643 -5.1645 -7.392 -6.1505 
-12.7009 -7.392 -10.2925 
-14.9284 -10.2925 
-17.8289 
-5.1645 -3.3195 -3.819 -6.643 
-7.392 -6.1505 -11.2872 
-10.2925 -14.1015 
-18.2435 
n/a 
-6.643 0 -5.1645 -3.8195 -3.3195 -3.819 
-6.643 -5.1645 -7.0965 -5.852 -6.1505 
-12.7009 -7.0965 -8.001 -8.554001 
-14.6329 -8.001 -10.4675 
-15.5374 -10.4675 
