-4.759 
n/a 
n/a 
n/a 
n/a 
-4.759 
n/a 
n/a 
n/a 
n/a 
-4.759 
n/a 
n/a 
n/a 
n/a 
-4.759 
n/a 
n/a 
n/a 
n/a 
-4.156 -9.379001 -2.3585 -3.757 -3.956 
-14.2526 -12.0653 -7.208 -8.222 
-16.9389 -16.9148 -12.1572 
-21.7884 -21.864 
-26.7376 
-1.756 -4.156 -6.219 -6.0945 -4.3195 -1.4985 -3.0835 -4.432 -4.328 -1.7565 -1.4985 -3.9675 -1.7565 -4.348 
-5.9775 -7.117001 -7.1165 -9.6945 -5.1515 -3.535 -7.040501 -4.899 -5.0935 -2.4195 -5.1285 -4.4555 -5.8355 
-9.0135 -7.1295 -9.818001 -9.935 -5.8475 -7.404 -7.2165 -6.046 -6.1235 -5.5275 -5.356 -6.9775 
-9.036 -9.8195 -9.992001 -10.388 -8.6465 -7.583001 -7.6905 -6.796 -7.467 -5.6925 -7.323 
-10.4685 -9.991501 -10.3965 -10.437 -8.6675 -7.925001 -8.389501 -7.568 -7.4905 -7.6805 
-4.261 -7.7305 -2.985 -3.956 -2.5045 -1.8085 -4.445 
-12.4481 -11.2541 -7.949501 -6.0705 -3.3625 -6.3605 
-15.9717 -16.2186 -10.2302 -6.7035 -7.4055 
-20.9362 -18.4993 -10.8632 -10.015 
-23.2169 -19.1323 -14.1747 
-4.261 -7.913001 -4.8955 -4.3195 -4.289 -2.5045 -4.432 -4.328 
-12.6306 -13.3695 -9.104 -9.7995 -6.458 -6.429 -4.899 
-18.0871 -17.578 -14.8696 -12.1495 -9.3335 -6.5855 
-22.2956 -23.3436 -17.2196 -15.025 -9.362 
-28.0612 -25.6936 -20.0951 -15.0535 
