-4.759 
n/a 
n/a 
n/a 
n/a 
-4.759 
n/a 
n/a 
n/a 
n/a 
-4.759 
n/a 
n/a 
n/a 
n/a 
-4.759 
n/a 
n/a 
n/a 
n/a 
-5.1845 -3.498 -1.7565 -1.4985 -3.355 -7.614501 -5.1845 -3.97 -1.7695 -2.489 -4.292 
-10.6215 -4.005 -2.4195 -4.951 -11.9155 -13.3598 -8.8585 -6.354 -3.1405 -6.354 
-11.1285 -4.3765 -6.329 -14.1369 -17.6608 -17.0338 -11.4253 -7.897 -6.932 
-11.5 -7.965001 -15.2773 -19.8822 -21.3348 -19.6006 -12.9683 -11.9085 
-15.0885 -17.4407 -21.0226 -23.5562 -23.9016 -21.1436 -16.9798 
-1.7695 -3.2345 -4.3365 0 -1.7695 -4.1 -2.4265 -3.837 -5.1845 -3.97 
-3.713 -5.687 -4.3365 -1.7695 -5.4985 -6.4195 -5.396 -8.6105 -8.8585 
-5.997 -5.687 -5.8745 -5.4985 -7.562 -9.605501 -10.8305 -13.2265 
-5.997 -7.429501 -9.978001 -7.562 -11.0834 -15.235 -15.4465 
-7.827001 -11.7694 -12.2651 -11.0834 -16.7129 -19.851 
-8.1485 -3.97 -5.5985 -2.985 -7.7545 0 -3.9555 -1.756 -4.177 -4.1225 -1.756 -2.985 -4.2885 0 
-12.4791 -9.723001 -7.654 -6.8885 -4.869501 -3.9555 -5.1795 -6.0495 -8.066 -5.170001 -4.2025 -6.1495 -4.2885 
-18.2321 -12.0169 -12.0586 -6.803 -9.1645 -5.1795 -9.312501 -9.186001 -9.237 -8.6675 -7.384501 -6.1495 
-20.526 -16.4215 -12.0586 -11.4908 -9.477 -9.312501 -13.143 -10.293 -12.7649 -11.9581 -7.384501 
-24.9306 -16.4215 -16.7464 -11.8033 -13.9906 -13.143 -14.25 -14.0049 -16.0555 -11.9581 
-8.27 -4.3365 0 -3.9515 0 -4.3905 -2.9905 -4.0925 -2.4945 -3.849 -8.1485 -3.97 
-13.0333 -4.3365 -3.9515 -3.9515 -4.3905 -7.952 -8.626 -6.398 -5.410501 -12.1581 -12.4791 
-13.0333 -8.109501 -3.9515 -8.821501 -7.952 -14.2481 -11.5147 -9.047001 -14.0132 -16.4887 
-16.8063 -8.109501 -8.821501 -12.6486 -14.2481 -17.1368 -14.1637 -17.7155 -18.3438 
-16.8063 -13.7479 -12.6486 -18.9447 -17.1368 -19.7858 -22.8322 -22.0461 
