-4.759 
n/a 
n/a 
n/a 
n/a 
-4.759 
n/a 
n/a 
n/a 
n/a 
-4.759 
n/a 
n/a 
n/a 
n/a 
-4.759 
n/a 
n/a 
n/a 
n/a 
-3.433 -1.7565 -3.135 -5.464 -1.756 -5.085 -2.3585 -2.882 -2.6165 -2.489 -3.8115 -1.7695 -4.617 -2.5195 -3.135 -3.1725 -3.1335 -4.2485 -2.3615 -2.882 -2.489 -3.851 -1.7695 -5.026 -1.7565 -3.135 -4.69 -3.2955 -2.3345 -5.6045 0 -5.0395 
-4.1845 -4.6765 -7.6975 -6.461 -6.5915 -7.8 -3.8965 -4.008 -3.82 -4.1055 -3.8325 -6.634 -5.8835 -5.381 -6.941 -5.944 -4.9235 -6.509001 -4.8795 -3.631 -5.5065 -4.0015 -7.185 -6.6645 -4.6765 -7.438 -7.233 -4.534 -8.5695 -5.6045 -5.0395 
-6.462 -10.096 -8.7745 -8.055 -9.212 -9.172 -4.5455 -4.4445 -5.1245 -4.11 -10.29 -8.044001 -8.483001 -9.189501 -9.227501 -7.4795 -7.286 -8.725 -5.311 -5.924 -5.6315 -8.263 -8.579 -9.093 -9.190001 -10.4035 -7.5625 -9.6215 -8.5695 -6.958 
-12.1969 -11.173 -9.285501 -10.2865 -10.6105 -10.115 -5.9875 -5.6875 -5.128 -10.7121 -11.7 -11.0411 -12.5103 -11.7398 -9.285001 -10.1805 -9.294001 -9.283001 -6.2515 -5.9665 -9.876 -9.124001 -11.2787 -13.6573 -12.3297 -10.5985 -13.1602 -9.6215 -10.199 
-13.2739 -11.684 -12.278 -11.8344 -11.5535 -12.2226 -6.199 -5.6905 -12.0713 -12.1221 -14.6971 -15.0684 -15.0606 -11.7973 -12.315 -12.3227 -10.048 -10.412 -6.2625 -10.476 -10.2625 -11.9243 -15.843 -16.797 -12.5247 -16.1962 -13.1602 -11.4718 
-2.3585 -2.882 -2.6165 -4.406 -2.5235 -3.1725 -2.5195 -3.1725 -4.2485 -3.851 -3.135 -3.898 -3.9965 -1.756 -5.085 0 -3.433 -4.69 -2.882 -2.489 -4.301 -2.264 -1.4985 -3.7075 -1.7565 -5.6045 0 -5.0395 
-3.8965 -4.008 -6.3725 -6.344 -4.263 -5.45 -6.096 -7.0245 -8.004001 -7.742001 -7.1905 -7.080501 -5.5855 -6.5915 -5.085 -3.433 -8.8055 -7.3925 -3.631 -8.5155 -8.040501 -2.9195 -4.625 -4.51 -7.837501 -5.6045 -5.0395 
-4.5455 -6.9115 -8.799001 -8.7675 -7.092501 -7.305501 -8.814 -11.5644 -12.8338 -12.0251 -10.111 -8.2995 -11.191 -6.5915 -8.248 -8.8055 -10.404 -7.7475 -9.491 -12.4464 -8.710501 -6.7425 -4.9135 -10.7595 -7.837501 -6.958 
-6.9925 -10.126 -11.4925 -10.2865 -9.992001 -11.0991 -14.4517 -16.3942 -17.1169 -14.9456 -11.4558 -14.0762 -11.191 -9.6425 -13.9361 -10.404 -11.4672 -14.0917 -13.6061 -13.1164 -13.0187 -7.148 -11.6392 -10.7595 -9.522501 
-10.1715 -12.8195 -13.0115 -13.9816 -14.1176 -16.7368 -19.2815 -20.6773 -20.0374 -16.2904 -17.2325 -14.0762 -14.242 -15.5014 -15.5346 -11.4672 -17.8114 -18.2068 -14.2761 -17.4246 -13.4242 -13.3633 -11.6392 -12.4445 
-3.17 -3.7375 -5.085 -3.1335 -1.4985 -3.4155 -3.433 -1.7565 -5.6045 -1.756 -5.0395 -4.69 -1.7695 -2.489 -3.2955 
-8.518 -8.5035 -8.611 -5.0785 -5.219 -6.66 -4.1845 -7.837501 -6.735001 -6.808 -8.262501 -6.3015 -3.1405 -3.979 
-13.2968 -12.4839 -11.2262 -8.141001 -7.882 -8.028 -10.66 -9.142501 -7.404 -9.2985 -9.718 -7.4595 -4.7755 
-17.2772 -15.0991 -14.2887 -11.7698 -9.2045 -14.7697 -11.965 -9.866 -9.786501 -10.7185 -11.0014 -8.3585 
-19.8924 -18.1616 -17.9175 -13.0923 -16.1084 -16.0747 -12.6885 -12.2485 -11.3175 -12.0019 -11.9004 
-3.135 -5.464 -1.756 -5.085 -2.742 -5.14 -1.4985 -4.617 -2.5195 -3.1725 -3.1335 -7.5735 -1.934 -3.7075 -1.7565 -5.6045 0 -5.0395 -1.4985 -4.617 -2.742 -2.489 -4.676 -2.3345 -4.69 0 
-7.6975 -6.461 -6.5915 -7.282 -6.8865 -5.8025 -6.121 -5.8835 -6.096 -5.944 -7.683001 -9.1045 -6.5675 -4.51 -7.837501 -5.6045 -5.0395 -7.477 -6.121 -6.8795 -3.301 -5.9165 -6.1155 -6.4515 -4.69 
-8.7745 -8.055 -8.944 -12.0707 -7.4635 -10.233 -7.702001 -9.1005 -9.5255 -10.5125 -11.255 -14.4545 -7.5445 -10.7595 -7.837501 -6.958 -7.477 -10.76 -8.144501 -7.1235 -6.77 -6.836 -11.1815 -6.4515 
-9.285501 -10.2925 -13.9785 -12.6477 -12.0672 -12.1062 -11.2536 -12.8936 -13.8725 -12.685 -15.02 -15.5095 -14.2548 -10.7595 -9.522501 -9.958501 -10.76 -12.7835 -8.415001 -11.5705 -8.2515 -12.2818 -11.1815 
-12.284 -15.4824 -14.5555 -17.2514 -13.9404 -15.6578 -15.0467 -17.2406 -16.015 -17.5286 -16.2166 -22.2198 -14.2548 -12.4445 -12.4618 -13.2415 -12.7835 -13.054 -13.3222 -13.052 -14.0001 -12.2818 
