-4.759 
n/a 
n/a 
n/a 
n/a 
-4.759 
n/a 
n/a 
n/a 
n/a 
-4.759 
n/a 
n/a 
n/a 
n/a 
-4.759 
n/a 
n/a 
n/a 
n/a 
-5.205 0 0 -4.0925 -1.934 -4.5255 0 -4.7675 -1.4985 -3.254 -1.756 -4.6015 -1.4985 -3.8135 -2.0935 -1.4985 -4.4665 -3.627 -4.1865 
-5.205 0 -4.0925 -5.2985 -5.7045 -4.5255 -4.7675 -6.380001 -4.4095 -5.103 -5.9705 -5.477 -4.828 -5.457 -2.9725 -4.729 -7.737 -7.341001 
-5.205 -4.0925 -5.2985 -7.8015 -5.7045 -10.4425 -6.380001 -7.0395 -6.023001 -9.4075 -6.822501 -7.11 -6.377 -6.118 -6.5865 -8.145 -12.0964 
-8.6435 -5.2985 -7.8015 -7.8015 -12.1509 -12.055 -7.0395 -8.9055 -10.564 -9.866 -8.493001 -7.2345 -6.7835 -8.111501 -9.353001 -12.6488 
-9.266001 -7.8015 -7.8015 -14.5147 -13.7634 -12.7145 -8.9055 -13.6199 -11.0225 -11.7283 -8.5935 -7.561 -8.611501 -11.3204 -14.231 
-1.934 -4.5255 -5.205 -3.3195 -3.8735 -2.7415 -3.383 -3.6975 -1.756 -4.425 -3.0835 -4.2315 
-5.7045 -8.713 -8.240001 -6.452001 -6.0595 -4.8365 -5.5455 -5.6965 -6.0105 -6.814 -7.1075 
-10.0345 -12.2636 -11.9425 -9.341001 -8.3625 -7.06 -6.733 -10.019 -9.068501 -11.6508 
-13.7193 -15.9661 -14.8315 -11.7202 -9.915001 -7.991 -11.4867 -13.1674 -14.0091 
-17.4218 -18.8551 -17.2107 -13.2727 -10.5675 -13.0081 -14.6351 -18.108 
-5.205 -2.9705 -2.7415 -3.793 -1.934 -4.5255 -2.186 -1.934 -3.264 -1.934 -1.4985 -3.254 -1.7565 -4.1735 -4.2085 -3.3195 -4.299 -1.934 -1.4985 -3.188 0 
-7.7095 -4.512 -5.337501 -4.752 -5.7045 -7.257 -4.0835 -5.6545 -5.337501 -2.6125 -4.4095 -4.0065 -6.5425 -9.493 -8.489 -6.4475 -6.370501 -2.6125 -3.619 -3.188 
-8.972 -6.5105 -5.761 -7.745 -7.909 -9.382 -8.31 -7.530001 -5.726501 -5.405 -4.8735 -7.733001 -12.4302 -13.9815 -11.9392 -8.7355 -7.005 -4.377 -3.619 
-11.1817 -6.775001 -8.414001 -9.457001 -9.9715 -13.6591 -10.8101 -8.047001 -7.822501 -5.9115 -8.393001 -14.4219 -16.9187 -17.4317 -14.2272 -9.278501 -8.891001 -4.377 
-11.4462 -9.5495 -10.2364 -11.6221 -14.2486 -16.1592 -11.3271 -10.449 -8.5065 -9.759501 -15.5293 -18.9104 -20.3689 -19.7197 -14.7702 -11.5127 -8.891001 
-1.934 -4.5255 -5.205 -2.7415 -1.4985 -4.1735 -4.2655 -1.756 -4.948 -3.0835 -1.934 -3.627 -1.934 -1.4985 -3.188 0 
-5.7045 -8.713 -7.888 -4.063 -4.445 -7.4075 -5.8695 -6.2145 -8.068001 -5.265 -5.5455 -5.4545 -2.6125 -3.619 -3.188 
-10.0345 -10.504 -8.7945 -6.383 -7.766 -9.441 -11.514 -9.439501 -8.434501 -9.005001 -6.904 -6.063 -4.377 -3.619 
-11.9597 -11.4105 -11.4895 -9.2235 -9.6525 -15.5305 -14.739 -9.668501 -12.3567 -9.9835 -7.4845 -8.5585 -4.377 
-12.8662 -14.1055 -14.33 -11.17 -15.8872 -18.7555 -14.968 -13.6055 -13.3352 -10.346 -9.804501 -8.5585 
