-4.759 
n/a 
n/a 
n/a 
n/a 
-4.759 
n/a 
n/a 
n/a 
n/a 
-4.759 
n/a 
n/a 
n/a 
n/a 
-4.759 
n/a 
n/a 
n/a 
n/a 
-12.16972 -8.245001 0 -3.8195 0 
-20.41472 -8.245001 -3.8195 -3.8195 
-20.41472 -12.5073 -3.8195 
-24.67702 -12.5073 
-24.67702 
-8.875 -8.363501 0 -3.7955 0 
-18.4501 -8.363501 -3.7955 -3.7955 
-18.4501 -12.6722 -3.7955 
-22.7588 -12.6722 
-22.7588 
-9.643001 -8.245001 0 -3.8195 0 
-9.913001 -8.245001 -3.8195 -3.8195 
-9.913001 -12.5073 -3.8195 
-14.1753 -12.5073 
-14.1753 
-8.875 -8.245001 0 -3.8195 0 
-9.317 -8.245001 -3.8195 -3.8195 
-9.317 -12.5073 -3.8195 
-13.7101 -12.5073 
-13.7101 
