-4.759 
n/a 
n/a 
n/a 
n/a 
-4.759 
n/a 
n/a 
n/a 
n/a 
-4.759 
n/a 
n/a 
n/a 
n/a 
-4.759 
n/a 
n/a 
n/a 
n/a 
-3.6615 -1.934 -4.2485 -2.186 -4.1895 -1.7695 -3.4985 -1.4985 -4.2485 
-4.437 -6.183 -5.843 -5.819 -5.1555 -4.8425 -4.9685 -5.307 
-6.9315 -7.895 -10.1145 -6.3985 -8.932501 -5.436 -7.4135 
-9.417001 -12.4571 -10.8794 -9.801001 -9.575001 -7.639 
-14.0505 -13.222 -14.2819 -10.4535 -11.8156 
-4.122 -4.237 -1.7565 -3.979 -1.4985 -4.237 
-8.467501 -5.8415 -5.7485 -5.5255 -5.154 
-10.543 -10.5035 -8.717 -10.2035 
-15.4344 -14.0384 -13.5684 
-18.9693 -18.8898 
-2.872 -4.237 -2.186 -4.849 -3.3255 -5.749 
-7.811 -6.133 -5.8595 -6.355 -8.399501 
-8.906 -8.7085 -7.11 -12.2184 
-11.6335 -9.251 -13.1456 
-12.176 -15.7122 
-3.0415 -5.2195 -2.5045 -3.7685 -4.9425 
-8.447001 -7.807 -6.6625 -9.615001 
-11.3391 -12.6476 -13.2866 
-16.1797 -19.2717 
-22.8038 
