-4.759 
n/a 
n/a 
n/a 
n/a 
-4.759 
n/a 
n/a 
n/a 
n/a 
-4.759 
n/a 
n/a 
n/a 
n/a 
-4.759 
n/a 
n/a 
n/a 
n/a 
-3.2615 -1.8085 -3.845 -1.7565 -5.326 -3.115 -2.3615 -3.8735 -3.7555 -4.712 -2.264 -3.5715 -4.751 -4.9175 0 -2.872 -8.048 -3.5745 -5.651501 -4.752 -1.4985 -4.712 -4.064 -2.9805 -2.7415 -4.7355 -2.7455 -1.4985 -4.944 -1.7565 -3.8735 -1.756 -4.4935 0 
-4.417 -3.9645 -4.13 -7.330501 -8.2885 -4.312 -7.8055 -8.014501 -8.482 -6.9925 -4.917 -6.405 -9.170501 -4.9175 -2.872 -12.217 -10.688 -9.1155 -9.785501 -5.527 -5.918 -8.4095 -6.0305 -4.004 -6.578 -6.7485 -3.637 -5.9685 -6.3735 -5.112 -5.3865 -5.9875 -4.4935 
-6.8035 -4.156 -8.776501 -10.115 -9.677501 -9.084001 -12.4235 -9.3055 -10.01 -8.546 -7.2665 -9.582001 -9.170501 -7.7555 -12.217 -14.857 -14.5965 -13.2545 -11.4185 -9.436501 -10.6129 -9.901501 -7.332 -7.8675 -8.319 -7.5045 -8.422001 -7.019001 -7.6415 -6.409 -6.399 -5.9875 
-6.8155 -8.797001 -11.6928 -11.504 -14.4801 -13.7378 -13.7145 -10.635 -10.723 -10.5325 -9.896001 -9.582001 -12.1751 -17.2505 -14.857 -18.7655 -20.9972 -14.6807 -15.5602 -14.1226 -12.1049 -11.2492 -11.3435 -9.205501 -9.0565 -12.6705 -9.048 -7.8485 -8.394 -7.3805 -6.399 
-10.5325 -11.7015 -13.0818 -16.3066 -19.1339 -15.0288 -15.044 -11.348 -12.7095 -10.734 -9.896001 -12.635 -21.6701 -19.8905 -18.7655 -25.1662 -21.7942 -18.8224 -20.2463 -15.6146 -13.4526 -15.2607 -12.6815 -9.711 -14.2369 -13.2965 -9.554001 -8.5655 -8.607 -7.3805 
-4.9175 -3.5715 -2.998 -3.8735 -3.7555 -4.712 
-8.019501 -5.4885 -7.6585 -8.014501 -8.482 
-9.933001 -9.669001 -12.2327 -9.3055 
-14.2739 -14.5496 -13.5237 
-19.1545 -15.8406 
-3.2615 -3.3715 -5.326 -3.115 -2.3615 0 -2.5045 -1.4985 -3.498 -1.934 -3.5715 -2.998 0 -4.9175 -3.8735 -7.2865 -2.5045 -2.664 -4.015 -3.59 -2.872 -5.5785 -3.5745 -2.6165 -4.37 -1.934 -1.4985 -4.015 -4.759 0 -2.872 -2.8965 -3.1575 -2.3335 -2.7415 -6.3305 -5.6475 -3.893 -1.4985 -8.367001 -3.999 0 
-6.0335 -7.778501 -8.2885 -4.312 -2.3615 -2.5045 -3.1915 -4.0295 -5.52 -5.0835 -5.4885 -2.998 -4.9175 -8.2115 -12.152 -9.6805 -4.074 -4.926 -7.071501 -5.904 -8.602501 -8.3105 -4.114 -5.889 -4.568501 -2.6125 -5.1595 -9.328001 -4.759 -2.872 -5.7735 -4.4055 -4.92 -4.2725 -8.321 -13.1054 -8.859 -4.573 -8.6665 -11.343 -3.999 
-8.849501 -10.8868 -9.677501 -4.312 -5.6145 -3.1915 -4.454 -6.603001 -8.132501 -7.91 -5.4885 -7.427001 -8.2115 -17.0126 -14.546 -11.2904 -5.8295 -7.4245 -8.937 -11.9117 -10.0185 -8.7115 -6.596 -6.1015 -5.054 -6.605 -10.9409 -9.328001 -7.361501 -5.7735 -6.4065 -5.692 -7.847501 -10.485 -15.3597 -16.3169 -9.5505 -11.2185 -12.2455 -10.7495 
-12.2636 -12.2758 -9.677501 -6.8695 -6.2945 -4.454 -7.231501 -9.831501 -11.1212 -7.91 -8.4205 -9.470501 -17.0126 -19.4066 -16.1559 -13.0459 -8.0045 -9.077001 -15.0099 -13.3277 -10.248 -11.2983 -6.73 -6.4575 -8.994 -12.7122 -10.9409 -12.5515 -10.4115 -6.4065 -6.51 -8.71 -14.388 -17.5237 -18.5712 -17.0084 -16.484 -16.7683 -13.0331 
-13.6526 -12.2758 -12.2656 -7.579 -7.3095 -7.231501 -10.6694 -12.888 -11.1212 -10.702 -9.573 -18.515 -19.4066 -21.0165 -17.9114 -15.2209 -9.7325 -15.1809 -16.4259 -13.5572 -12.8348 -11.4323 -7.007 -10.7575 -15.4414 -12.7122 -14.1644 -15.6015 -11.0445 -6.51 -9.302 -15.3879 -21.4267 -20.7352 -19.2627 -23.9419 -21.8526 -16.7683 
-4.1885 -1.934 -4.9175 -4.751 -3.5715 0 -3.8735 -3.7905 -1.4985 -4.015 -3.59 -3.851 -1.7695 -3.3715 -5.326 -2.872 -5.5785 -3.5745 -2.6165 -4.37 -1.934 -1.4985 -4.015 -4.759 -2.872 -2.9805 -4.443 -4.2285 -5.5715 -2.0935 -1.4985 -4.87 -1.7565 -3.8735 0 -4.4935 
-6.016001 -6.1035 -10.2185 -6.914001 -3.5715 -3.8735 -8.159 -4.969 -5.1595 -7.071501 -7.179 -4.0015 -5.0445 -7.778501 -7.426001 -8.602501 -8.3105 -4.114 -5.889 -4.568501 -2.6125 -5.1595 -9.328001 -7.361501 -4.6545 -5.631001 -7.929501 -7.428 -6.993001 -2.9725 -5.7685 -5.507 -5.112 -3.8735 -4.4935 
-9.347501 -11.8439 -12.3815 -6.914001 -8.637 -8.159 -9.157001 -8.7915 -8.628 -10.674 -7.2 -6.9725 -9.989 -9.092501 -13.4573 -10.0185 -8.7115 -6.596 -6.1015 -5.054 -6.605 -10.9409 -12.5515 -9.146501 -7.259 -8.993501 -9.082001 -8.3085 -7.598001 -6.9655 -6.0505 -9.355 -5.112 -6.1685 
-15.2427 -14.0069 -12.3815 -10.071 -13.2669 -9.157001 -13.3393 -10.468 -12.6637 -10.695 -9.8395 -12.3566 -11.4206 -15.5412 -14.8733 -10.248 -11.2983 -6.73 -6.4575 -8.994 -12.7122 -14.1644 -14.3365 -11.8542 -10.687 -10.2925 -10.0715 -8.8655 -12.084 -7.092501 -9.54 -9.355 -7.7 
-17.4057 -14.0069 -15.5385 -14.9477 -14.2649 -13.3393 -15.0158 -14.7361 -12.6847 -13.3345 -15.4052 -13.7882 -17.8693 -16.9572 -15.1028 -12.8348 -11.4323 -7.007 -10.7575 -15.4414 -15.9357 -15.9494 -17.0442 -15.2822 -11.986 -10.698 -10.367 -13.5551 -12.211 -10.5035 -9.54 -12.6526 
