-4.759 
n/a 
n/a 
n/a 
n/a 
-4.759 
n/a 
n/a 
n/a 
n/a 
-4.759 
n/a 
n/a 
n/a 
n/a 
-4.759 
n/a 
n/a 
n/a 
n/a 
-3.473 0 -5.1845 -5.3255 
-3.473 -5.1845 -9.1885 
-8.821 -9.1885 
-13.3474 
n/a 
-3.999 0 -5.1845 -4.567 -3.8905 -4.9225 
-3.999 -5.1845 -10.025 -9.4475 -8.352501 
-9.9755 -10.025 -15.1921 -14.0387 
-15.0712 -15.1921 -19.7833 
-20.2383 -19.7833 
-3.355 0 -5.1845 -3.8905 -7.9485 
-3.355 -5.1845 -9.558001 -13.0354 
-9.836 -9.558001 -18.7411 
-14.2905 -18.7411 
-23.4736 
-5.583 0 -5.1845 -3.5645 -4.975 -1.7695 -3.8905 0 
-5.583 -5.1845 -9.589001 -10.575 -6.283501 -5.2345 -3.8905 
-10.9075 -9.589001 -16.8685 -11.8835 -6.870501 -5.2345 
-15.312 -16.8685 -18.177 -12.4705 -6.870501 
-22.5915 -18.177 -18.764 -12.4705 
