-4.759 
n/a 
n/a 
n/a 
n/a 
-4.759 
n/a 
n/a 
n/a 
n/a 
-4.759 
n/a 
n/a 
n/a 
n/a 
-4.759 
n/a 
n/a 
n/a 
n/a 
-3.2615 -4.5065 0 -8.22 -1.7565 -4.9225 -4.874 0 -3.956 -4.1445 0 -6.3305 -3.091 -2.4285 -3.332 -3.635 -2.3345 -2.3615 -5.9805 -1.7565 -3.8275 
-7.6575 -4.5065 -8.22 -8.426001 -6.4125 -10.2535 -4.874 -3.956 -8.734 -4.1445 -6.3305 -9.8125 -4.9215 -4.844501 -6.798501 -6.0895 -4.499 -10.3285 -7.900001 -4.8265 
-7.6575 -13.1111 -8.426001 -13.3462 -12.1631 -10.2535 -9.4865 -8.734 -8.734 -11.4448 -9.8125 -11.7042 -4.929 -7.4845 -8.764001 -8.531501 -12.9694 -12.248 -11.388 
-16.8003 -13.3171 -13.3462 -19.0968 -12.1631 -14.866 -14.3187 -8.734 -16.1441 -14.9268 -11.7042 -11.7117 -7.4905 -9.276001 -11.373 -17.5365 -14.8889 -15.736 
-17.0063 -18.2373 -19.0968 -19.0968 -16.7756 -19.6982 -14.3187 -16.1441 -19.6261 -16.8185 -11.7117 -14.2732 -9.277 -12.053 -20.378 -19.456 -18.3769 
-3.2615 -4.5065 -3.3155 -3.0365 -2.7415 -1.8085 -4.101 -3.8275 -1.934 -1.4985 -3.59 -3.43 -3.3715 -3.966 -2.985 -3.3435 0 -5.8955 0 -5.228 0 -1.756 -3.563 -2.5045 -5.084 
-7.6575 -7.747001 -5.0985 -4.2225 -3.891 -6.9575 -7.710001 -5.2615 -2.6125 -4.268 -7.35 -6.2845 -7.446501 -5.648 -5.5965 -3.3435 -5.8955 -5.8955 -5.228 -5.228 -1.756 -5.2 -6.0515 -6.9305 
-11.4362 -9.714001 -6.239501 -4.725 -8.9875 -10.2275 -9.054501 -6.1145 -4.955501 -7.884 -10.2185 -10.8409 -8.196001 -7.639 -5.5965 -9.5775 -5.8955 -12.1151 -5.228 -6.4125 -5.2 -7.843 -11.9107 
-13.4032 -10.663 -6.7465 -10.034 -12.8297 -11.795 -9.739501 -8.192 -8.611501 -10.564 -14.7749 -11.5904 -9.7755 -7.639 -10.4265 -9.5775 -12.1151 -12.1151 -6.4125 -10.575 -7.843 -14.0672 
-14.3522 -11.17 -12.1439 -13.4446 -14.3972 -12.48 -11.817 -12.1044 -11.4099 -15.1204 -15.5244 -13.1699 -9.7755 -13.213 -10.4265 -15.9343 -12.1151 -13.2996 -10.575 -13.218 -14.0672 
-1.934 -1.4985 -3.158 -1.7565 -4.5065 -3.3715 -3.277 -4.129 -1.4985 -4.901 -4.043 -1.934 -1.934 -3.59 -3.8275 0 -4.335 -1.7565 -3.1385 -3.956 -1.756 -2.925 -3.931 -1.7565 -2.985 -3.5895 -1.756 -2.925 -3.7905 -8.590501 0 
-2.6125 -4.178 -4.71 -6.5 -8.325001 -4.9255 -6.7425 -5.6875 -6.05 -9.0345 -6.035501 -5.3235 -5.832 -8.274 -3.8275 -4.335 -4.436 -4.388 -8.0245 -5.301 -4.2585 -8.508 -4.616 -3.9355 -5.613501 -4.937 -4.2585 -5.532001 -13.7758 -8.590501 
-5.265 -5.562 -8.9615 -10.0885 -10.218 -8.4645 -8.8745 -10.8164 -10.3345 -11.2662 -9.894501 -8.870001 -10.292 -8.274 -8.0255 -4.436 -5.6465 -9.571 -9.279501 -7.725 -9.948 -9.9585 -6.681 -6.603 -6.737 -6.9185 -7.0865 -15.6559 -13.7758 
-6.3135 -9.359501 -12.7254 -12.0615 -13.757 -10.7025 -14.3448 -15.1009 -12.5662 -15.1252 -13.6376 -13.3986 -10.292 -12.7552 -8.1415 -5.6465 -11.3079 -10.5345 -11.9529 -13.4641 -11.3985 -12.0235 -9.347501 -7.793 -8.158501 -10.0785 -17.3088 -15.6559 
-9.585001 -13.1862 -14.6984 -15.6005 -15.995 -16.1728 -18.6293 -17.3326 -16.4252 -18.8683 -18.1662 -13.3986 -14.7732 -12.8712 -9.286 -11.3079 -12.2714 -13.2079 -17.692 -14.9146 -13.4635 -14.69 -10.164 -9.213 -10.6735 -20.3836 -17.3088 
-3.2615 -4.5065 0 -3.851 -1.7695 -1.4985 -4.058 -3.8275 0 -1.934 -2.9705 -4.519 -3.152 -3.2955 0 -4.335 -1.7565 -3.1385 -3.858 -3.966 -2.985 -4.221 0 -3.152 -4.874 -7.0585 0 -3.152 -3.43 -5.084 -2.4285 -3.966 -2.5685 -2.985 -4.6555 0 
-7.6575 -4.5065 -3.851 -4.0015 -2.7955 -5.0995 -4.954 -3.8275 -1.934 -4.051 -8.21 -6.7745 -5.165 -3.2955 -4.335 -4.436 -4.388 -6.7875 -7.323501 -5.648 -5.038 -4.221 -3.152 -6.21 -10.2865 -7.0585 -3.152 -5.144 -8.402 -7.3305 -6.1425 -6.0865 -5.283 -6.4995 -4.6555 
-7.6575 -8.428 -4.0015 -4.5775 -6.426 -5.56 -4.954 -5.2615 -4.051 -8.8765 -9.491501 -8.769 -5.165 -8.1415 -4.436 -5.6465 -7.937001 -10.061 -8.2805 -6.4445 -5.038 -6.541 -6.21 -12.4649 -10.2865 -10.427 -5.144 -8.987 -10.281 -11.6965 -8.7545 -7.5 -8.189501 -6.4995 
-10.5225 -8.524501 -4.5775 -8.295 -6.9835 -5.56 -6.3775 -7.006 -8.8765 -9.913 -11.5478 -8.769 -9.7795 -8.2045 -5.6465 -9.498 -11.2855 -10.4735 -9.6175 -6.4445 -7.191501 -10.061 -12.4649 -12.4649 -13.655 -12.419 -8.987 -11.0554 -14.647 -14.3085 -9.989501 -9.820001 -8.189501 
-10.58 -9.043501 -8.295 -8.4525 -6.9835 -6.7445 -7.916 -12.1397 -9.913 -12.0793 -11.5478 -13.3315 -9.802 -10.2865 -9.498 -12.9437 -11.698 -11.8105 -9.6175 -8.9635 -10.1425 -16.6503 -12.4649 -15.8334 -15.647 -16.262 -11.0554 -15.4214 -17.259 -15.5435 -12.4767 -9.820001 
