-4.759 
n/a 
n/a 
n/a 
n/a 
-4.759 
n/a 
n/a 
n/a 
n/a 
-4.759 
n/a 
n/a 
n/a 
n/a 
-4.759 
n/a 
n/a 
n/a 
n/a 
-4.1035 -1.7565 -4.812 0 -4.2655 -1.7565 -5.1845 -3.1385 0 
-5.0635 -6.211501 -4.812 -4.2655 -6.026 -6.580501 -7.4095 -3.1385 
-9.993101 -6.211501 -9.790001 -6.026 -10.7335 -8.684001 -7.4095 
-9.993101 -10.061 -11.6743 -10.7335 -12.837 -8.684001 
-13.8426 -11.9675 -16.3818 -12.837 -12.837 
-4.0105 -4.928 0 -6.4735 -4.2655 0 -8.5795 0 
-10.111 -4.928 -6.4735 -11.08 -4.2655 -8.5795 -8.5795 
-10.111 -12.6055 -11.08 -11.08 -14.0802 -8.5795 
-17.7885 -17.212 -11.08 -20.8947 -14.0802 
-22.395 -17.212 -20.8947 -20.8947 

n/a 
n/a 
n/a 
n/a 
-3.0835 -4.867 0 -4.2655 -1.7565 -5.1845 -23.077 
-7.389 -4.867 -4.2655 -6.026 -6.580501 -29.7602 
-7.389 -9.0705 -6.026 -10.7335 -28.4662 
-12.0241 -11.177 -10.7335 -32.6606 
-14.1306 -15.8845 -32.6606 
