-4.759 
n/a 
n/a 
n/a 
n/a 
-4.759 
n/a 
n/a 
n/a 
n/a 
-4.759 
n/a 
n/a 
n/a 
n/a 
-4.759 
n/a 
n/a 
n/a 
n/a 
-5.9975 -4.687 -3.6215 0 -4.3105 -6.3175 -5.3265 -4.232 -4.8785 0 
-11.8445 -9.296 -3.6215 -4.3105 -12.042 -13.1122 -10.907 -9.192 -4.8785 
-16.4535 -9.296 -8.3835 -12.042 -18.8367 -18.6927 -15.867 -9.192 
-16.4535 -14.5386 -16.6326 -18.8367 -24.4172 -23.6527 -15.867 
-21.6961 -22.7877 -23.4273 -24.4172 -29.3772 -23.6527 
-11.0905 -2.229 -3.6285 -3.6215 0 -4.8785 -1.7565 -1.4985 -4.87 -5.7565 -1.7695 -3.8655 0 
-13.3195 -6.109 -7.1235 -3.6215 -4.8785 -7.544001 -2.4195 -5.68 -11.9025 -6.202 -5.6875 -3.8655 
-17.1995 -10.101 -7.1235 -8.328501 -7.544001 -8.234001 -6.4075 -13.0173 -12.348 -7.858 -5.6875 
-21.1915 -10.101 -13.1975 -11.3446 -8.234001 -12.695 -13.8702 -13.4628 -14.004 -7.858 
-21.1915 -16.175 -16.2136 -12.0346 -12.695 -20.1577 -14.3157 -15.1188 -14.004 
-12.16972 -4.687 -7.5645 0 -3.6135 -3.5015 -2.0935 -8.6995 -5.3265 
-16.85672 -13.1275 -7.5645 -3.6135 -7.1185 -4.7905 -10.784 -14.3112 
-25.29722 -13.1275 -11.674 -7.1185 -8.7425 -14.1614 -16.3957 
-25.29722 -17.237 -15.179 -8.7425 -18.2268 -19.7731 
-29.40672 -20.742 -16.803 -18.2268 -23.8385 
-12.16972 -2.229 -3.6285 -3.6215 -7.850501 -5.3265 
-14.39872 -6.109 -7.1235 -12.7188 -14.374 
-18.27872 -10.101 -17.5878 -19.2423 
-22.27072 -20.5653 -24.1113 
-32.73502 -27.0888 
