-4.759 
n/a 
n/a 
n/a 
n/a 
-4.759 
n/a 
n/a 
n/a 
n/a 
-4.759 
n/a 
n/a 
n/a 
n/a 
-4.759 
n/a 
n/a 
n/a 
n/a 
-3.2615 -2.3335 -2.7295 -2.7765 -3.429 -1.4985 -3.784 
-5.0495 -4.056 -4.065 -4.863501 -4.4635 -4.6165 
-6.4685 -5.108 -6.0675 -5.968 -7.474 
-7.8495 -7.104 -7.162 -9.139501 
-9.843 -8.2045 -9.76 
-3.882 -2.7295 -2.742 -3.047 -1.4985 -4.724 -3.681 
-5.851501 -4.076 -4.9075 -4.095 -5.483 -7.286501 
-7.1035 -5.7905 -5.7055 -8.843 -8.184 
-8.2745 -6.893 -10.45 -10.5975 
-9.543501 -11.7957 -12.2045 
-3.2615 -2.3335 -3.2955 -4.4345 
-5.0495 -5.6995 -8.2255 
-8.829 -10.757 
-14.1543 
n/a 
-3.2615 -2.3335 -3.784 -4.598 0 
-5.0495 -6.617001 -7.5525 -4.598 
-9.477 -10.5943 -7.5525 
-13.7783 -10.5943 
-13.7783 
