-4.759 
n/a 
n/a 
n/a 
n/a 
-4.759 
n/a 
n/a 
n/a 
n/a 
-4.759 
n/a 
n/a 
n/a 
n/a 
-4.759 
n/a 
n/a 
n/a 
n/a 
-5.4085 -4.7375 -1.7695 -3.429 -1.8085 -4.3005 -3.441 0 -3.1635 0 -4.0445 -1.7695 -1.4985 -3.6885 -1.7565 -5.8215 0 -3.737 -4.285 -3.77 -1.7695 -5.1935 -4.018 -3.1575 -5.022 -1.7695 -4.301 -4.285 0 
-9.197001 -4.768 -4.032 -4.274 -5.5055 -7.9995 -3.441 -3.1635 -3.1635 -4.0445 -4.6 -2.7955 -4.307 -5.0885 -6.815001 -5.8215 -3.737 -8.934 -8.455501 -4.2755 -6.178501 -9.4805 -4.2785 -7.1035 -5.0715 -4.541 -6.4985 -4.285 
-9.21 -6.8395 -4.972 -8.347 -9.506001 -7.9995 -7.338 -3.1635 -8.587501 -4.6 -5.554501 -5.7665 -5.2585 -9.1405 -6.815001 -9.569 -8.934 -10.4185 -8.762001 -8.3995 -9.995001 -9.5625 -7.2155 -7.1515 -7.598001 -6.611001 -6.4985 
-10.505 -7.6755 -9.13 -10.4505 -9.506001 -12.3429 -7.338 -8.587501 -9.386001 -5.554501 -7.022501 -6.2405 -9.3465 -9.1405 -10.3815 -10.5345 -10.4185 -10.4315 -10.3675 -10.426 -10.0085 -10.4375 -7.261 -9.552501 -10.176 -6.611001 
-10.53 -10.3955 -10.5135 -10.4505 -13.9914 -12.3429 -13.2926 -9.386001 -9.8955 -7.022501 -7.418 -10.15 -9.3465 -10.534 -10.5445 -10.5515 -10.4315 -10.468 -10.4455 -10.439 -10.444 -10.451 -9.7075 -10.452 -10.176 
-4.3655 -1.7695 -4.224 -3.135 -5.593 0 -3.5185 -1.4985 -3.931 -1.7695 -3.74 -1.7695 -3.908 -2.3615 -3.6885 -3.1435 -3.77 0 
-7.3325 -5.104 -6.8635 -7.7 -5.593 -3.5185 -4.9765 -5.055 -5.494 -4.605 -4.2995 -5.3245 -6.351501 -4.932 -7.061501 -6.336 -3.77 
-11.1206 -7.5065 -12.3387 -7.7 -10.048 -4.9765 -9.583501 -6.7095 -9.1525 -5.104001 -7.109001 -7.195 -8.6005 -8.189 -9.484 -6.336 
-13.5231 -12.9523 -12.3387 -12.8884 -11.456 -9.583501 -11.1156 -10.765 -9.408501 -8.037001 -8.897501 -8.883 -12.1151 -10.7701 -9.484 
-18.9689 -12.9523 -17.5271 -14.2964 -16.063 -11.1156 -15.1711 -11.021 -12.6213 -9.611001 -11.1097 -12.579 -14.6962 -10.7701 
-3.331 -1.7565 -1.4985 -4.6095 -1.934 -1.4985 -3.383 -4.4155 0 -3.9115 -1.7565 -1.4985 -3.74 -4.2985 -1.934 -1.4985 -3.383 -3.699 0 
-6.303 -2.4195 -5.984 -6.231501 -2.6125 -4.554501 -6.269 -4.4155 -3.9115 -5.1855 -2.4195 -6.5415 -9.1665 -5.905 -2.6125 -4.554501 -5.014 -3.699 
-6.9655 -6.967501 -7.670001 -6.948501 -5.789001 -8.189501 -6.269 -8.568501 -5.1855 -5.659 -7.611501 -12.42 -10.8736 -6.705 -5.789001 -6.9925 -5.014 
-12.0509 -8.3745 -8.236001 -9.652501 -9.964001 -8.189501 -10.5325 -10.5865 -5.659 -11.4788 -13.9282 -14.1271 -11.6736 -10.142 -8.3885 -6.9925 
-13.4579 -9.0635 -11.1038 -14.4513 -9.964001 -12.5272 -12.5505 -11.06 -11.4788 -17.7955 -15.6353 -14.9271 -15.1106 -12.8569 -8.3885 
-3.851 -1.7695 -1.4985 -3.8035 -4.413 -2.3345 -5.5325 -4.856 0 -5.4085 -4.317 -1.7695 -4.3005 -3.441 -4.2715 -3.098 0 -2.5045 -2.4265 -2.186 -3.757 -3.77 -1.7695 -3.0465 -4.875 -1.7565 -2.9325 -2.186 -4.9345 -4.018 -3.1575 -4.0955 -1.7695 -5.2605 -4.856 
-4.0015 -2.7955 -5.0335 -6.3315 -4.6955 -7.615001 -7.8135 -4.856 -5.4085 -11.1865 -5.7675 -6.568501 -7.9995 -5.7895 -7.18 -3.098 -2.5045 -4.228 -3.292 -4.779 -6.3125 -4.2755 -3.683 -5.0775 -4.9685 -4.416 -3.8335 -6.226501 -8.4065 -4.2785 -6.297501 -4.1555 -5.875501 -9.918001 
-4.5775 -6.2735 -7.037 -6.3665 -8.6875 -10.213 -7.8135 -11.2475 -11.1865 -12.637 -9.818001 -9.7915 -9.8365 -8.977501 -7.18 -5.3345 -4.228 -4.900001 -5.692 -7.555501 -6.6245 -5.82 -5.400001 -5.083 -7.7945 -5.4605 -8.962501 -9.645 -8.515 -6.556 -6.3145 -7.8245 -10.085 
-7.694 -8.1315 -7.0665 -10.6797 -11.5523 -10.213 -15.0292 -17.0255 -12.637 -16.6875 -13.0984 -11.6737 -13.0821 -8.977501 -9.216001 -7.2945 -4.900001 -7.658501 -8.015 -7.8925 -7.933 -7.931 -5.405 -7.943501 -8.761001 -10.071 -12.581 -9.731501 -10.6745 -6.571 -9.978001 -12.436 
-9.2665 -8.1495 -11.5095 -13.5445 -11.5523 -17.1645 -20.8072 -18.476 -16.6875 -19.9679 -14.9806 -14.9193 -13.0821 -10.7175 -11.4908 -7.9355 -7.658501 -10.118 -8.082001 -9.278501 -9.9775 -7.942501 -8.2375 -8.933001 -13.6415 -13.6895 -12.6675 -11.891 -10.6975 -10.1675 -14.6899 
