-4.759 
n/a 
n/a 
n/a 
n/a 
-4.759 
n/a 
n/a 
n/a 
n/a 
-4.759 
n/a 
n/a 
n/a 
n/a 
-4.759 
n/a 
n/a 
n/a 
n/a 
-2.872 -3.4225 -3.1715 -3.5435 0 -5.2165 -3.5745 -2.6165 -2.674 -2.9995 -4.9955 -1.7695 -3.6845 -1.4985 -3.766 -4.1 0 
-7.449501 -6.440001 -5.3835 -3.5435 -5.2165 -9.467001 -4.114 -4.2165 -4.4625 -6.7285 -5.5145 -4.2695 -4.8155 -5.186501 -7.095 -4.1 
-10.5855 -8.370501 -5.3835 -9.7185 -9.467001 -9.8155 -5.3095 -5.3575 -7.586 -7.283 -7.6145 -5.329 -8.942 -8.6765 -7.095 
-12.516 -8.370501 -12.0557 -14.1376 -9.8155 -11.011 -6.367 -8.291 -8.2805 -9.174 -8.3795 -9.389501 -12.5392 -8.6765 
-12.516 -15.3419 -16.4748 -14.4861 -11.011 -12.0685 -8.8715 -8.776501 -10.253 -10.61 -12.8546 -13.0141 -12.5392 
-4.426 -1.7565 -1.4985 -3.6115 -4.7285 -4.1555 -3.147 -3.0415 0 -12.16972 -3.5435 -12.16972 -3.135 -4.248 -2.6165 0 
-5.47 -2.4195 -4.081 -6.5495 -8.4455 -5.77 -5.6805 -3.0415 -12.16972 -15.71322 -17.14022 -15.30472 -7.3 -6.8755 -2.6165 
-5.9535 -5.180501 -6.670501 -9.978001 -9.541501 -8.875001 -5.6805 -16.30202 -15.71322 -29.30994 -20.27522 -19.46972 -9.8465 -6.8755 
-8.462501 -7.797 -10.054 -11.0524 -12.6465 -8.875001 -19.63222 -19.84552 -29.30994 -32.44494 -24.44022 -22.01622 -9.8465 
-10.2375 -11.2985 -11.1648 -14.1574 -12.6465 -22.93692 -23.17572 -33.44224 -32.44494 -36.60994 -26.98672 -22.01622 
-3.5725 -3.4225 -3.892 -3.5435 -5.2165 -6.6835 -2.674 -2.9995 -4.0395 -1.7695 -3.6845 -2.9995 -3.766 -4.9295 -3.519 0 
-8.098001 -9.130001 -7.5905 -9.7185 -12.874 -8.43 -4.4625 -5.704 -5.285 -4.2695 -5.9635 -6.6965 -8.501501 -7.7485 -3.519 
-13.6563 -12.9041 -14.1097 -17.5446 -14.6205 -9.358001 -6.1925 -7.682 -7.330501 -6.4865 -9.8125 -12.2462 -11.5249 -7.7485 
-17.4304 -19.4233 -21.9358 -19.2911 -15.5485 -11.122 -8.1745 -10.5035 -10.0095 -10.426 -15.7242 -15.2696 -11.5249 
-23.9496 -27.2494 -23.6823 -20.2191 -17.3125 -13.104 -10.749 -13.1825 -13.949 -16.3535 -18.7476 -15.2696 
-3.4765 -4.275 -10.488 -3.5435 0 -3.013 -5.651501 -3.0465 -2.9995 -3.766 -3.5435 -2.0935 -10.6015 0 
-8.070001 -14.9506 -14.0315 -3.5435 -3.013 -8.529501 -6.711 -5.472 -6.6965 -6.226501 -5.7 -13.686 -10.6015 
-19.405 -18.4941 -14.0315 -6.8125 -7.7565 -11.0715 -9.532001 -9.740001 -9.589001 -7.976 -18.1003 -13.686 
-22.9485 -18.4941 -17.3005 -12.0748 -9.7915 -11.192 -14.149 -12.6159 -11.5597 -20.7671 -18.1003 
-22.9485 -21.7631 -22.5628 -14.1098 -11.2438 -15.8257 -17.0233 -14.5866 -24.3508 -20.7671 
