-4.759 
n/a 
n/a 
n/a 
n/a 
-4.759 
n/a 
n/a 
n/a 
n/a 
-4.759 
n/a 
n/a 
n/a 
n/a 
-4.759 
n/a 
n/a 
n/a 
n/a 
-4.811 0 -8.5655 -10.406 0 -5.943501 0 
-4.811 -8.5655 -10.5535 -10.406 -5.943501 -5.943501 
-13.9383 -10.5535 -10.5535 -16.4527 -5.943501 
-15.9263 -10.5535 -16.6002 -16.4527 
-15.9263 -16.6002 -16.6002 
-4.811 0 -8.5655 -10.406 0 -5.943501 0 
-4.811 -8.5655 -10.5535 -10.406 -5.943501 -5.943501 
-13.9383 -10.5535 -10.5535 -16.4527 -5.943501 
-15.9263 -10.5535 -16.6002 -16.4527 
-15.9263 -16.6002 -16.6002 
-13.3765 -10.406 0 -5.943501 0 
-15.9263 -10.406 -5.943501 -5.943501 
-15.9263 -16.4527 -5.943501 
-21.973 -16.4527 
-21.973 
-4.811 0 -8.5655 -10.406 0 -5.943501 0 
-4.811 -8.5655 -10.5535 -10.406 -5.943501 -5.943501 
-13.9383 -10.5535 -10.5535 -16.4527 -5.943501 
-15.9263 -10.5535 -16.6002 -16.4527 
-15.9263 -16.6002 -16.6002 
