-4.759 
n/a 
n/a 
n/a 
n/a 
-4.759 
n/a 
n/a 
n/a 
n/a 
-4.759 
n/a 
n/a 
n/a 
n/a 
-4.759 
n/a 
n/a 
n/a 
n/a 
-6.4185 -3.4795 -3.995 -2.186 -3.849 -8.2215 -3.995 
-6.943 -8.1335 -5.7465 -4.8565 -12.2311 -10.2185 
-12.0066 -10.2385 -8.3975 -13.5196 -14.2281 
-14.1116 -12.8895 -17.2822 -15.5166 
-16.7626 -21.7742 -19.2792 
-3.45 -3.4795 -3.995 -2.7415 -3.849 -5.3535 -4.243 -3.995 
-5.6655 -8.1335 -6.3075 -5.431 -9.097 -8.991501 -8.5325 
-10.5325 -10.5135 -9.2755 -11.0678 -12.8476 -13.592 
-12.9125 -13.4815 -15.0449 -14.8184 -17.4481 
-15.8805 -19.2509 -18.7955 -19.4189 
-2.3335 -2.95 -3.995 -3.5395 0 -12.16972 -8.773001 0 
-4.8245 -6.176 -7.265 -3.5395 -12.16972 -20.94272 -8.773001 
-9.335001 -11.4524 -7.265 -16.57082 -20.94272 -20.94272 
-15.044 -11.4524 -21.71772 -25.34382 -20.94272 
-15.044 -25.90512 -30.49072 -25.34382 
-2.5045 -2.3335 -2.95 -3.995 -2.186 -3.849 -2.5045 -10.0295 -3.995 
-4.744 -4.8245 -6.176 -5.7465 -4.8565 -6.305 -13.4514 -14.0593 
-5.158 -9.335001 -9.3505 -8.3975 -7.104 -17.3555 -17.4812 
-9.594001 -12.9421 -12.0051 -10.8666 -18.2843 -21.3853 
-13.3329 -15.5967 -14.4742 -22.0469 -22.3141 
