-4.759 
n/a 
n/a 
n/a 
n/a 
-4.759 
n/a 
n/a 
n/a 
n/a 
-4.759 
n/a 
n/a 
n/a 
n/a 
-4.759 
n/a 
n/a 
n/a 
n/a 
-5.1845 -3.6885 -3.3825 -1.756 -3.913 0 -3.325 -5.363 -1.756 -4.761 -7.988501 -2.229 -4.5735 0 -4.43 -4.688 0 -7.235 -3.4715 -3.634 0 -4.657 0 -3.8225 -3.1385 -4.5735 0 -4.884 -3.843 -2.674 -4.4525 -1.934 -6.557 -8.776501 
-7.323501 -6.2285 -4.5235 -5.426 -3.913 -3.325 -7.3205 -6.7375 -5.994 -14.1527 -8.602 -6.307 -4.5735 -4.43 -7.608001 -4.688 -7.235 -9.8325 -7.206 -3.634 -4.657 -4.657 -3.8225 -6.4475 -7.992001 -4.5735 -4.884 -7.963 -6.383 -8.0205 -5.908501 -7.536 -16.0229 
-10.757 -7.229001 -7.454 -5.426 -6.4275 -7.3205 -8.425 -10.361 -16.0891 -14.7662 -13.1018 -6.307 -11.0145 -7.608001 -7.608001 -13.063 -9.8325 -13.6666 -7.206 -8.855 -4.657 -9.3205 -6.4475 -11.5678 -7.992001 -9.2045 -7.963 -10.354 -12.0397 -8.645 -12.0843 -17.2497 
-11.7575 -10.7625 -7.454 -8.0465 -11.249 -8.425 -10.564 -20.4561 -16.7026 -19.266 -13.1018 -13.3252 -14.1925 -7.608001 -16.5146 -15.6605 -13.6666 -13.6666 -12.9212 -8.855 -9.3205 -12.0733 -11.5678 -11.5678 -13.2018 -12.7015 -10.354 -16.0107 -12.6642 -14.9504 -21.798 
-15.291 -10.7625 -10.6567 -13.1562 -12.3535 -10.564 -20.6591 -21.0696 -21.2024 -19.266 -20.12 -16.5032 -14.1925 -16.5146 -19.1121 -19.4946 -13.6666 -19.3818 -12.9212 -13.6737 -12.0733 -17.1936 -11.5678 -16.7776 -16.6988 -15.0925 -16.0107 -16.6352 -18.9696 -24.6641 
-5.1845 -3.6885 -3.3825 -1.756 -3.913 0 -3.644 -5.891 -1.756 -4.761 -3.1385 -3.3435 0 -5.3445 0 -7.235 -3.9075 -6.56 -3.6885 0 -4.657 0 -4.724 -3.1385 -1.756 -5.7385 -3.1385 -4.2085 -3.45 -2.4945 -5.1845 -5.74 -2.229 -3.699 -3.97 0 
-7.323501 -6.2285 -4.5235 -5.426 -3.913 -3.644 -7.533501 -7.0585 -5.994 -7.5225 -7.031 -3.3435 -5.3445 -5.3445 -7.235 -8.561 -11.4913 -10.151 -3.6885 -4.657 -4.657 -4.724 -5.993001 -4.6325 -7.1745 -8.952001 -8.0835 -8.297501 -5.354 -8.5895 -5.7465 -7.966001 -5.301 -8.6215 -3.97 
-10.757 -7.229001 -7.454 -5.426 -7.652 -7.533501 -8.802501 -10.025 -8.779 -10.259 -7.031 -9.896501 -5.3445 -13.6609 -8.561 -16.466 -15.0823 -10.151 -8.7305 -4.657 -9.683001 -5.993001 -7.314001 -10.143 -10.0315 -14.125 -12.7843 -9.470501 -11.8366 -9.679001 -7.9785 -11.3478 -11.2713 -8.6215 
-11.7575 -10.7625 -7.454 -9.5775 -12.1253 -8.802501 -11.9486 -12.9122 -11.5703 -10.259 -14.2882 -9.896501 -13.6609 -14.9869 -16.466 -20.057 -15.0823 -15.193 -8.7305 -9.683001 -10.525 -7.314001 -13.1435 -13.134 -15.2045 -18.8258 -13.9573 -16.2253 -12.9261 -11.943 -11.3645 -17.3181 -11.2713 
-15.291 -10.7625 -12.1877 -14.2362 -13.3943 -11.9486 -14.8358 -15.7035 -11.5703 -18.4938 -14.2882 -18.3795 -14.9869 -22.8919 -20.057 -20.057 -20.1243 -15.193 -13.9427 -10.525 -11.846 -13.1435 -16.1345 -18.307 -19.9053 -19.9988 -20.7121 -17.3148 -15.1901 -15.329 -17.3348 -17.3181 
-5.1845 -3.6885 -3.898 -1.756 -4.5735 0 -5.2705 -1.756 -3.17 -5.2705 0 -3.873 -9.337501 -7.235 -3.4715 -3.4465 -2.186 -1.934 -1.4985 -4.4525 -1.7565 -1.4985 -4.4525 -6.557 -3.97 
-7.323501 -8.269501 -4.9375 -5.466001 -4.5735 -5.2705 -6.627501 -4.684 -7.6175 -5.2705 -3.873 -14.2809 -16.6259 -9.8325 -7.776501 -6.1055 -4.0835 -2.6125 -4.731 -4.6715 -2.4195 -4.731 -12.3661 -9.6175 
-12.4059 -9.235001 -7.961 -5.466001 -10.2645 -6.627501 -9.521 -8.937 -7.6175 -9.146 -14.2809 -21.5693 -19.2234 -14.2371 -9.555 -8.2015 -4.6915 -6.805 -4.7575 -5.560501 -5.874001 -13.8562 -15.4266 
-13.3714 -12.4193 -7.961 -11.5872 -11.8909 -9.521 -10.2655 -8.937 -11.9758 -19.7867 -21.5693 -24.1668 -23.628 -16.0156 -11.7982 -8.774 -9.4725 -6.8455 -5.6675 -9.206501 -15.017 -16.9167 
-16.5557 -12.4193 -14.4882 -13.2136 -14.7844 -10.2655 -10.2655 -13.4129 -22.6165 -27.0751 -24.1668 -28.5714 -25.4065 -18.2588 -12.3707 -13.7764 -9.683001 -7.85 -9.3135 -18.7857 -18.0775 
-3.898 -1.7565 -5.1845 -3.6885 -1.756 -3.1435 -3.913 0 -7.1115 -1.7565 -6.7475 -1.756 -1.4985 -5.1685 0 -4.688 0 -7.400001 -3.9075 -3.4715 -4.23 -4.602 0 -4.657 0 -7.14 -1.756 -6.2805 -1.7565 -10.8045 -4.231 -1.756 -4.884 -2.4945 -3.9225 -1.4985 -3.794 -2.3335 -4.5645 -4.926 -4.904 -1.934 -5.1845 -5.74 -3.97 0 
-4.9795 -6.580501 -7.323501 -5.041 -4.1365 -6.943501 -3.913 -7.1115 -7.562 -8.3765 -7.712501 -3.0405 -6.8865 -5.1685 -4.688 -4.688 -7.400001 -8.385501 -6.1635 -7.2415 -8.797501 -4.602 -4.657 -4.657 -7.14 -8.236501 -7.7075 -6.457 -9.6475 -10.133 -5.858001 -6.022 -7.233001 -5.49 -4.463 -5.4595 -5.8385 -7.1625 -8.926001 -7.8755 -6.2555 -6.564 -5.7465 -9.189501 -3.97 
-9.765501 -8.634001 -8.563001 -7.044 -7.8875 -6.943501 -11.136 -7.562 -10.0315 -9.67 -8.547501 -8.273 -6.8865 -10.382 -4.688 -13.228 -8.385501 -9.6815 -9.08 -9.772 -8.797501 -10.2385 -4.657 -13.0454 -8.236501 -14.4064 -7.910501 -12.796 -9.726501 -9.642 -10.8558 -7.7485 -9.514501 -5.6085 -6.1755 -6.707 -10.4855 -11.3512 -10.143 -8.653 -11.3871 -6.819 -9.1905 -9.189501 
-10.7625 -9.512501 -10.243 -11.4524 -7.8875 -14.7337 -11.5865 -10.0315 -11.325 -10.505 -14.0348 -8.273 -12.7238 -10.382 -13.228 -14.2135 -9.6815 -12.864 -10.7335 -9.772 -14.6858 -10.2385 -13.0454 -14.1419 -14.4064 -14.6094 -14.5635 -13.4307 -10.8895 -14.8092 -12.5823 -9.85 -9.647501 -7.9335 -8.347 -11.7012 -14.6742 -12.5682 -10.9205 -13.9094 -11.6421 -9.863001 -9.1905 
-11.641 -11.3305 -14.6514 -11.4524 -15.8387 -15.1842 -14.056 -11.325 -12.16 -15.9923 -14.0348 -14.2841 -12.7238 -19.154 -14.2135 -15.5095 -12.864 -14.5175 -10.7335 -15.6987 -14.6858 -18.6269 -14.1419 -20.3118 -14.6094 -21.2624 -14.954 -14.3682 -16.0094 -16.6339 -14.6838 -9.986501 -12.0283 -9.009501 -13.6256 -15.8899 -15.8912 -13.3457 -16.1769 -14.1644 -14.6861 -9.863001 
