-4.759 
n/a 
n/a 
n/a 
n/a 
-4.759 
n/a 
n/a 
n/a 
n/a 
-4.759 
n/a 
n/a 
n/a 
n/a 
-4.759 
n/a 
n/a 
n/a 
n/a 
-4.994 -4.3735 -3.868 -3.1385 -1.7565 -3.8655 -3.325 -1.4985 -3.717 -1.7565 -3.133 -1.7695 -3.916 -3.277 -2.674 -1.8085 -4.082 -2.4285 -3.0365 -2.4945 -4.077 -1.934 -1.8085 -3.0435 0 
-6.857501 -6.389 -7.717 -4.861 -5.196 -7.101501 -3.898 -5.2815 -5.34 -5.2 -5.4255 -5.834001 -5.7535 -5.6975 -3.63 -5.2615 -5.7815 -5.819 -3.688 -5.416 -4.43 -3.2685 -4.549 -3.0435 
-7.582001 -10.553 -8.659 -7.526501 -8.427501 -7.575 -6.749 -5.745 -9.066501 -6.863501 -7.811 -7.354501 -8.6855 -7.534 -6.7065 -6.6645 -9.969501 -6.734 -8.729501 -5.615 -5.626 -6.1245 -4.549 
-12.3238 -11.495 -12.1931 -11.2264 -8.7445 -10.8636 -6.949 -9.7665 -9.9595 -8.580001 -9.071 -9.98 -9.691 -10.0125 -8.0305 -11.3693 -10.762 -11.8581 -8.996 -6.6085 -8.026501 -6.1245 
-13.2658 -15.0291 -15.893 -11.5434 -12.1219 -11.0636 -11.2267 -10.8727 -11.8666 -10.3095 -11.8851 -11.0847 -12.2695 -11.6519 -12.8871 -12.1618 -15.8861 -12.1246 -10.177 -8.998 -8.026501 
-3.8045 0 -1.934 -1.4985 -3.7515 -3.2795 -1.7565 -8.469001 -3.916 -2.8645 -3.7555 -4.2275 -1.934 -3.8435 -12.16972 
-3.8045 -1.934 -2.6125 -4.705501 -5.3235 -4.4575 -9.8655 -10.7335 -7.4965 -5.647 -9.0015 -5.521 -6.042 -17.79362 
-6.34 -2.6125 -5.818 -6.618001 -6.9675 -13.1753 -12.1526 -14.314 -10.5975 -10.3475 -10.5535 -8.342001 -20.51332 
-7.271 -5.818 -7.0535 -7.261001 -16.5961 -15.4624 -15.7331 -17.415 -15.298 -12.1305 -13.3745 -23.90592 
-10.5425 -7.0535 -7.5295 -17.5554 -18.8832 -19.0429 -18.8341 -22.1155 -17.081 -14.9515 -28.93842 
-3.133 -1.7695 -3.916 -3.5725 -4.3105 -3.8045 -4.4345 -4.9225 -3.6845 -4.2275 -2.0935 -3.0435 -6.552001 0 
-5.4255 -5.834001 -8.309501 -9.288 -9.832001 -8.327 -10.7608 -8.931 -8.653501 -5.864501 -4.811 -9.212501 -6.552001 
-7.811 -10.0035 -14.2472 -14.8967 -14.3545 -14.9555 -14.7693 -14.086 -10.061 -9.317501 -10.688 -9.212501 
-12.2695 -15.9412 -19.8559 -19.4192 -20.983 -18.964 -19.9243 -15.4935 -13.9006 -15.2691 -10.688 
-18.2072 -21.5499 -24.3784 -26.0477 -24.9915 -24.119 -21.3318 -19.3331 -19.8522 -15.2691 
-3.6215 -3.8045 0 -1.7565 -1.4985 -3.1385 -3.6215 -3.133 -1.7695 -3.916 -1.934 -3.8655 -5.179 -3.705 -2.4285 -5.143 -3.6435 -4.4145 
-7.5425 -3.8045 -1.7565 -2.4195 -4.2575 -5.6855 -6.48 -5.4255 -5.834001 -6.275001 -4.9135 -9.7065 -8.459001 -6.002 -7.269001 -6.9685 -7.9405 
-7.5425 -6.186 -2.4195 -5.013 -6.457 -9.6595 -8.081 -7.811 -7.704501 -9.321001 -10.316 -13.0827 -10.209 -9.506001 -8.740001 -11.7461 
-8.952001 -6.823 -5.013 -7.2875 -10.8262 -11.3189 -10.688 -9.441501 -11.1155 -15.1019 -13.6922 -14.8327 -13.845 -11.2616 -13.7622 
-9.434001 -8.811501 -7.2875 -11.7081 -12.4856 -13.9259 -12.3185 -13.1903 -16.8964 -18.4781 -15.4422 -18.4687 -15.6006 -16.2838 
