-4.759 
n/a 
n/a 
n/a 
n/a 
-4.759 
n/a 
n/a 
n/a 
n/a 
-4.759 
n/a 
n/a 
n/a 
n/a 
-4.759 
n/a 
n/a 
n/a 
n/a 
-3.59 -2.5685 -3.3975 -4.267 -1.7565 -5.269 -4.2895 0 -5.42 -3.3975 -2.5685 -3.383 -4.4695 0 
-5.877501 -6.341001 -8.587001 -6.9535 -6.869 -10.4345 -4.2895 -5.42 -9.6905 -6.3955 -5.839 -6.6995 -4.4695 
-10.389 -12.4049 -11.4415 -12.7284 -12.7185 -10.4345 -9.236 -9.6905 -12.7419 -9.684 -9.311501 -6.6995 
-16.7171 -15.2594 -17.2164 -18.5779 -12.7185 -15.6526 -13.5959 -12.7419 -16.0304 -13.2347 -9.311501 
-19.5716 -21.0343 -23.0659 -18.5779 -17.9366 -20.0125 -16.6473 -16.0304 -19.5811 -13.2347 
-1.4985 -3.59 -2.7415 -3.135 -3.3975 -4.267 -1.934 -3.8275 -2.95 0 -3.8565 -2.95 0 -3.135 -3.3975 -7.1795 0 
-4.268 -6.039001 -5.6645 -6.703501 -8.587001 -6.7145 -5.911 -6.6965 -2.95 -3.8565 -7.1615 -2.95 -3.135 -6.703501 -11.719 -7.1795 
-6.347 -9.874001 -9.259501 -12.6308 -10.6215 -11.1143 -7.4915 -6.6965 -7.5495 -7.1615 -7.1615 -6.116 -6.703501 -15.7628 -11.719 
-10.281 -13.5096 -15.2754 -14.6653 -15.0213 -12.6948 -7.4915 -9.927501 -10.6465 -7.1615 -10.2695 -9.684 -15.7628 -15.7628 
-13.9166 -19.5255 -17.3099 -19.0651 -16.6018 -12.6948 -11.1391 -13.0245 -10.6465 -10.2695 -13.8375 -18.8913 -15.7628 
-4.013 -2.5685 -1.4985 -4.1455 -1.934 -1.4985 -3.59 -2.4945 -3.613 -4.1455 0 -5.42 -3.851 -1.7695 -1.4985 -3.8275 -1.756 -3.579 -4.2895 0 -3.7285 -4.1455 -2.4945 -2.645 -3.1015 0 
-6.356 -3.7015 -5.633 -5.415 -2.6125 -4.268 -5.948 -7.402501 -8.207001 -4.1455 -5.42 -8.2995 -4.0015 -2.7955 -4.726 -5.1855 -4.857 -6.879001 -4.2895 -3.7285 -7.9175 -5.8435 -4.6775 -5.960501 -3.1015 
-7.265 -7.059 -7.119 -6.153 -4.955501 -6.234 -11.2402 -12.6283 -8.207001 -8.994 -8.2995 -8.319 -4.5775 -6.153 -6.0755 -9.007501 -8.06 -6.879001 -8.813001 -7.9175 -9.669001 -7.6145 -8.862 -5.960501 
-10.513 -8.335501 -7.636 -8.245501 -7.014501 -11.6596 -16.466 -12.6283 -13.7925 -11.9577 -8.319 -8.678 -7.684 -7.446 -10.341 -12.5275 -8.06 -11.4003 -13.2034 -9.669001 -11.5008 -12.4168 -8.862 
-11.7895 -8.6905 -9.782001 -9.748 -12.5777 -16.8854 -16.466 -18.2138 -16.7562 -11.9772 -8.678 -11.8717 -8.665501 -11.8471 -13.861 -12.5275 -12.6755 -15.7907 -14.9549 -11.5008 -16.3031 -12.4168 
-3.929 -3.3715 -4.1455 -2.4945 -4.267 -4.1455 -1.934 -1.4985 -3.59 0 -3.851 -1.4985 -3.8825 -3.8275 -1.756 -3.8565 -3.618 0 -4.3415 -4.1455 -2.4945 -4.5045 -3.6975 0 
-6.2505 -6.232 -5.8435 -7.1195 -8.4245 -5.415 -2.6125 -4.268 -3.59 -3.851 -6.14 -4.569 -7.409 -5.1855 -4.9165 -5.569 -3.618 -4.3415 -7.448501 -5.8435 -5.596 -6.978001 -3.6975 
-9.181 -7.327001 -10.674 -10.4265 -9.7995 -6.153 -4.955501 -4.268 -7.179 -6.14 -9.5005 -7.5065 -8.4925 -7.829 -6.662 -5.569 -8.775001 -7.448501 -8.781 -8.518001 -7.592 -6.978001 
-10.055 -12.6473 -13.981 -11.8015 -10.578 -8.245501 -4.955501 -7.52 -9.700001 -9.5005 -12.5264 -8.524 -11.4944 -10.3745 -6.662 -10.634 -12.0808 -8.781 -10.354 -10.6616 -7.592 
-15.3753 -15.9543 -15.356 -12.58 -12.6705 -8.245501 -8.098001 -9.922501 -13.2097 -12.5264 -13.5439 -11.5819 -14.0399 -10.3745 -12.1344 -13.9398 -13.4133 -10.354 -12.4976 -10.6616 
