-4.759 
n/a 
n/a 
n/a 
n/a 
-4.759 
n/a 
n/a 
n/a 
n/a 
-4.759 
n/a 
n/a 
n/a 
n/a 
-4.759 
n/a 
n/a 
n/a 
n/a 
-3.8735 -2.186 -3.074 -3.9205 -2.5045 -8.387 0 
-5.949 -4.156 -5.09 -4.449 -10.958 -8.387 
-7.666 -5.9775 -5.1285 -12.6333 -10.958 
-9.4595 -6.1365 -13.5932 -12.6333 
-9.837 -14.8274 -13.5932 
-3.8735 -2.186 -3.074 -3.849 -2.5045 -6.8825 
-5.949 -4.156 -5.417 -6.305 -9.8745 
-7.666 -6.3275 -7.559 -13.7786 
-10.2865 -7.9575 -14.9926 
-11.9165 -15.4853 
-3.8735 -2.186 -3.849 -2.5045 -6.8825 
-5.949 -4.8565 -6.305 -9.8745 
-8.973001 -7.104 -13.7786 
-10.6745 -14.7074 
-18.2779 
-3.8735 -2.186 -3.849 -2.5045 -6.8825 0 
-5.949 -4.8565 -6.305 -9.8745 -6.8825 
-8.973001 -7.104 -13.7786 -9.8745 
-10.6745 -14.7074 -13.7786 
-18.2779 -14.7074 
