-4.759 
n/a 
n/a 
n/a 
n/a 
-4.759 
n/a 
n/a 
n/a 
n/a 
-4.759 
n/a 
n/a 
n/a 
n/a 
-4.759 
n/a 
n/a 
n/a 
n/a 
-3.1495 -2.5685 -4.4725 -1.934 -1.8085 -4.8705 -4.0395 
-6.428 -7.0835 -6.426001 -3.2685 -5.887 -8.075001 
-11.5542 -9.7425 -7.594001 -7.329501 -8.775001 
-14.2132 -10.5565 -12.1198 -10.0065 
-15.0272 -15.6047 -14.7968 
-2.5685 -3.1495 -2.4945 -4.8685 -1.934 -2.871 -4.5675 
-4.8995 -4.459 -6.4725 -6.5445 -4.2805 -7.216001 
-6.672 -8.579 -7.4205 -8.811501 -8.447001 
-10.914 -9.722501 -9.5015 -13.6414 
-12.0575 -11.7607 -14.645 
-2.925 -2.4945 -4.6225 -1.934 -3.7285 -4.205 0 
-3.7675 -5.942 -5.87 -5.7885 -7.965 -4.205 
-7.301001 -6.8335 -9.755501 -10.7312 -7.965 
-8.176001 -10.3155 -14.6982 -10.7312 
-11.7344 -15.2582 -14.6982 
-2.5685 -3.1495 -2.8645 -3.1125 -7.72 -4.9385 0 
-4.8995 -6.997 -3.5345 -10.622 -13.2143 -4.9385 
-8.969501 -7.594 -11.4192 -16.1163 -13.2143 
-9.5105 -15.6567 -16.9135 -16.1163 
-17.6088 -21.151 -16.9135 
