-4.759 
n/a 
n/a 
n/a 
n/a 
-4.759 
n/a 
n/a 
n/a 
n/a 
-4.759 
n/a 
n/a 
n/a 
n/a 
-4.759 
n/a 
n/a 
n/a 
n/a 
-3.5195 -3.1205 -7.1265 0 -6.6645 0 -4.2805 -4.89 0 -10.8685 -4.8165 -4.2315 -2.5045 -5.707 -3.468 -2.9705 -3.152 -3.325 -4.819 
-5.469501 -10.1995 -7.1265 -6.6645 -6.6645 -4.2805 -5.206501 -4.89 -10.8685 -16.2282 -7.269 -5.5285 -7.677 -9.106001 -6.0455 -5.007 -6.104 -8.997001 
-13.7391 -10.1995 -14.2832 -6.6645 -9.6335 -5.206501 -5.206501 -16.5613 -16.2282 -18.6807 -8.381001 -10.2645 -11.4598 -11.8021 -7.806 -7.742001 -12.4058 
-13.7391 -18.1078 -14.2832 -9.6335 -9.656 -5.206501 -17.736 -21.921 -18.6807 -19.7927 -13.2956 -14.4113 -14.1559 -13.5626 -10.1855 -14.2146 
-21.6474 -18.1078 -17.2522 -9.656 -9.656 -17.736 -23.0957 -24.3735 -19.7927 -24.7073 -17.4424 -17.1074 -15.9164 -15.9421 -16.6741 
-3.5195 -3.1205 -12.16972 -4.285 -3.9035 -1.7565 -7.1265 -6.6645 0 -6.640501 -7.784501 -1.756 -8.046 -3.074 -4.8965 -1.4985 -3.468 0 
-5.469501 -15.83922 -16.45472 -8.877001 -4.616 -9.146 -14.2832 -6.6645 -6.640501 -15.1074 -9.344001 -9.769001 -11.4314 -7.8835 -6.815 -5.0815 -3.468 
-19.37882 -20.12422 -21.04672 -9.013 -12.8663 -16.4395 -14.2832 -14.101 -15.1074 -16.6669 -17.4216 -13.1544 -16.2409 -10.4855 -10.7716 -5.0815 
-23.66382 -24.71622 -21.18272 -17.2963 -20.1598 -16.4395 -21.7197 -22.5679 -16.6669 -24.7445 -20.807 -17.9639 -18.8429 -14.8031 -10.7716 
-28.25582 -24.85222 -29.46602 -24.5898 -20.1598 -23.876 -30.1866 -24.1274 -24.7445 -28.1299 -25.6165 -20.5659 -23.1605 -14.8031 
-3.5195 -4.619 -3.9605 -3.8195 -1.7565 -4.819 -3.115 -1.4985 -7.7285 0 -6.6645 0 -4.2805 -4.89 0 -12.16972 -4.3215 -4.2315 -2.5045 -4.015 -4.789 -2.5195 -1.4985 -3.7745 -3.5435 
-7.7015 -9.066 -7.312 -4.542 -6.692 -9.1485 -4.2305 -9.7655 -7.7285 -6.6645 -6.6645 -4.2805 -5.206501 -4.89 -12.16972 -16.49122 -8.283001 -5.5285 -6.120501 -8.169001 -7.3975 -3.1695 -4.753 -5.717 
-11.7975 -12.667 -8.6415 -8.7545 -10.298 -10.1475 -12.5931 -9.7655 -14.7236 -6.6645 -9.6335 -5.206501 -5.206501 -17.86252 -16.49122 -20.45272 -8.687 -8.144 -9.920501 -11.1153 -7.979 -6.1735 -6.116 
-15.3813 -13.1604 -13.1924 -12.4697 -11.297 -18.5101 -12.5931 -16.804 -14.7236 -9.6335 -9.656 -5.206501 -19.03722 -22.18402 -20.45272 -20.85672 -11.7069 -12.2068 -13.448 -11.6968 -11.186 -7.3735 
-15.9083 -17.8235 -16.9076 -13.4687 -19.6596 -18.5101 -19.6316 -16.804 -17.6926 -9.656 -9.656 -19.03722 -23.35872 -26.14552 -20.85672 -23.87662 -15.7697 -15.7343 -14.0295 -14.9038 -12.386 
-3.5195 -3.1205 -4.285 -3.8195 -1.7565 -9.659 0 -7.1265 0 -5.301 0 -4.2805 -6.5915 -6.159 0 -7.437 -4.8165 -2.985 -1.8085 -4.015 -4.418 0 
-5.469501 -7.8955 -7.171 -4.542 -12.3647 -9.659 -7.1265 -7.1265 -5.301 -5.301 -4.2805 -9.632 -13.3855 -6.159 -7.437 -11.142 -6.9925 -6.564 -7.0235 -8.373501 -4.418 
-11.4351 -10.9969 -8.187 -15.9774 -12.3647 -17.0413 -7.1265 -12.9197 -5.301 -10.249 -9.632 -16.5074 -13.3855 -14.2954 -11.142 -13.318 -10.287 -12.2104 -11.5888 -8.373501 
-14.5365 -12.0129 -19.9678 -15.9774 -19.747 -17.0413 -12.9197 -12.9197 -10.249 -15.6005 -16.5074 -16.5074 -21.5219 -18.0004 -13.318 -16.6125 -16.4882 -16.7757 -11.5888 
-15.5525 -23.7937 -19.9678 -23.3597 -19.747 -22.8345 -12.9197 -17.8677 -15.6005 -22.4759 -16.5074 -24.6438 -25.2269 -20.1764 -16.6125 -22.8137 -21.0535 -16.7757 
