-4.759 
n/a 
n/a 
n/a 
n/a 
-4.759 
n/a 
n/a 
n/a 
n/a 
-4.759 
n/a 
n/a 
n/a 
n/a 
-4.759 
n/a 
n/a 
n/a 
n/a 
-3.3935 -4.184 -10.8905 -6.9165 -3.75 -1.756 -4.739 -4.126 -1.7565 -3.5455 -4.703 -4.1645 -1.7695 -3.584 -1.4985 -3.502 -1.7565 -3.2015 -4.237 -3.355 -3.5725 -3.4625 0 
-6.962501 -15.4541 -17.807 -10.9575 -5.1985 -5.894 -9.1565 -5.221001 -4.8635 -8.905001 -9.956 -5.3575 -4.382 -5.0595 -4.5955 -5.0575 -5.2045 -8.4425 -8.156 -7.538 -7.123 -3.4625 
-18.9408 -22.3706 -21.848 -12.406 -10.4823 -10.513 -10.1515 -9.658501 -11.2604 -14.4264 -11.1382 -7.612 -5.4875 -9.1625 -5.911 -9.3891 -11.2389 -12.7667 -12.639 -11.3177 -7.123 
-25.8573 -26.4116 -23.2965 -17.6898 -15.1013 -11.508 -14.589 -16.1394 -16.7818 -15.6086 -13.3927 -8.8135 -9.584001 -10.6518 -10.792 -15.4235 -15.5631 -17.2497 -16.4187 -11.3177 
-29.8983 -27.8601 -28.5803 -22.3088 -16.0963 -15.9455 -21.0699 -21.6608 -17.964 -17.8631 -14.5942 -13.086 -11.1101 -15.5328 -16.8264 -19.7477 -20.0461 -21.0294 -16.4187 
-3.3935 -10.8905 -8.753 0 -6.182 -12.16972 -1.934 -3.5455 -3.7575 -1.7695 -3.502 -3.7575 -10.707 
-14.9478 -19.6435 -8.753 -6.182 -18.97672 -14.10372 -4.8495 -5.799001 -5.5835 -5.535 -5.712 -15.5069 
-23.7008 -19.6435 -15.2926 -18.97672 -20.91072 -17.01922 -8.013 -8.098001 -9.119 -8.225 -18.1472 
-23.7008 -26.1831 -28.08732 -20.91072 -23.82622 -20.18272 -10.7476 -10.092 -10.051 -20.8024 
-30.2404 -38.97782 -30.02132 -23.82622 -26.98972 -22.91732 -12.7416 -10.2335 -22.657 
-6.812 -4.9865 -3.75 0 -2.186 -5.0295 -3.892 -1.934 -3.5455 -1.756 -1.934 -3.502 -4.703 -3.892 -3.873 0 
-12.1143 -8.906 -3.75 -2.186 -8.431001 -9.4895 -5.578 -4.8495 -5.364501 -4.0205 -4.8155 -9.101001 -8.9025 -7.7965 -3.873 
-16.0338 -8.906 -6.250501 -8.431001 -13.2212 -11.5725 -7.927001 -6.7225 -7.631001 -7.252501 -11.5019 -13.4807 -12.9476 -7.7965 
-16.0338 -11.8393 -12.8659 -13.2212 -15.3042 -13.9215 -9.848001 -9.706 -9.932501 -14.2251 -15.8816 -17.5258 -12.9476 
-18.9671 -18.4547 -17.6561 -15.3042 -17.6532 -15.8425 -12.8335 -10.1445 -16.9285 -18.6048 -19.9267 -17.5258 
-3.75 -10.9935 -5.1915 -3.0365 -2.186 -6.063 -3.355 -1.934 -3.5455 -1.756 -3.502 -6.063 -3.355 -2.356 -4.237 
-15.9309 -16.185 -8.8035 -3.66 -8.460501 -9.4595 -4.8475 -4.8495 -5.364501 -5.1085 -11.0636 -9.4595 -5.9515 -6.394 
-21.1224 -19.797 -9.344501 -10.733 -12.4196 -11.4016 -8.736501 -6.7225 -5.759501 -13.1219 -14.4601 -12.5056 -9.724501 
-24.7344 -20.338 -16.6589 -14.6921 -14.3617 -15.2906 -10.647 -6.8885 -14.0951 -16.5184 -17.5062 -16.2786 
-25.2754 -27.6524 -20.618 -16.6342 -18.2507 -17.2011 -10.7245 -16.0717 -17.4916 -19.5645 -21.2792 
