-4.759 
n/a 
n/a 
n/a 
n/a 
-4.759 
n/a 
n/a 
n/a 
n/a 
-4.759 
n/a 
n/a 
n/a 
n/a 
-4.759 
n/a 
n/a 
n/a 
n/a 
-1.934 -4.1735 -4.0305 -2.7455 -2.9645 -1.7695 -4.7855 -3.873 -4.347 
-5.409 -7.7615 -6.420501 -6.7665 -4.905 -5.967501 -8.879 -8.008501 
-9.7065 -10.4265 -10.004 -9.657001 -8.982 -10.243 -13.4789 
-12.3625 -14.01 -13.2389 -13.797 -13.2675 -14.9895 
-15.946 -17.2449 -17.3789 -18.0825 -18.014 
-4.7855 -5.268 -3.873 -4.347 -2.5045 -4.1735 
-10.9315 -8.1045 -8.008501 -7.234 -7.909 
-13.768 -10.757 -10.9471 -13.1871 
-16.4205 -13.6956 -16.9002 
-19.3591 -19.6487 
-4.1735 -8.2565 0 -3.1385 -1.934 -1.4985 -4.079 -3.873 0 
-12.8076 -8.2565 -3.1385 -4.522 -2.6125 -6.1405 -8.693001 -3.873 
-12.8076 -11.7896 -4.522 -5.087501 -7.7225 -9.8785 -8.693001 
-16.3407 -13.1731 -5.087501 -10.8751 -11.7697 -9.8785 
-17.7242 -13.7386 -10.8751 -14.9223 -11.7697 
-1.934 -4.1735 -4.0305 0 -1.4985 -3.873 -3.2955 -2.3345 -1.4985 -3.1385 -2.4945 
-5.409 -7.7615 -4.0305 -1.4985 -4.7405 -6.98 -4.534 -3.233 -4.2575 -4.588 
-9.7065 -7.7615 -5.705501 -4.7405 -7.8725 -8.137 -5.117 -5.869 -6.0575 
-9.7065 -9.2045 -8.344001 -7.8725 -8.8815 -8.618501 -7.8765 -8.5655 
-11.1405 -11.965 -11.6218 -8.8815 -9.212001 -11.5206 -10.8546 
