-4.759 
n/a 
n/a 
n/a 
n/a 
-4.759 
n/a 
n/a 
n/a 
n/a 
-4.759 
n/a 
n/a 
n/a 
n/a 
-4.759 
n/a 
n/a 
n/a 
n/a 
-8.267 -4.7505 -2.5045 -3.6115 -4.2245 -1.7695 -5.1845 -4.235 -1.756 -1.7695 -9.366 -4.121 0 
-13.6353 -7.0035 -6.264 -6.644 -6.034 -7.4505 -9.8675 -5.3925 -3.963 -11.1165 -13.7246 -4.121 
-15.8883 -11.5236 -9.39 -8.4945 -12.3144 -12.5545 -10.4545 -7.219 -13.9932 -15.4751 -13.7246 
-20.4084 -14.6496 -10.2995 -15.0375 -17.4184 -13.1415 -12.281 -17.9928 -18.3518 -15.4751 
-23.5344 -15.5591 -16.8425 -20.1415 -18.0054 -14.968 -23.0548 -22.3514 -18.3518 
-6.705 -4.2215 -1.934 -7.819 0 -3.8735 -3.091 -4.0355 -2.4945 -4.235 -1.934 -8.35 -1.756 -4.121 -2.186 -7.378 -2.9805 -2.186 -3.6115 -4.2245 -1.7565 -2.3615 -4.2585 0 
-11.9079 -4.885 -8.978001 -7.819 -3.8735 -7.4535 -5.579 -5.546 -7.738 -5.8 -10.8215 -10.4675 -5.8445 -5.9385 -10.164 -10.4035 -4.1635 -5.979 -6.644 -4.942 -3.523 -6.547501 -4.2585 
-12.5714 -12.6794 -8.978001 -8.3795 -7.4535 -9.519501 -7.055 -8.4385 -10.143 -15.4927 -12.939 -14.556 -7.8345 -14.3351 -13.1895 -11.5865 -7.913001 -9.995001 -7.1965 -7.961 -7.813001 -6.547501 
-20.3658 -12.6794 -10.082 -12.8551 -9.519501 -10.4205 -10.5635 -12.0921 -20.0097 -17.6102 -17.0275 -16.546 -16.3865 -17.3606 -14.3725 -15.336 -10.66 -10.264 -9.913 -9.8315 -7.813001 
-20.3658 -13.7834 -14.5576 -14.9211 -10.4205 -13.929 -14.2171 -21.9588 -22.1272 -21.6987 -19.0175 -25.098 -19.412 -18.5436 -18.122 -18.083 -10.7555 -13.0621 -11.8337 -9.8315 
-2.9805 -2.7415 -4.2215 -2.5045 -1.8085 -3.6115 -3.736 -1.934 -1.4985 -3.2875 -1.7565 -5.4995 -1.934 -3.8735 -2.0935 -1.8085 -5.1845 -4.528 -1.756 -7.378 -5.6175 
-4.004 -4.7885 -6.628 -3.3625 -4.4775 -6.3975 -5.539 -2.6125 -4.127 -4.3315 -6.994501 -7.5635 -4.885 -6.2575 -3.385 -7.2815 -10.841 -6.37 -9.122 -13.5249 
-5.7885 -7.112 -7.1355 -5.76 -7.276 -7.803 -6.173 -4.9865 -4.75 -7.8815 -8.563001 -8.528501 -6.732 -7.485 -8.671501 -13.2724 -12.683 -14.7088 -15.4839 
-8.132501 -7.5705 -10.228 -9.555 -8.648001 -8.641001 -7.8265 -5.6 -8.399501 -9.092501 -9.338 -10.513 -7.949501 -13.1943 -15.0442 -15.1144 -21.0218 -21.0707 
-8.684501 -10.5975 -14.023 -11.0086 -9.304001 -10.6593 -9.287001 -8.870501 -9.236 -9.880501 -11.3865 -11.7305 -13.8654 -19.567 -16.8862 -23.4532 -27.3837 
-6.705 -5.171 0 -2.871 -5.1845 -4.235 0 -1.756 -2.871 -9.366 -4.121 -9.01 -4.2215 -1.934 -3.8735 -2.5045 -5.4995 
-7.959001 -5.171 -2.871 -8.660001 -9.8675 -4.235 -1.756 -4.514 -13.435 -13.7246 -14.2082 -13.3573 -4.885 -4.885 -6.599 -7.39 
-7.959001 -8.823001 -8.660001 -13.49 -9.8675 -5.3925 -4.514 -15.3372 -17.7936 -23.8118 -18.5555 -14.0208 -7.452001 -7.141 -9.451 
-11.9474 -15.0752 -13.49 -13.49 -10.4545 -7.8725 -15.3372 -19.6958 -27.8808 -28.1591 -19.219 -16.5878 -9.927501 -9.7825 
-18.1996 -19.9052 -13.49 -14.077 -12.9345 -19.2955 -19.6958 -29.783 -32.2281 -28.8226 -21.786 -19.0633 -12.7056 
