-4.759 
n/a 
n/a 
n/a 
n/a 
-4.759 
n/a 
n/a 
n/a 
n/a 
-4.759 
n/a 
n/a 
n/a 
n/a 
-4.759 
n/a 
n/a 
n/a 
n/a 
-4.0105 -4.867 0 -5.1845 -4.4975 
-9.665001 -4.867 -5.1845 -10.2485 
-9.665001 -11.015 -10.2485 
-15.9926 -16.079 
-21.0566 
-4.0885 -3.522 0 -8.1485 -4.4975 
-6.997 -3.522 -8.1485 -13.0066 
-6.997 -12.4339 -13.0066 
-16.6119 -17.292 
-21.47 
-3.535 -3.522 0 -8.1485 -5.547 
-5.913 -3.522 -8.1485 -14.0561 
-5.913 -12.4339 -14.0561 
-15.0165 -18.3415 
-20.9241 
-4.0105 -4.867 0 -6.3705 
-9.665001 -4.867 -6.3705 
-9.665001 -10.61 
-15.5876 
n/a 
