-4.759 
n/a 
n/a 
n/a 
n/a 
-4.759 
n/a 
n/a 
n/a 
n/a 
-4.759 
n/a 
n/a 
n/a 
n/a 
-4.759 
n/a 
n/a 
n/a 
n/a 
-3.383 -3.699 -3.188 -4.2915 -3.2775 -2.5045 -12.16972 0 -5.1845 0 -8.752001 -3.843 -2.4945 -6.3065 -1.934 -4.1865 -3.9675 
-5.014 -7.5375 -6.327001 -6.429 -3.678 -15.59162 -12.16972 -5.1845 -5.1845 -8.752001 -13.0294 -5.682 -8.441 -7.875501 -5.967 -6.6535 
-9.137 -9.7565 -9.294001 -6.44 -16.72132 -15.59162 -17.35422 -5.1845 -10.862 -13.0294 -14.8684 -12.0993 -10.0965 -12.3361 -7.993 
-11.5504 -12.8121 -9.307501 -20.49092 -16.72132 -20.77612 -17.35422 -10.862 -15.1394 -14.8684 -21.2857 -13.7548 -14.6549 -14.3621 
-14.606 -12.8256 -23.86402 -20.49092 -21.90582 -20.77612 -23.03172 -15.1394 -16.9784 -21.2857 -22.9412 -18.3132 -16.6809 
-5.92 0 -5.1845 0 -5.7385 -3.6885 0 -5.648 -3.1495 -3.188 -3.6885 -4.245 -2.9905 -4.0075 -1.934 -4.1865 -3.9675 -1.7695 -4.292 -2.4265 0 
-5.92 -5.1845 -5.1845 -5.7385 -7.644 -3.6885 -5.648 -9.386001 -7.2425 -6.6785 -6.3525 -7.990001 -7.885 -5.854 -5.967 -6.6535 -6.1355 -5.8125 -6.1955 -2.4265 
-8.0415 -5.1845 -8.705501 -7.644 -7.644 -7.722 -9.386001 -13.5866 -10.586 -9.2775 -10.8301 -13.9153 -9.7895 -10.1345 -7.993 -8.4725 -10.181 -6.960001 -6.1955 
-8.0415 -8.705501 -11.196 -7.644 -12.2415 -12.1224 -13.5866 -16.9301 -13.185 -14.3681 -16.7554 -15.8198 -14.132 -12.1605 -9.9505 -12.7986 -11.4749 -6.960001 
-12.4821 -11.196 -11.196 -12.2415 -16.6419 -16.323 -16.9301 -19.5291 -18.2756 -20.2934 -18.6599 -20.1623 -16.158 -14.118 -14.2766 -14.0925 -11.4749 
-12.16972 0 -5.1845 0 -5.6305 -3.6885 0 -5.648 0 -1.756 -4.0725 -4.4525 -4.2915 -3.614 -1.7565 -4.1865 -4.548 0 
-12.16972 -5.1845 -5.1845 -5.6305 -9.567 -3.6885 -5.648 -5.648 -1.756 -5.518 -10.985 -10.016 -8.1815 -4.9095 -5.463 -10.802 -4.548 
-17.35422 -5.1845 -10.907 -9.567 -9.567 -7.722 -5.648 -7.268001 -5.518 -13.0273 -16.5485 -14.097 -9.4025 -8.848001 -12.7665 -10.802 
-17.35422 -10.907 -14.8435 -9.567 -13.8573 -7.722 -7.268001 -11.8408 -13.0273 -18.5908 -20.6295 -15.318 -13.714 -16.4659 -12.7665 
-23.07672 -14.8435 -14.8435 -13.8573 -13.8573 -9.64 -11.8408 -19.3501 -18.5908 -22.6718 -21.8505 -19.6295 -21.3319 -16.4659 
-3.699 -3.188 -4.2915 -3.115 -5.92 0 -5.1845 0 -5.7385 0 -8.752001 0 -2.186 -3.8735 -2.229 -4.245 -5.142 0 
-7.5375 -6.327001 -6.6435 -8.4075 -5.92 -5.1845 -5.1845 -5.7385 -5.7385 -8.752001 -8.752001 -2.186 -6.749001 -5.3655 -5.976501 -9.140501 -5.142 
-9.7565 -9.757 -9.4865 -8.4075 -8.0415 -5.1845 -8.705501 -5.7385 -15.5897 -8.752001 -10.932 -6.749001 -7.036 -10.27 -10.4185 -9.140501 
-13.2751 -12.841 -9.4865 -10.76 -8.0415 -8.705501 -8.705501 -15.5897 -15.5897 -10.932 -15.495 -7.036 -12.7059 -14.712 -10.4185 
-16.3591 -12.841 -12.0328 -10.76 -12.4821 -8.705501 -19.1417 -15.5897 -17.7697 -15.495 -15.782 -12.7059 -17.1479 -14.712 
