-4.759 
n/a 
n/a 
n/a 
n/a 
-4.759 
n/a 
n/a 
n/a 
n/a 
-4.759 
n/a 
n/a 
n/a 
n/a 
-4.759 
n/a 
n/a 
n/a 
n/a 
-1.934 -2.3615 -13.248 -5.7335 -1.7565 -3.873 0 -9.966 -5.7335 -1.7565 -3.4715 
-3.539 -14.728 -16.4235 -7.380001 -5.002 -3.873 -9.14 -14.121 -7.380001 -4.699 
-14.6502 -18.8605 -16.5448 -9.607501 -5.002 -14.257 -14.1548 -15.8391 -9.753501 
-21.1833 -20.9536 -19.2189 -9.607501 -16.0636 -19.2718 -15.8391 -18.2126 
-22.8298 -23.1811 -19.2189 -20.7951 -21.0784 -20.9561 -18.2126 
-3.873 -13.248 -6.142 0 -3.4715 -9.966 -6.142 
-15.592 -16.566 -5.1775 -3.4715 -13.7915 -14.44 
-16.8472 -15.1682 -9.935 -13.7915 -19.5023 
-15.7653 -20.3723 -20.8362 -19.5023 
-21.5788 -31.2735 -26.547 
-1.934 -2.3335 -3.873 -4.759 -1.7565 -13.248 -4.323 -1.756 -3.4715 -4.8395 -9.966 -4.323 
-4.359 -6.238501 -8.418501 -6.3815 -13.3555 -14.605 -6.396501 -4.8875 -8.5255 -15.8093 -12.737 
-7.47 -10.564 -9.644001 -14.9925 -15.0183 -15.1723 -9.684501 -9.887001 -20.0055 -19.4401 
-12.1131 -11.7895 -17.8453 -19.015 -16.9629 -18.9069 -14.764 -21.6218 -23.6363 
-13.3386 -19.9908 -22.6665 -21.5103 -20.6537 -23.9864 -26.4988 -25.2526 
-2.3615 -4.1375 -13.18 -6.116 -4.8565 0 -3.4715 -9.966 -5.513 
-6.9175 -16.021 -17.696 -8.436501 -4.8565 -3.4715 -13.7915 -14.0535 
-19.4169 -22.9197 -20.3835 -8.436501 -7.360001 -13.7915 -18.7388 
-26.5228 -25.2402 -20.3835 -11.2002 -18.667 -18.7388 
-28.8433 -25.2402 -23.1472 -22.5072 -23.6143 
