-4.759 
n/a 
n/a 
n/a 
n/a 
-4.759 
n/a 
n/a 
n/a 
n/a 
-4.759 
n/a 
n/a 
n/a 
n/a 
-4.759 
n/a 
n/a 
n/a 
n/a 
-4.1455 -1.756 -4.1285 -3.0465 -2.3615 -4.446 0 
-5.5555 -5.5985 -8.1885 -5.028501 -8.631001 -4.446 
-5.7085 -9.3345 -10.2645 -11.7168 -8.631001 
-9.4175 -11.5569 -16.9528 -11.7168 
-11.6613 -18.2452 -16.9528 
-3.8255 -2.3615 -3.695 -4.1455 -1.756 -4.1285 
-5.8225 -5.8665 -8.2185 -5.5555 -5.5985 
-9.504001 -10.9734 -9.871501 -5.7085 
-14.6243 -12.6264 -9.923501 
-16.2773 -12.6784 
-3.5155 -4.1455 -1.756 -3.5485 -2.742 -3.0465 -4.7605 
-6.505 -5.5555 -4.8465 -6.172 -4.8155 -7.5965 
-6.5575 -8.686001 -7.2215 -7.973001 -9.172501 
-10.328 -11.4842 -9.302 -12.5322 
-13.1262 -13.5647 -13.9564 
-3.5155 -3.711 -1.756 -3.5485 -3.695 -2.3615 -4.495 0 
-5.786 -4.841 -4.8465 -6.928 -5.791 -6.353 -4.495 
-5.9595 -5.0605 -8.2115 -8.831 -8.667001 -6.353 
-5.974 -8.276 -10.044 -11.8588 -8.667001 
-9.0065 -10.0955 -13.0718 -11.8588 
