-4.759 
n/a 
n/a 
n/a 
n/a 
-4.759 
n/a 
n/a 
n/a 
n/a 
-4.759 
n/a 
n/a 
n/a 
n/a 
-4.759 
n/a 
n/a 
n/a 
n/a 
-2.9805 -2.7415 -4.645 -1.7695 -1.4985 -4.21 -4.293 -3.693 -1.934 -3.842 -1.756 -3.522 0 
-4.004 -5.6165 -5.484001 -2.7955 -5.5705 -7.0005 -7.6095 -5.151 -5.18 -5.568 -5.943 -3.522 
-6.2005 -6.170001 -5.949501 -6.835001 -7.3535 -10.9974 -9.216001 -7.826 -6.1715 -7.2705 -5.943 
-6.692 -6.377501 -8.417001 -8.48 -11.7476 -12.6039 -11.9928 -8.843 -8.071 -7.2705 
-6.8745 -8.6365 -9.036501 -13.2339 -13.3541 -15.3807 -13.0098 -10.4185 -8.071 
-3.917 -1.934 -8.487 -3.693 -1.934 -3.522 -2.0935 -12.16972 -4.698 
-5.798 -9.294001 -12.6802 -5.151 -5.0285 -6.157001 -15.25422 -16.86772 
-13.9902 -13.5048 -14.1382 -7.687 -6.9615 -19.73452 -19.95222 
-18.201 -14.9628 -16.6742 -9.106 -20.73322 -24.43252 
-19.659 -17.4988 -18.0932 -23.03392 -25.43122 
-2.9805 -2.7415 -6.426 -1.7695 -1.4985 -4.21 -4.293 -1.934 -3.842 -1.756 -3.522 0 
-4.004 -7.187 -6.9715 -2.7955 -5.5705 -7.0005 -6.269 -5.18 -5.568 -5.943 -3.522 
-7.813001 -7.895 -7.7175 -6.835001 -7.3535 -8.706 -8.341001 -6.1715 -7.2705 -5.943 
-8.455501 -8.249001 -9.8275 -8.48 -8.732 -9.908 -9.150001 -8.071 -7.2705 
-8.811001 -9.920501 -9.923 -9.154501 -9.915001 -10.217 -10.689 -8.071 
-1.934 -3.842 -1.756 -3.522 -2.9805 -2.7415 -4.645 -1.7695 -4.21 -4.698 -3.693 0 
-5.18 -5.568 -5.943 -6.2725 -4.004 -5.6165 -5.484001 -6.477001 -10.718 -8.069501 -3.693 
-6.1715 -7.2705 -8.005501 -6.9485 -6.2005 -6.170001 -9.4385 -13.4644 -14.0895 -8.069501 
-8.071 -8.9835 -8.58 -8.4005 -6.692 -10.564 -16.9659 -16.8359 -14.0895 
-9.475 -9.646501 -10.3345 -8.9355 -11.2774 -18.0914 -20.3374 -16.8359 
