-4.759 
n/a 
n/a 
n/a 
n/a 
-4.759 
n/a 
n/a 
n/a 
n/a 
-4.759 
n/a 
n/a 
n/a 
n/a 
-4.759 
n/a 
n/a 
n/a 
n/a 
-3.0365 -2.4945 -4.0905 -4.5445 -5.1845 -4.9225 -2.4945 -3.8245 -1.934 -4.1865 0 
-3.688 -7.6645 -9.139501 -11.046 -9.13 -6.9525 -5.751 -4.7245 -6.652 -4.1865 
-7.984 -12.9943 -15.5088 -14.9915 -10.5235 -9.3655 -6.158 -10.2103 -6.652 
-13.525 -19.3636 -19.4543 -16.385 -12.9365 -9.7565 -12.1214 -10.2103 
-19.8943 -23.3091 -20.8478 -18.798 -13.3275 -15.7521 -12.1214 
-1.934 -3.188 -4.067 -4.0905 -3.748 -5.1845 -3.1385 -3.8245 -2.5045 -4.46 -3.335 0 
-5.387 -7.370501 -8.385 -6.841001 -9.1385 -7.4095 -5.577001 -6.1895 -7.5625 -7.1685 -3.335 
-10.4185 -12.0383 -9.422501 -12.5781 -10.1385 -9.460501 -8.557001 -12.0019 -10.8236 -7.1685 
-15.0863 -13.0758 -15.1828 -13.5781 -12.1895 -12.8493 -14.5332 -15.263 -10.8236 
-16.1238 -18.8361 -16.1828 -15.6291 -15.5783 -18.8255 -17.7943 -15.263 
-4.347 -4.0905 -4.5445 -8.27 -3.8245 
-7.4795 -9.139501 -14.2441 -10.4855 
-13.1427 -18.7069 -16.4596 
-22.7101 -20.9224 
-24.9256 
-2.4265 -2.186 -4.554 -2.3335 -3.6215 -4.0905 -3.748 -5.1845 -3.1385 -2.4945 -3.8245 -3.6215 -1.4985 -3.188 0 
-3.292 -5.002501 -6.607 -6.453 -7.752501 -6.841001 -9.1385 -7.4095 -4.588 -5.751 -7.179501 -4.094 -3.619 -3.188 
-6.818501 -7.9195 -9.175001 -9.854501 -9.1905 -12.5781 -10.1385 -8.7805 -6.897501 -9.065001 -7.543 -4.561 -3.619 
-8.056001 -10.1345 -12.7525 -11.5915 -15.0466 -13.5781 -11.5095 -10.004 -10.213 -9.4195 -8.049001 -4.561 
-10.1545 -13.712 -14.4895 -17.4476 -16.0466 -14.9491 -12.733 -14.0279 -10.5115 -9.985001 -8.049001 
