-4.759 
n/a 
n/a 
n/a 
n/a 
-4.759 
n/a 
n/a 
n/a 
n/a 
-4.759 
n/a 
n/a 
n/a 
n/a 
-4.759 
n/a 
n/a 
n/a 
n/a 
-1.4985 -4.031 -2.0935 -3.091 -3.937 -1.4985 -3.97 -3.8125 -1.756 -3.951 -3.8125 -3.4945 -4.1595 -2.3335 -2.9805 -3.4405 -4.7075 -4.2505 -1.756 -4.493 -4.2505 -3.4945 -4.5105 0 
-4.771 -4.8935 -4.5345 -7.404 -5.113501 -5.476 -7.8715 -5.3335 -5.308001 -7.811 -6.594 -7.576 -6.917 -4.1515 -5.1175 -7.923 -7.292001 -5.559 -5.9535 -7.7425 -7.411 -6.6885 -4.5105 
-5.3855 -6.9185 -8.725 -8.740001 -9.6385 -9.238001 -8.890501 -8.950001 -9.344001 -10.7175 -10.304 -9.899 -8.650001 -6.232 -9.4525 -10.2135 -8.680501 -8.748501 -9.2325 -11.2354 -10.4345 -6.6885 
-7.23 -9.562 -10.168 -13.3368 -13.1069 -10.647 -12.7994 -13.1708 -12.4835 -14.4275 -12.627 -11.7688 -10.7873 -10.9386 -11.866 -12.5344 -12.2388 -10.177 -12.9352 -14.2589 -10.4345 
-10.1105 -11.1574 -14.7648 -16.8052 -14.5159 -14.5559 -17.0202 -16.3103 -16.1935 -16.7505 -14.4968 -13.9061 -15.4939 -13.3521 -14.1869 -16.0927 -13.6673 -14.7633 -15.9587 -14.2589 
-3.433 -1.7565 -3.091 -4.091 -4.7075 -3.895 -1.756 -4.493 -3.098 -4.523 -3.595 -1.7695 -3.956 -3.091 -5.451 -3.9655 -3.1335 -1.756 -3.4625 -2.8645 -4.3625 0 
-4.1845 -4.0655 -6.655 -7.8585 -6.719501 -5.1945 -5.9535 -7.666 -7.088 -6.1655 -4.634 -4.6005 -6.3875 -7.7735 -9.597 -8.093 -4.562 -5.2395 -6.939 -8.6525 -4.3625 
-5.7165 -7.592 -10.2865 -8.1945 -7.881501 -9.992001 -8.708 -12.2202 -8.67 -7.067 -7.021 -6.588 -11.7644 -12.3493 -13.9327 -9.065001 -8.062 -9.5865 -13.1806 -8.6525 
-9.521 -11.3827 -11.1899 -9.387501 -13.0284 -12.7465 -13.7188 -13.8022 -9.521501 -9.6745 -7.8125 -12.0307 -16.3402 -16.685 -14.9047 -12.7566 -12.6818 -15.8145 -13.1806 
-13.3117 -12.2861 -12.3829 -14.701 -15.7829 -17.7573 -15.3008 -14.6537 -12.1614 -10.2665 -13.4108 -16.6065 -20.6759 -17.657 -18.5963 -17.3764 -18.9098 -15.8145 
-2.9805 -2.186 -3.9655 -3.8125 0 -3.881 -3.8125 -2.264 -2.6165 -5.8625 -2.9645 -1.934 -4.7075 -1.756 -4.493 -3.956 -3.688 0 
-4.1635 -6.5585 -8.0655 -3.8125 -3.881 -6.7445 -5.341001 -6.039001 -8.205001 -10.0255 -4.6135 -6.8035 -6.067501 -5.9535 -9.117001 -8.118 -3.688 
-9.074 -11.1497 -8.0655 -7.137 -6.7445 -8.859501 -9.352 -12.3347 -12.6194 -11.7527 -9.7405 -7.8155 -8.634001 -10.264 -13.4714 -8.118 
-13.9054 -11.1497 -10.5425 -9.654 -8.859501 -13.0501 -15.8389 -16.7491 -14.3466 -16.8797 -10.462 -10.63 -13.4213 -14.9074 -13.4714 
-13.9054 -13.6267 -13.0595 -11.8566 -13.0501 -19.537 -20.2533 -18.4763 -19.4736 -17.6012 -13.2765 -15.4173 -18.0647 -14.9074 
-3.4765 -3.929 -2.9805 -2.186 -3.9655 -3.6445 0 -2.9805 -2.186 -5.113 -3.951 0 -3.937 -4.7075 0 -4.2505 0 -4.493 0 -4.6475 -2.356 -2.9905 -4.5105 
-4.589 -5.378 -4.1635 -6.5585 -7.577001 -3.6445 -2.9805 -4.1635 -6.3745 -8.712001 -3.951 -3.937 -7.243501 -4.7075 -4.2505 -4.2505 -4.493 -4.493 -4.6475 -6.9235 -5.712501 -7.634001 
-5.891 -6.535 -9.074 -10.6612 -7.577001 -6.495501 -4.1635 -8.593 -9.4975 -8.712001 -8.195001 -7.243501 -7.243501 -7.292001 -4.2505 -7.526 -4.493 -8.557 -6.9235 -9.467 -8.81 
-6.927001 -11.6495 -13.4169 -10.6612 -9.4685 -7.539001 -8.593 -11.856 -9.4975 -13.4054 -9.816001 -7.243501 -9.795501 -7.292001 -7.526 -7.526 -8.557 -9.9355 -9.467 -10.191 
-12.2119 -15.9924 -13.4169 -12.5527 -10.554 -12.3007 -11.856 -11.856 -14.5399 -15.0264 -9.816001 -9.795501 -9.795501 -11.1939 -7.526 -12.1498 -9.9355 -12.8494 -10.191 
