-4.759 
n/a 
n/a 
n/a 
n/a 
-4.759 
n/a 
n/a 
n/a 
n/a 
-4.759 
n/a 
n/a 
n/a 
n/a 
-4.759 
n/a 
n/a 
n/a 
n/a 
-1.4985 -5.9265 -1.7565 -6.848001 -3.6825 -2.7415 -3.8055 -2.264 -4.132 0 
-6.926001 -7.4325 -8.689 -9.105501 -6.0635 -5.684 -5.0265 -5.500501 -4.132 
-7.818 -15 -10.6095 -11.6365 -8.9585 -6.3945 -6.3545 -5.500501 
-15.7071 -16.9205 -13.1405 -14.5315 -9.3555 -7.2585 -6.3545 
-17.6276 -19.4515 -16.0355 -14.9285 -10.565 -7.2585 
-6.848001 -2.229 -9.2705 -1.7565 0 -6.557 0 -2.7415 -4.912 
-8.481001 -12.0945 -11.1355 -1.7565 -6.557 -6.557 -2.7415 -6.759501 
-18.4759 -13.9595 -11.1355 -7.653501 -6.557 -9.448 -6.759501 
-20.3409 -13.9595 -17.0325 -7.653501 -9.448 -13.5658 
-20.3409 -19.8565 -17.0325 -10.0885 -13.5658 
-8.6925 -5.3485 -2.0935 -4.2775 -3.1715 -2.7415 -5.598 0 
-14.1516 -6.208 -6.4785 -7.104 -6.078 -7.1095 -5.598 
-15.0111 -9.477 -8.8 -9.3645 -10.757 -7.1095 
-18.2801 -12.4515 -11.2229 -14.1845 -10.757 
-21.2546 -14.8744 -16.0429 -14.1845 
-9.080501 -4.2775 -8.241501 -2.0935 -6.557 -2.186 -4.4725 -3.325 -4.66 0 
-12.89 -13.5924 -9.481501 -8.872001 -8.833 -5.528 -6.428 -8.2795 -4.66 
-22.594 -14.8324 -16.5108 -11.267 -12.2728 -7.630501 -12.3001 -8.2795 
-24.0772 -21.8617 -18.9058 -14.7068 -14.3753 -13.7752 -12.3001 
-31.1065 -24.2567 -22.3456 -16.8093 -20.52 -13.7752 
