-4.759 
n/a 
n/a 
n/a 
n/a 
-4.759 
n/a 
n/a 
n/a 
n/a 
-4.759 
n/a 
n/a 
n/a 
n/a 
-4.759 
n/a 
n/a 
n/a 
n/a 
-3.3715 -7.925 -4.8765 -2.4945 -3.074 -4.3895 -1.7695 -3.922 -1.4985 -3.949 -1.756 -5.507 -1.7565 -5.0295 
-12.5865 -13.3741 -6.4475 -4.4205 -7.0485 -6.4975 -4.5985 -4.7665 -5.016 -5.48 -6.343 -5.816 -6.8935 
-18.0356 -14.9451 -8.141001 -8.6 -9.414001 -9.304001 -5.177001 -7.349501 -6.415 -6.995 -6.4605 -11.6774 
-19.6066 -16.6386 -12.8671 -10.1595 -12.1983 -9.526501 -7.806001 -8.3855 -7.1035 -7.0825 -12.5745 
-21.3001 -21.3647 -14.4266 -12.9438 -12.4208 -12.3153 -8.857 -9.7178 -7.1155 -13.9289 
-1.4985 -7.4325 -1.756 -5.3915 -3.991 -1.7565 -4.664 -2.4945 -3.074 -3.2955 -1.7695 -3.922 -1.4985 -3.4905 -1.756 -4.1165 -1.7565 -1.4985 -5.0295 0 
-9.026501 -8.689501 -6.618001 -8.757001 -5.0075 -6.2795 -6.22 -4.4205 -5.43 -3.9425 -4.5985 -4.7665 -4.7085 -4.954 -6.2195 -5.448501 -2.4195 -6.0815 -5.0295 
-10.76 -9.5585 -9.617001 -9.9567 -8.9645 -7.936501 -7.9835 -6.2345 -6.01 -6.5795 -5.177001 -6.518001 -5.7825 -7.4795 -6.788 -5.744 -6.5975 -6.0815 
-11.629 -12.8735 -11.4039 -13.9137 -10.0895 -9.956 -9.361 -6.716001 -8.4895 -6.9625 -6.862 -7.842501 -8.8885 -8.746 -7.0875 -9.5585 -6.5975 
-14.944 -14.6604 -15.3609 -15.0387 -12.2226 -11.2763 -9.7745 -9.157001 -8.837501 -8.496 -8.139501 -11.3189 -9.0365 -9.1335 -9.9455 -9.5585 
-8.8455 -3.8785 -2.4945 -3.2955 -2.0935 -3.922 -1.4985 -3.949 -1.756 -3.4905 -1.7565 -1.4985 -7.2175 
-13.0348 -6.459001 -4.6305 -4.307 -6.9745 -4.7665 -5.016 -5.48 -5.576 -4.601 -2.4195 -8.944501 
-15.6153 -8.245501 -5.574501 -9.4965 -8.283 -7.349501 -6.415 -7.8875 -6.0745 -4.9845 -9.7185 
-17.4018 -9.549001 -10.5635 -10.534 -11.349 -8.3855 -8.585501 -8.408 -6.522 -10.0885 
-18.7053 -14.6898 -11.601 -13.6 -12.385 -10.2695 -8.656501 -8.803 -11.7856 
-3.0365 -2.4945 -3.135 -3.9795 -2.4945 -3.074 -3.43 -1.7695 -3.922 -1.4985 -3.949 -1.756 -4.9135 -1.7565 -1.4985 -4.1455 -4.916 0 
-3.688 -4.575 -6.967501 -5.705 -4.4205 -5.633 -4.647 -4.5985 -4.7665 -5.016 -5.48 -6.7 -5.9145 -2.4195 -5.503 -7.763 -4.916 
-5.0805 -8.814001 -8.1365 -7.6365 -6.960501 -7.072 -7.325 -5.177001 -7.349501 -6.415 -8.534 -7.8655 -7.036 -6.263 -8.132001 -7.763 
-8.868501 -10.5522 -10.1465 -10.3345 -7.829501 -9.507501 -7.676 -7.806001 -8.3855 -8.588 -8.5715 -8.509501 -11.5085 -8.868 -8.132001 
-10.6887 -12.5622 -13.1935 -11.5157 -10.304 -9.844 -10.292 -8.857 -11.2023 -8.597501 -8.875 -13.163 -14.1135 -8.868 
