-4.759 
n/a 
n/a 
n/a 
n/a 
-4.759 
n/a 
n/a 
n/a 
n/a 
-4.759 
n/a 
n/a 
n/a 
n/a 
-4.759 
n/a 
n/a 
n/a 
n/a 
-5.2545 -1.756 -3.091 -4.085 -5.292 -3.331 -1.7695 -3.3725 -1.4985 -7.31 -1.756 -1.934 -3.531 -3.849 -2.5045 -6.2085 
-6.484 -4.2995 -7.999001 -10.0645 -7.3995 -3.669 -4.7155 -5.4265 -8.761001 -9.1035 -4.0205 -5.012 -8.1955 -6.305 -8.542001 
-7.547501 -9.178 -14.1519 -12.172 -7.784 -6.0485 -5.947001 -13.4296 -10.31 -10.5985 -7.1125 -8.618 -11.0643 -12.4461 
-12.9282 -15.3989 -16.2594 -12.5565 -10.4527 -7.728 -14.2455 -14.9786 -11.805 -14.3473 -10.9247 -11.6762 -17.2054 
-19.1491 -17.5064 -16.6439 -15.2252 -12.1322 -16.2943 -15.7945 -16.4736 -15.5538 -18.1595 -13.9829 -17.8173 
-1.4985 -5.2545 -1.756 -3.091 -3.2795 -2.186 -3.849 -2.3345 -1.4985 -3.539 -4.5305 -3.1385 -3.849 -3.277 0 
-6.726001 -6.484 -4.2995 -6.28 -5.099 -4.8565 -5.722 -3.233 -5.719501 -9.830001 -7.8725 -6.7275 -6.232 -3.277 
-8.9855 -7.547501 -6.9175 -7.5935 -7.539001 -6.471 -6.1745 -7.701001 -12.0379 -13.3608 -11.8205 -8.474501 -6.232 
-10.513 -10.1385 -8.882501 -9.7355 -10.1545 -6.889 -11.1643 -14.2314 -15.5687 -17.3088 -13.5675 -8.474501 
-13.104 -12.2053 -11.0847 -12.3328 -10.492 -12.104 -17.6947 -17.7622 -19.5167 -19.0558 -13.5675 
-5.2545 -1.756 -3.091 -3.6825 -3.499 -3.4945 -4.6925 -1.934 -3.8675 -1.756 -2.925 -3.849 -2.5045 -3.539 -12.16972 
-6.484 -4.2995 -6.0125 -6.273 -6.9345 -7.0085 -5.7745 -5.812 -5.0145 -4.2585 -5.966001 -6.305 -7.245001 -17.43572 
-7.547501 -6.877 -8.352 -9.205 -10.749 -7.7755 -10.4505 -7.521 -8.072001 -7.214 -9.038501 -11.1491 -21.03392 
-9.3035 -9.343 -11.503 -13.3565 -11.516 -13.2093 -12.1595 -9.323501 -11.1369 -10.6735 -13.9796 -24.93802 
-11.8989 -12.5976 -15.6545 -14.1235 -16.9498 -14.9183 -13.962 -12.5312 -14.5964 -15.6146 -27.76852 
-1.4985 -5.2545 -1.756 -3.091 -3.711 -3.152 -3.849 -3.539 -5.3265 -1.756 -2.4945 -2.6165 -3.849 -2.0935 -1.7695 -3.3725 -1.4985 -3.8675 
-6.726001 -6.484 -4.2995 -7.894001 -5.971 -5.9565 -8.712501 -8.516001 -6.419001 -4.2725 -3.8065 -6.308001 -5.268 -5.7445 -4.7155 -5.4265 -4.976 
-8.9855 -7.547501 -8.854 -9.572001 -8.936001 -11.2222 -13.8533 -10.155 -8.712501 -5.271501 -7.2365 -7.4425 -7.646 -9.1315 -5.947001 -6.838 
-10.513 -12.6042 -10.3165 -12.537 -14.1225 -16.363 -15.4923 -12.6839 -9.865001 -9.056001 -8.6095 -9.861 -11.3624 -10.293 -6.954 
-15.5697 -14.0667 -13.2815 -17.7235 -19.2633 -18.002 -18.0212 -13.8364 -13.6495 -10.5225 -10.7575 -13.5774 -12.5239 -11.3 
