-4.759 
n/a 
n/a 
n/a 
n/a 
-4.759 
n/a 
n/a 
n/a 
n/a 
-4.759 
n/a 
n/a 
n/a 
n/a 
-4.759 
n/a 
n/a 
n/a 
n/a 
-1.934 -3.091 -3.8405 0 -1.4985 -4.4095 -1.7565 -1.4985 -9.196501 -2.229 -4.6825 0 
-4.2105 -7.208 -3.8405 -1.4985 -5.283 -5.1885 -2.4195 -9.906 -11.1415 -6.686 -4.6825 
-8.610001 -7.208 -5.224 -5.283 -5.4395 -5.639 -10.4345 -11.9342 -15.5985 -6.686 
-8.610001 -8.977 -9.1625 -5.4395 -5.83 -14.0662 -12.4627 -16.3912 -15.5985 
-9.602501 -13.0513 -9.280001 -5.83 -14.3526 -16.0944 -16.9197 -16.3912 
-1.934 -3.091 -3.8405 -6.864 -2.229 -3.519 -4.3195 -4.877 0 
-4.2105 -7.208 -10.1725 -8.205501 -5.6025 -7.87 -7.504 -4.877 
-8.610001 -14.124 -11.7004 -12.4612 -9.366 -10.292 -7.504 
-15.4198 -15.6519 -15.9561 -16.2247 -11.9428 -10.292 
-16.9477 -19.9076 -19.7196 -18.8015 -11.9428 
-3.5455 -3.091 -3.8405 0 -1.4985 -3.519 -1.7565 -6.864 -4.0965 -2.7415 -4.157 0 
-5.242001 -7.208 -3.8405 -1.4985 -4.426001 -4.6225 -8.661 -8.968 -6.906501 -6.118 -4.157 
-7.782001 -7.208 -5.224 -4.426001 -4.847001 -12.3034 -10.3545 -10.435 -10.4675 -6.118 
-7.782001 -8.977 -8.4785 -4.847001 -12.7405 -13.9969 -11.8215 -13.996 -10.4675 
-9.772 -12.3673 -9.0295 -12.7405 -14.434 -15.4639 -15.3825 -13.996 
-3.1495 -3.8405 -1.7565 -3.4795 -3.383 -4.0205 -1.7695 -6.864 -3.59 0 
-8.3385 -4.563 -5.2515 -7.3945 -5.582 -6.476501 -9.3815 -9.337 -3.59 
-9.673 -7.4735 -8.876 -10.089 -8.043501 -14.7101 -11.9015 -9.337 
-12.6045 -11.5478 -11.7249 -12.5505 -16.4445 -17.2301 -11.9015 
-16.6788 -14.3967 -14.1864 -20.9515 -18.9645 -17.2301 
