-4.759 
n/a 
n/a 
n/a 
n/a 
-4.759 
n/a 
n/a 
n/a 
n/a 
-4.759 
n/a 
n/a 
n/a 
n/a 
-4.759 
n/a 
n/a 
n/a 
n/a 
-4.712 -3.193 -1.756 -6.1895 -4.3775 -2.4945 -3.699 -3.4075 -5.0305 -1.934 -3.8735 
-5.7735 -4.7435 -8.056 -11.9684 -7.832 -5.304 -6.979 -8.0695 -6.613501 -4.885 
-7.433001 -10.0475 -14.4985 -15.4229 -11.0403 -8.976501 -10.396 -9.052 -8.751 
-10.3405 -17.317 -17.953 -18.6312 -14.7128 -12.5271 -11.3785 -11.6147 
-17.4564 -20.7715 -21.1613 -22.3037 -18.2634 -13.5096 -13.9412 
-4.712 -3.193 -1.7565 -3.8735 0 -5.5785 -7.31 0 -4.2705 -3.193 -1.7565 -5.5785 0 -2.4945 -1.4985 -3.699 -3.4075 -5.0305 0 
-5.7735 -4.5615 -5.112 -3.8735 -5.5785 -8.842501 -7.31 -4.2705 -6.5485 -4.5615 -7.196001 -5.5785 -2.4945 -3.9315 -5.264 -6.979 -8.0695 -5.0305 
-7.9735 -8.401501 -5.112 -8.2355 -8.842501 -8.842501 -10.543 -6.5485 -8.076 -9.9835 -7.196001 -8.489 -3.9315 -7.0825 -8.526501 -10.396 -8.0695 
-8.941001 -8.401501 -9.042001 -11.7189 -8.842501 -12.2867 -13.2408 -8.076 -14.0308 -9.9835 -9.5935 -9.953501 -7.0825 -10.66 -11.9973 -10.396 
-8.941001 -12.7085 -12.6542 -11.7189 -12.2867 -14.9845 -14.7683 -14.0308 -14.0308 -12.8044 -11.2298 -13.2041 -10.66 -14.1308 -11.9973 
-4.712 -3.193 -1.7565 -3.8735 0 -5.5785 -7.31 0 -4.2705 -3.193 -1.7565 -6.1895 -5.5785 0 -2.4945 -3.699 -3.4075 -5.0305 0 
-5.7735 -4.5615 -5.112 -3.8735 -5.5785 -8.842501 -7.31 -4.2705 -6.5485 -4.5615 -7.2415 -6.407001 -5.5785 -2.4945 -5.304 -6.979 -8.0695 -5.0305 
-7.9735 -8.401501 -5.112 -8.2355 -8.842501 -8.842501 -10.543 -6.5485 -8.076 -9.253501 -7.289 -6.407001 -8.489 -5.304 -8.976501 -10.396 -8.0695 
-8.941001 -8.401501 -9.042001 -11.7189 -8.842501 -12.2867 -13.2408 -8.076 -10.597 -9.255501 -7.289 -9.253501 -11.5395 -8.976501 -12.5271 -10.396 
-8.941001 -12.7085 -12.6542 -11.7189 -12.2867 -14.9845 -14.7683 -10.597 -10.6165 -9.255501 -9.835501 -12.4218 -15.212 -12.5271 -12.5271 
-4.1865 -8.466001 -3.193 0 -5.5785 -7.31 -2.4945 -3.074 -1.4985 -3.17 -3.699 -3.4075 -10.033 0 
-10.459 -9.2685 -3.193 -5.5785 -8.842501 -10.147 -4.4205 -4.6505 -3.7115 -4.663 -6.979 -15.0955 -10.033 
-10.537 -9.2685 -8.566 -8.842501 -11.8907 -12.2496 -6.229 -6.3875 -4.8395 -7.8 -19.3174 -15.0955 
-10.537 -14.7151 -10.061 -11.8907 -13.9933 -14.0581 -7.2755 -7.785 -8.0275 -20.2424 -19.3174 
-16.8656 -16.2101 -13.3748 -13.9933 -15.8018 -15.1046 -8.812 -11.0968 -20.5177 -20.2424 
