-4.759 
n/a 
n/a 
n/a 
n/a 
-4.759 
n/a 
n/a 
n/a 
n/a 
-4.759 
n/a 
n/a 
n/a 
n/a 
-4.759 
n/a 
n/a 
n/a 
n/a 
-3.524 -3.3245 -4.034 -4.3215 -4.893 -4.795 -2.5195 -8.984 0 
-5.391 -7.8455 -7.861001 -8.610001 -9.345501 -6.3345 -10.5435 -8.984 
-10.281 -12.1165 -12.6485 -13.8011 -9.862 -15.1605 -10.5435 
-14.76 -16.904 -17.8396 -14.3176 -19.3466 -15.1605 
-19.5475 -22.0951 -18.3561 -23.8022 -19.3466 
-3.524 -13.354 -4.3215 -2.3335 -2.925 -2.742 -3.5865 -5.7655 -8.516001 -2.5195 -4.5235 
-15.9767 -18.2317 -5.1075 -4.0295 -4.3725 -5.3495 -9.521501 -14.9109 -11.8403 -6.3005 
-21.3272 -19.0177 -6.3015 -5.3675 -7.073 -12.2119 -18.8869 -18.2352 -15.6213 
-22.1132 -20.2117 -6.9315 -7.9425 -14.2002 -21.5773 -22.2112 -22.0162 
-23.3072 -20.8417 -9.6925 -15.2225 -23.5656 -24.9016 -25.9922 
-3.524 -3.3245 -4.034 -4.351 -3.251 -3.1435 -4.5605 -4.348 -2.5195 -4.5235 0 
-5.391 -7.8455 -8.948 -6.97 -6.568501 -7.6525 -7.8315 -6.4615 -6.3005 -4.5235 
-10.281 -13.2035 -11.8068 -11.2429 -11.5395 -11.5033 -10.204 -8.1955 -6.3005 
-15.847 -16.0623 -16.0797 -16.2139 -15.3903 -13.8758 -11.938 -8.1955 
-18.7058 -20.3352 -21.0507 -20.0647 -17.7628 -15.6098 -11.938 
-3.524 -3.3245 -10.0295 -4.5605 -1.756 -4.283 -4.7715 -4.3215 -4.351 -2.5195 -9.188001 
-5.391 -13.9102 -14.59 -5.9695 -5.6395 -5.433 -8.43 -10.4945 -5.638 -10.8625 
-17.0057 -18.4707 -15.999 -6.6325 -6.5325 -9.024 -15.1984 -11.7815 -14.7136 
-21.5662 -19.8797 -16.662 -6.6715 -9.674001 -15.7294 -16.4854 -20.8571 
-22.9752 -20.5427 -16.701 -10.041 -17.2588 -17.0164 -25.561 
