-4.759 
n/a 
n/a 
n/a 
n/a 
-4.759 
n/a 
n/a 
n/a 
n/a 
-4.759 
n/a 
n/a 
n/a 
n/a 
-4.759 
n/a 
n/a 
n/a 
n/a 
-4.1035 -4.4655 -1.7565 -8.214001 -2.264 -11.9895 0 
-8.016001 -6.081 -9.435 -10.784 -11.099 -8.716001 
-9.7005 -14.8287 -12.0492 -19.619 -11.099 
-18.6496 -17.4429 -20.8842 -19.619 
-21.2638 -26.2779 -20.8842 
-1.934 -11.9895 -3.0365 -2.186 -2.664 -4.867 -2.7455 -8.55 0 
-10.7865 -12.1885 -3.66 -3.8555 -5.85 -6.797 -12.2541 -8.55 
-14.7608 -13.2393 -4.9795 -7.492001 -7.258 -16.5928 -12.2541 
-15.3098 -14.4333 -8.632501 -8.627501 -17.1988 -16.5928 
-16.5038 -18.3435 -9.5725 -18.7283 -17.1988 
-1.934 -11.9895 -4.1035 -2.7455 -10.201 0 
-10.7865 -12.5725 -6.5755 -13.9051 -10.201 
-15.1448 -15.7398 -18.3643 -13.9051 
-17.8103 -27.8582 -18.3643 
-29.9287 -27.8582 
-11.9895 -2.7455 -8.55 -4.8965 -4.867 
-11.306 -12.2541 -13.9095 -9.2575 
-21.6944 -17.6136 -18.2705 
-27.0539 -21.9746 
-31.4149 
