-4.759 
n/a 
n/a 
n/a 
n/a 
-4.759 
n/a 
n/a 
n/a 
n/a 
-4.759 
n/a 
n/a 
n/a 
n/a 
-4.759 
n/a 
n/a 
n/a 
n/a 
-6.920001 -3.465 -4.7265 -3.135 -5.547 -4.352 0 -3.0415 -2.9805 -4.101 -1.7695 -6.6575 
-11.1348 -8.347 -7.111 -9.124001 -9.920501 -4.352 -3.0415 -5.0885 -5.2985 -4.6905 -8.778 
-16.0168 -11.2107 -13.958 -13.4999 -9.920501 -6.835 -5.0885 -6.908 -5.869 -10.7175 
-18.8805 -18.0577 -18.3339 -13.4999 -12.5053 -8.612 -6.908 -7.4535 -12.1794 
-25.7275 -22.4336 -18.3339 -16.0847 -14.2823 -10.468 -7.4535 -13.9901 
-3.6245 -3.3785 -1.4985 -4.352 -2.7455 -3.8905 0 -9.299001 -4.215 -2.7455 -9.8575 -1.756 -4.101 -1.7695 -3.595 
-7.495 -4.6165 -4.71 -5.4385 -6.1255 -3.8905 -9.299001 -14.0154 -5.5395 -13.5616 -11.9451 -5.32 -4.6905 -4.741 
-8.501 -6.3025 -5.568 -7.652 -6.1255 -14.3859 -14.0154 -15.3399 -16.746 -15.6492 -15.5091 -5.9125 -7.3075 
-10.1675 -7.129001 -7.804501 -7.652 -17.0839 -19.1023 -15.3399 -26.5464 -18.8336 -19.2132 -16.1016 -8.341001 
-10.994 -8.931001 -7.804501 -18.918 -21.8003 -20.4268 -26.5464 -28.634 -22.3976 -19.8057 -18.5301 
-3.7875 -4.215 -2.7455 -6.6575 0 -8.349 -4.101 -1.7695 -3.595 -1.7695 -3.659 -3.3715 -4.2665 -2.7455 -3.8905 0 
-6.6765 -5.5395 -9.5595 -6.6575 -8.349 -13.2674 -4.6905 -4.741 -4.634 -4.3495 -6.976 -7.163501 -5.381 -6.1255 -3.8905 
-8.0035 -12.7439 -9.5595 -10.2755 -13.2674 -13.8569 -7.3075 -6.365 -7.3085 -7.5955 -9.3225 -8.1295 -8.731501 -6.1255 
-15.3717 -12.7439 -13.2443 -15.8681 -13.8569 -16.4739 -8.599001 -8.669001 -9.901001 -9.9945 -9.5655 -11.7848 -8.731501 
-15.3717 -16.4287 -18.8369 -16.4576 -16.4739 -17.7654 -10.575 -11.5869 -12.544 -10.2425 -13.2812 -11.7848 
-1.7695 -3.3785 -1.4985 -4.352 -1.7565 -3.8905 0 -6.920001 -4.101 -1.7695 -6.6575 -1.7695 -3.855 -3.6175 
-4.1685 -4.6165 -4.71 -5.6965 -4.622 -3.8905 -6.920001 -10.01 -4.6905 -8.778 -9.069 -4.6595 -5.214 
-5.3175 -6.3025 -5.813 -7.007501 -4.622 -10.4185 -10.01 -10.259 -10.7175 -11.4449 -12.0792 -5.832 
-6.772501 -7.5325 -7.107 -7.007501 -11.3484 -13.5085 -10.259 -16.286 -13.3844 -14.4551 -13.2517 
-7.982 -9.095 -7.107 -14.4015 -14.4384 -13.7575 -16.286 -18.9529 -16.3946 -15.6276 
