-4.759 
n/a 
n/a 
n/a 
n/a 
-4.759 
n/a 
n/a 
n/a 
n/a 
-4.759 
n/a 
n/a 
n/a 
n/a 
-4.759 
n/a 
n/a 
n/a 
n/a 
-6.429501 -2.186 -3.2955 -1.7695 -4.0415 -3.9495 
-7.902501 -4.348001 -3.9425 -5.2495 -7.6455 
-9.9215 -4.837 -6.759 -7.968 
-10.1515 -7.445 -9.004001 
-12.716 -9.6215 
-4.003 -1.4985 -3.9445 -3.458 -1.4985 -4.1405 -1.756 -3.2945 -2.8645 -1.7695 -4.037 -1.7695 -2.9645 -2.3615 
-6.3885 -5.088 -6.1715 -4.063 -5.296 -5.7385 -5.204 -5.499001 -4.4755 -6.710501 -5.719 -3.812 -4.419 
-10.6095 -7.313001 -6.8355 -7.557 -6.861 -8.2075 -8.33 -6.756001 -9.915501 -9.029 -7.2685 -4.966 
-12.8345 -7.928501 -10.3285 -7.7035 -9.026501 -11.7327 -9.238001 -12.5788 -10.7065 -10.7479 -8.9285 
-13.45 -11.5553 -10.4615 -9.598001 -12.7559 -12.6407 -15.1464 -13.3698 -12.4254 -12.4079 
-4.003 -2.186 -3.2955 -1.7695 -4.0415 -1.4985 -4.4265 -4.1965 -1.7565 -1.4985 -3.127 
-6.343 -4.348001 -3.9425 -5.2495 -5.622 -4.9985 -8.802501 -5.774 -2.4195 -4.269 
-7.8345 -4.837 -6.759 -6.125501 -9.4025 -9.502001 -10.3165 -6.3155 -5.1285 
-8.345501 -7.445 -7.5665 -10.047 -14.16 -11.1172 -10.744 -8.663 
-10.564 -8.05 -11.7742 -14.8045 -15.7752 -11.5447 -13.0915 
-4.003 -3.8455 -1.4985 -3.36 -1.7695 -3.4465 -2.915 -1.7695 -3.0785 0 
-8.861 -4.883 -4.598001 -5.5955 -4.299 -5.66 -4.548 -3.9555 -3.0785 
-10.4895 -8.163501 -6.345 -8.158501 -6.0475 -7.29 -5.957 -3.9555 
-13.77 -10.6979 -9.087501 -9.248 -7.754 -7.7255 -5.957 
-16.3044 -13.4404 -9.793501 -11.0499 -9.087 -7.7255 
