-4.759 
n/a 
n/a 
n/a 
n/a 
-4.759 
n/a 
n/a 
n/a 
n/a 
-4.759 
n/a 
n/a 
n/a 
n/a 
-4.759 
n/a 
n/a 
n/a 
n/a 
-12.9985 -2.229 -3.9875 -4.116 
-15.3522 -5.9535 -6.898 
-18.8732 -8.3785 
-21.4868 
n/a 
-8.908 0 -5.919 -1.7565 -2.3615 -3.7595 
-8.908 -5.919 -7.01 -3.523 -5.0065 
-15.0962 -7.01 -8.323 -5.602 
-16.1872 -8.323 -10.8076 
-17.5002 -10.8076 
-7.449 0 -4.385 -1.7565 -6.2055 0 
-7.449 -4.385 -5.5725 -8.017 -6.2055 
-12.6694 -5.5725 -13.0124 -8.017 
-13.8569 -13.0124 -13.0124 
-21.2968 -13.0124 
-8.908 0 -10.9655 -9.354 
-8.908 -10.9655 -20.8495 
-20.1427 -20.8495 
-30.0267 
n/a 
