-4.759 
n/a 
n/a 
n/a 
n/a 
-4.759 
n/a 
n/a 
n/a 
n/a 
-4.759 
n/a 
n/a 
n/a 
n/a 
-4.759 
n/a 
n/a 
n/a 
n/a 
-3.401 -4.98 -6.144 -4.752 -1.8085 -4.9675 
-7.1715 -11.6796 -11.8958 -5.724 -6.1425 
-14.4221 -17.4314 -12.8678 -10.5435 
-20.1739 -18.4034 -17.6873 
-21.1459 -23.2229 
-1.8085 -4.9675 -4.0925 -2.3345 -1.4985 -5.3745 -4.891 
-6.1425 -8.549 -5.414001 -3.233 -6.2355 -7.061501 
-10.4322 -10.048 -5.9585 -8.076 -7.2945 
-11.9312 -10.077 -10.4345 -8.341001 
-11.9602 -14.8934 -10.5565 
-11.252 -1.7565 -1.4985 -5.0475 -4.0925 -2.3345 -1.4985 -6.144 0 
-10.956 -2.4195 -6.4925 -9.0295 -5.414001 -3.233 -6.455 -6.144 
-11.575 -7.201001 -10.3545 -9.688001 -5.9585 -7.5045 -6.455 
-16.239 -11.1994 -11.013 -9.806001 -9.611 -7.5045 
-20.632 -11.8579 -11.131 -13.9351 -9.611 
-4.891 -3.251 -4.298 -1.8085 -5.707 -4.4475 
-7.578501 -6.7565 -5.3835 -6.3 -10.151 
-11.3252 -7.2905 -10.575 -10.322 
-11.8592 -12.6176 -14.597 
-17.1863 -16.6396 
