-4.759 
n/a 
n/a 
n/a 
n/a 
-4.759 
n/a 
n/a 
n/a 
n/a 
-4.759 
n/a 
n/a 
n/a 
n/a 
-4.759 
n/a 
n/a 
n/a 
n/a 
-2.3615 -3.5025 -2.8645 -1.4985 -9.0795 -3.7535 
-5.751 -6.037 -4.3545 -10.115 -13.2038 
-9.602 -7.8835 -13.6994 -14.5087 
-11.4849 -17.782 -18.0931 
-21.3834 -22.1757 
-2.3615 -3.4605 -3.43 -3.3715 -4.7005 -1.7565 -3.7535 0 
-4.455 -7.3065 -6.2845 -6.274 -4.764 -5.824501 -3.7535 
-8.217 -10.8926 -9.592 -6.3465 -8.7425 -5.824501 
-12.3517 -14.2001 -9.615 -10.5506 -8.7425 
-15.6592 -14.2231 -13.8191 -10.5506 
-2.3615 -3.4605 -4.413 -4.422 -1.934 -3.3715 -3.6065 -3.852 
-4.455 -8.744501 -8.884001 -5.904 -4.622 -5.106 -8.343 
-9.6125 -13.4285 -9.692 -8.437501 -5.9965 -10.044 
-14.8605 -14.2365 -12.4833 -10.2035 -11.6875 
-15.6685 -17.0278 -14.2493 -16.1199 
-2.3615 -3.4605 -2.8645 -3.43 -3.845 -1.7565 -5.9725 -1.934 -3.3715 -4.379 0 
-4.455 -5.754001 -4.9155 -8.513 -4.13 -7.9635 -8.175 -4.622 -7.415001 -4.379 
-6.3155 -8.368 -9.543 -8.6995 -9.219501 -9.592501 -11.1318 -8.182501 -7.415001 
-9.318501 -13.4601 -9.596001 -14.025 -11.2515 -12.6323 -14.6923 -8.182501 
-14.521 -13.5131 -14.9989 -16.057 -14.2913 -16.1928 -14.6923 
