-4.759 
n/a 
n/a 
n/a 
n/a 
-4.759 
n/a 
n/a 
n/a 
n/a 
-4.759 
n/a 
n/a 
n/a 
n/a 
-4.759 
n/a 
n/a 
n/a 
n/a 
-3.197 -2.9905 -3.251 -1.4985 -3.9305 -3.401 0 -2.872 -2.4265 -2.186 -3.098 -3.2955 -1.7695 -3.486 -3.681 0 
-4.227 -7.059501 -4.5775 -5.672501 -6.6385 -3.401 -2.872 -4.062 -3.292 -4.5535 -5.778 -3.9425 -5.2835 -8.478001 -3.681 
-9.329 -8.296 -8.9145 -8.009001 -6.6385 -5.572001 -4.062 -4.7985 -5.4325 -6.2545 -6.62 -9.33 -10.609 -8.478001 
-10.648 -12.688 -10.5535 -8.009001 -9.538501 -6.7215 -4.7985 -6.746 -7.1825 -6.8725 -12.4685 -14.5263 -10.609 
-15.04 -14.327 -10.5535 -10.733 -10.7798 -7.519 -6.746 -8.5965 -7.703 -13.0718 -17.6648 -14.5263 
-2.7415 -4.559 -1.8085 -2.791 -4.308 -2.5045 -4.099 0 -2.872 -3.098 -2.0935 -3.486 -4.0865 0 
-5.8975 -5.968 -5.4845 -5.8395 -7.3285 -5.6225 -4.099 -2.872 -5.0315 -4.8475 -5.157001 -5.288 -4.0865 
-6.859 -8.6045 -7.5995 -9.602501 -10.2865 -5.6225 -6.8075 -5.0315 -6.306 -8.5525 -6.273 -5.288 
-8.990001 -8.761001 -9.910501 -13.0171 -10.2865 -8.7045 -8.851 -6.306 -10.275 -9.7065 -6.273 
-9.110001 -11.641 -13.3565 -13.0171 -13.4225 -10.6885 -10.0475 -10.275 -11.429 -9.7065 
-1.4985 -3.7555 -3.674 -2.5045 -2.7295 -3.3785 -2.872 -2.3615 -3.486 -3.9035 -4.3435 -2.5045 -2.7295 -3.557 0 
-6.540501 -8.191 -6.3385 -4.4295 -4.7195 -5.6185 -4.6665 -6.703 -7.8165 -8.047001 -6.6195 -4.4295 -5.115 -3.557 
-11.5078 -10.504 -8.324 -5.733 -7.2755 -7.4235 -8.7475 -11.6399 -12.4926 -10.799 -8.743 -7.059 -5.115 
-13.8208 -12.8913 -9.05 -8.218 -9.115001 -11.7421 -14.4036 -16.316 -15.2446 -12.9225 -11.6107 -7.059 
-16.2081 -13.6173 -12.1732 -9.986501 -13.437 -17.3982 -19.0797 -19.068 -17.3681 -15.7902 -11.6107 
-2.4265 -2.186 -3.9205 -2.3335 -2.4265 -3.7555 -1.4985 -3.2895 -2.872 -2.4265 -2.7415 -4.4155 -3.0365 -2.3335 -2.7415 -2.0935 -1.4985 -4.3435 -2.356 -3.486 -3.7795 -3.098 0 
-3.292 -4.9645 -5.597 -3.913 -5.6305 -4.843 -4.862 -6.369 -4.062 -3.681 -6.0585 -6.8145 -5.474 -4.2725 -5.3415 -2.9725 -5.6925 -6.660501 -5.924 -6.5795 -7.671 -3.098 
-5.9475 -6.28 -7.192501 -7.2015 -7.0015 -8.0165 -8.227501 -7.693501 -5.1385 -6.809 -8.547501 -8.8835 -7.169 -6.848001 -6.1065 -7.216001 -8.588 -9.198501 -10.0645 -10.4425 -7.671 
-6.2915 -8.151501 -10.901 -8.5485 -10.434 -10.3605 -9.5655 -8.8935 -8.566001 -9.157001 -10.142 -10.8573 -9.7445 -7.611 -10.5432 -9.365001 -11.3296 -14.0814 -14.2219 -10.4425 
-8.1755 -11.8588 -12.248 -12.075 -12.918 -11.6985 -10.3765 -12.4632 -11.1308 -10.177 -12.1158 -13.4328 -10.5995 -12.1793 -12.6922 -12.0894 -16.2125 -18.2388 -14.2219 
