-4.759 
n/a 
n/a 
n/a 
n/a 
-4.759 
n/a 
n/a 
n/a 
n/a 
-4.759 
n/a 
n/a 
n/a 
n/a 
-4.759 
n/a 
n/a 
n/a 
n/a 
-3.2615 -7.6695 -3.956 -1.7565 -4.649 -3.0835 -2.95 -4.9295 
-12.0446 -10.61 -4.932 -6.545001 -8.592501 -4.3945 -8.656 
-14.9851 -12.0808 -7.988 -10.76 -10.4115 -10.382 
-16.4559 -15.1368 -13.0286 -12.579 -16.399 
-19.5119 -20.1774 -14.8476 -18.5665 
-3.5065 -8.110001 -2.229 -3.956 
-12.6585 -9.391001 -5.2205 
-13.9395 -10.704 
-15.2525 
n/a 
-3.2615 -3.956 -1.7565 -8.110001 0 -3.0835 -2.95 -4.9295 
-6.0445 -4.932 -9.84 -8.110001 -3.0835 -4.3945 -8.656 
-7.3395 -10.76 -9.84 -11.6399 -4.3945 -10.382 
-13.5887 -10.76 -13.4171 -12.9509 -10.382 
-13.5887 -14.3371 -14.7281 -18.9384 
-3.0835 -2.95 -2.9805 -4.3375 -3.2615 -3.956 -2.0935 -3.741 -8.110001 
-4.3945 -5.2005 -5.565001 -7.2815 -6.0445 -6.0045 -5.844 -9.874001 
-6.422501 -7.712501 -9.43 -10.6325 -8.069 -9.441 -12.17 
-9.8065 -11.5935 -12.8122 -12.657 -11.7575 -15.7994 
-13.5405 -14.9757 -14.8367 -16.3455 -18.1159 
