-4.759 
n/a 
n/a 
n/a 
n/a 
-4.759 
n/a 
n/a 
n/a 
n/a 
-4.759 
n/a 
n/a 
n/a 
n/a 
-4.759 
n/a 
n/a 
n/a 
n/a 
-2.7455 -4.835 -1.934 -2.3615 -3.4715 -3.869 -4.361 -4.53 0 -3.8315 0 
-8.023001 -6.7405 -3.539 -5.3475 -7.9575 -8.6055 -7.9745 -4.53 -3.8315 -3.8315 
-10.2073 -8.286 -6.094 -10.071 -13.117 -12.4304 -7.9745 -7.8945 -3.8315 
-11.7528 -11.1424 -10.3095 -15.5287 -16.9419 -12.4304 -11.159 -7.8945 
-14.6092 -15.3579 -16.315 -19.3536 -16.9419 -15.6149 -11.159 
-2.3615 -4.5095 -3.402 -2.264 -3.8315 -3.4005 
-5.9415 -7.953 -3.793 -6.009 -5.887 
-8.993 -8.062 -7.227 -7.706501 
-9.0225 -11.8486 -10.4105 
-13.4145 -15.0321 
-2.3615 -4.126 -1.7565 -3.4005 0 -3.8315 -1.7565 -4.495 0 -3.6845 -3.8625 -1.7565 -5.34 0 
-5.538 -5.221001 -4.473 -3.4005 -3.8315 -6.1425 -6.1315 -4.495 -3.6845 -8.410501 -5.847 -8.423 -5.34 
-6.4275 -8.129001 -4.473 -7.2685 -6.1425 -11.4851 -6.1315 -8.699501 -8.410501 -10.0575 -13.1561 -8.423 
-9.259501 -8.129001 -8.861501 -10.419 -11.4851 -11.4851 -10.476 -13.7227 -10.0575 -17.3666 -13.1561 
-9.259501 -12.8911 -12.3358 -15.7616 -11.4851 -15.8296 -15.4992 -15.3697 -17.3666 -17.3666 
-3.1495 -3.473 -5.34 -3.766 -5.883 0 
-7.738 -9.3205 -9.0585 -10.0445 -5.883 
-14.2629 -13.0868 -15.7772 -10.0445 
-18.0292 -19.8055 -15.7772 
-24.7479 -19.8055 
