-4.759 
n/a 
n/a 
n/a 
n/a 
-4.759 
n/a 
n/a 
n/a 
n/a 
-4.759 
n/a 
n/a 
n/a 
n/a 
-4.759 
n/a 
n/a 
n/a 
n/a 
-2.925 -4.164 -1.4985 -3.699 -4.2695 -1.934 -1.4985 -4.373 
-6.336 -5.1675 -5.264 -7.718 -5.712 -2.6125 -5.0385 
-6.831501 -9.4475 -8.804001 -8.7275 -6.582 -6.399 
-11.3803 -13.1829 -9.820001 -9.599501 -10.8015 
-15.1157 -14.1989 -10.399 -13.8516 
-1.934 -1.4985 -4.7485 -1.7565 -5.0075 -1.7565 -7.5605 -3.0365 -3.152 -5.3315 -3.681 -3.152 -3.8825 0 
-2.6125 -5.63 -6.422 -5.9065 -5.9815 -9.578 -11.433 -4.453 -8.344501 -8.312 -5.8265 -5.8815 -3.8825 
-6.6965 -6.741 -6.962 -6.6585 -15.1026 -13.4505 -12.8495 -9.598001 -10.76 -10.586 -9.288 -5.8815 
-7.8145 -7.1565 -7.49 -16.6586 -18.9751 -14.867 -17.9945 -12.0425 -13.034 -14.0475 -9.288 
-8.899 -7.570001 -18.7709 -20.5311 -20.3916 -20.012 -20.439 -14.3165 -16.4955 -14.0475 
-8.445001 -5.193 -2.985 -4.7485 -3.1435 -3.642 -4.1545 -3.998 0 
-14.3698 -8.130501 -8.061001 -8.570001 -6.159 -6.0435 -7.0865 -3.998 
-17.3073 -13.4219 -12.1891 -11.7307 -8.262 -9.373501 -7.0865 
-22.5987 -17.55 -15.3498 -13.8337 -11.976 -9.373501 
-26.7268 -20.7107 -17.4528 -17.5477 -11.976 
-8.445001 -4.7485 -3.7375 -3.433 -3.7855 -2.3335 0 
-13.9253 -9.117001 -8.128 -7.8245 -5.222 -2.3335 
-18.2938 -14.2049 -12.9479 -8.624001 -5.222 
-23.3817 -19.0248 -13.7474 -8.624001 
-28.2016 -19.8243 -13.7474 
