-4.759 
n/a 
n/a 
n/a 
n/a 
-4.759 
n/a 
n/a 
n/a 
n/a 
-4.759 
n/a 
n/a 
n/a 
n/a 
-4.759 
n/a 
n/a 
n/a 
n/a 
-1.934 -2.3615 -3.8405 -3.098 -8.27 -4.245 -3.9675 -2.7415 -3.3235 -3.9205 -1.7695 -3.277 
-3.539 -5.371 -6.6335 -10.6605 -12.9418 -7.108001 -6.5745 -5.541 -4.8795 -4.971 -4.619 
-6.410501 -8.063 -14.742 -15.3323 -15.8048 -10.4548 -9.34 -6.6415 -6.2955 -7.153 
-9.056001 -16.3689 -19.4138 -18.1953 -19.1516 -13.2203 -10.514 -7.435501 -8.3925 
-17.3585 -21.0407 -22.2768 -21.5421 -21.9171 -14.3943 -11.308 -9.2025 
-1.934 -2.3615 -3.8405 -5.1845 -3.9675 -2.7415 -4.816 -4.8025 -8.27 0 
-3.539 -5.371 -9.602 -8.286 -6.5745 -6.731501 -10.2435 -13.4983 -8.27 
-6.410501 -11.2801 -13.0311 -10.6465 -10.0375 -12.7644 -18.9393 -13.4983 
-12.4558 -14.7092 -15.3916 -14.1095 -16.155 -21.4602 -18.9393 
-15.8849 -17.0697 -18.8546 -20.227 -24.8508 -21.4602 
-2.3615 -2.95 -8.863001 -4.245 -3.9675 -2.186 -4.38 0 
-4.4645 -12.7466 -13.692 -7.108001 -5.881001 -6.329 -4.38 
-14.5403 -17.5756 -16.555 -10.13 -10.1855 -6.329 
-19.3693 -20.4386 -19.577 -14.4345 -10.1855 
-22.2323 -23.4606 -23.8815 -14.4345 
-1.934 -2.3615 -3.8405 -8.27 -5.5105 -2.985 -4.692 
-3.539 -5.371 -13.1129 -14.2073 -7.931001 -7.174 
-6.410501 -14.791 -19.0502 -16.6278 -12.4426 
-15.9667 -20.7283 -21.4707 -21.1394 
-21.904 -23.1488 -25.9823 
