-4.759 
n/a 
n/a 
n/a 
n/a 
-4.759 
n/a 
n/a 
n/a 
n/a 
-4.759 
n/a 
n/a 
n/a 
n/a 
-4.759 
n/a 
n/a 
n/a 
n/a 
-3.6845 -1.4985 -5.4765 -1.7695 -4.744 
-4.8155 -7.097501 -7.358 -6.760001 
-10.9407 -9.094501 -12.8925 
-12.9377 -15.104 
-18.9472 
-3.6845 -5.4765 -1.7695 -5.211 
-10.0445 -7.358 -7.930001 
-10.4245 -14.0625 
-17.129 
n/a 
0 -3.6845 -4.6335 -1.7695 -3.45 -3.0695 -5.1645 0 
-3.6845 -8.356501 -6.6685 -4.5965 -4.273 -7.4855 -5.1645 
-8.356501 -8.566001 -8.8365 -5.2565 -8.158 -7.4855 
-8.566001 -10.019 -9.064 -9.219501 -8.158 
-10.019 -10.2485 -13.0914 -9.219501 
-4.426 -1.7565 -1.4985 -3.6115 -4.7285 -4.1555 -3.147 -3.6845 -4.6335 -1.7695 -7.827 0 
-5.47 -2.4195 -4.081 -6.5495 -8.4455 -5.77 -6.884 -8.356501 -6.6685 -10.155 -7.827 
-5.9535 -5.180501 -6.670501 -9.978001 -9.541501 -9.355 -12.1646 -8.566001 -15.5082 -10.155 
-8.462501 -7.797 -10.054 -11.0524 -13.1265 -15.4216 -12.3741 -17.9405 -15.5082 
-10.2375 -11.2985 -11.1648 -14.6374 -19.1931 -15.6311 -21.7486 -17.9405 
