-4.759 
n/a 
n/a 
n/a 
n/a 
-4.759 
n/a 
n/a 
n/a 
n/a 
-4.759 
n/a 
n/a 
n/a 
n/a 
-4.759 
n/a 
n/a 
n/a 
n/a 
-8.035001 -2.229 -4.2245 -3.0835 -6.845 -3.2345 -1.756 -3.859 -2.688 -3.2875 -4.281 -2.5045 -9.7985 -3.2615 -2.3335 -2.9805 -4.164 -1.4985 -3.9515 -1.7695 -9.7985 -2.5195 -7.299 
-9.959001 -5.519 -7.143001 -11.1387 -10.9289 -5.557 -5.1445 -6.184 -6.0225 -7.497001 -5.893 -13.2204 -13.146 -5.0495 -4.1515 -6.4465 -5.1675 -5.059 -5.884 -12.5502 -12.404 -9.2585 
-13.3222 -7.2345 -16.2024 -15.2226 -13.2514 -8.4615 -7.1575 -8.9895 -9.458 -9.1665 -16.9697 -16.5679 -14.934 -6.606 -7.744 -7.1455 -9.084001 -6.9115 -17.3673 -15.1557 -19.143 
-15.0377 -17.4767 -20.2863 -17.5451 -16.1559 -10.7595 -10.7025 -13.0676 -11.2207 -20.473 -20.3172 -18.3559 -16.4905 -9.525001 -8.459001 -11.3924 -10.451 -18.6354 -19.9728 -21.8947 
-25.2799 -21.5606 -22.6088 -20.4496 -18.4539 -14.3045 -14.7806 -14.8303 -22.5272 -23.8205 -22.1052 -19.9124 -19.4095 -10.3115 -12.7283 -12.7594 -22.1749 -21.2409 -26.7118 
-1.4985 -4.2245 -1.7565 -8.3365 -3.849 -6.845 -2.3085 -3.8755 -1.8085 -3.2875 -3.849 -9.7985 -1.756 -4.3285 -2.4265 -2.5045 -3.091 -3.9515 -3.2875 0 
-5.219 -4.942 -9.0765 -12.9429 -10.8546 -9.733001 -5.7045 -5.0255 -5.0185 -7.1225 -13.8081 -11.6405 -5.845 -6.501 -4.6185 -5.2025 -6.9945 -5.783 -3.2875 
-5.361001 -10.2225 -13.9189 -19.9485 -13.7426 -13.287 -6.179 -8.632501 -7.6445 -17.1736 -15.6501 -15.7295 -7.771501 -7.647 -7.086 -8.394501 -8.486 -5.783 
-10.733 -15.1847 -20.9245 -22.8365 -17.2966 -13.7615 -10.4035 -10.76 -17.776 -19.0156 -19.7391 -17.656 -8.639501 -9.6785 -9.777 -9.759001 -8.486 
-15.6952 -22.1903 -23.8125 -26.3905 -17.7711 -17.986 -12.531 -20.8915 -19.618 -23.1046 -21.6656 -18.524 -10.292 -12.3463 -11.1415 -9.759001 

n/a 
n/a 
n/a 
n/a 
-3.9725 -9.0165 -4.257 -4.2245 -1.7565 -8.035001 -4.5485 -1.8085 -2.688 -3.1715 -9.7985 -1.756 -3.43 -2.5045 -1.8085 -3.9515 -1.7565 -3.091 -4.0965 0 
-14.0935 -14.267 -6.849 -4.942 -11.046 -13.4411 -5.7685 -3.642 -5.8315 -14.2734 -11.6405 -5.055 -5.7385 -3.3625 -5.7485 -5.368 -4.0655 -6.351 -4.0965 
-19.2289 -17.4869 -9.533501 -15.0531 -16.4521 -14.6611 -7.009 -6.434 -17.6142 -16.1154 -14.9395 -7.859 -6.5705 -7.0745 -7.367001 -7.855 -7.0575 -6.351 
-22.4024 -20.1714 -20.194 -20.4592 -17.6721 -15.9016 -9.5775 -18.9333 -19.4562 -19.4144 -17.7435 -9.0535 -10.5325 -8.5915 -9.526501 -8.9175 -7.0575 
-25.0869 -30.8319 -25.6001 -21.6792 -18.9126 -18.4701 -22.0856 -20.7753 -22.7552 -22.2184 -18.938 -12.8971 -12.0495 -9.585 -11.496 -8.9175 
