-4.759 
n/a 
n/a 
n/a 
n/a 
-4.759 
n/a 
n/a 
n/a 
n/a 
-4.759 
n/a 
n/a 
n/a 
n/a 
-4.759 
n/a 
n/a 
n/a 
n/a 
-3.147 -2.7295 -2.4945 -4.1685 -4.1545 -1.756 -4.248 -1.7695 -3.5645 -4.9295 -3.6885 -3.074 0 
-5.0255 -3.7725 -5.8625 -8.2115 -5.5655 -5.7 -5.4485 -5.3005 -8.6885 -9.279501 -7.084001 -3.074 
-5.9175 -6.5535 -10.1305 -9.187501 -8.4935 -6.9345 -9.6005 -10.7959 -13.4369 -13.0114 -7.084001 
-8.863501 -10.647 -11.2791 -12.2011 -9.649 -11.2709 -15.2749 -15.5443 -17.1688 -13.0114 
-12.9724 -12.1838 -14.2927 -13.3566 -14.061 -16.9453 -20.0233 -19.2762 -17.1688 
-8.677 -3.6885 -2.4285 -3.571 -3.6885 -4.3465 -4.4525 -4.5795 0 -4.248 -1.7695 -2.489 -3.7855 
-12.6549 -5.9185 -5.1245 -6.1615 -8.4945 -8.746 -10.3415 -4.5795 -4.248 -5.4485 -3.1405 -4.789001 
-14.8849 -8.447001 -7.816501 -11.7579 -13.037 -15.1984 -10.3415 -8.696001 -5.4485 -7.0435 -5.6465 
-17.4134 -9.320001 -13.8099 -16.3004 -19.4894 -15.1984 -14.458 -10.368 -7.0435 -9.822001 
-18.2864 -15.5108 -18.3524 -22.7528 -19.4894 -19.3149 -16.13 -11.963 -9.822001 
-3.45 -4.2915 -2.9705 -3.152 -2.6165 -3.5435 -4.2915 -2.4945 -3.074 -3.7855 -4.4525 -1.756 -4.248 0 
-7.0845 -6.864 -5.007 -4.6295 -6.9665 -8.683001 -6.186 -4.4205 -6.119 -8.1905 -5.981 -5.7 -4.248 
-8.6435 -8.593 -6.323501 -8.788501 -12.6448 -11.1935 -7.738501 -6.815001 -9.636001 -9.330001 -10.264 -5.7 
-10.5225 -9.816501 -10.76 -14.7562 -15.1553 -12.746 -10.328 -10.1035 -10.7535 -13.6282 -10.264 
-11.746 -14.3326 -16.7277 -17.2667 -16.7078 -15.3355 -13.6165 -11.221 -15.0517 -13.6282 

n/a 
n/a 
n/a 
n/a 
-4.759 
n/a 
n/a 
n/a 
n/a 
