-4.759 
n/a 
n/a 
n/a 
n/a 
-4.759 
n/a 
n/a 
n/a 
n/a 
-4.759 
n/a 
n/a 
n/a 
n/a 
-4.759 
n/a 
n/a 
n/a 
n/a 
-1.934 -3.7765 -1.756 -2.8965 -3.468 -3.7455 -4.017 -2.8965 -3.5435 -3.9535 -2.742 -4.8555 -3.793 -1.934 -4.19 
-4.9945 -5.473001 -3.751 -5.387 -6.189 -6.861 -6.8905 -5.8175 -5.756001 -6.2925 -7.496 -9.844501 -4.752 -5.4735 
-6.092 -7.186 -6.639501 -9.264 -10.9927 -9.7995 -9.604 -8.272 -9.39 -12.0189 -13.6158 -10.43 -7.806 
-7.696001 -7.639501 -10.3885 -14.5737 -13.9312 -12.8272 -12.8263 -12.365 -15.1516 -18.1387 -14.2013 -14.0158 
-8.049001 -11.5661 -16.0876 -17.5122 -16.9589 -16.0495 -16.9193 -18.1266 -21.2714 -18.7242 -17.7871 
-1.934 -2.8965 -3.468 -3.115 -3.7765 0 -2.4265 -2.8645 -3.1125 -3.43 -4.755 -1.7695 -3.634 -4.0005 -4.285 -3.9535 -3.115 -3.45 -5.242 -1.7695 -5.239 -3.8125 -1.934 -4.19 -3.074 
-4.391 -5.387 -6.475 -6.9855 -3.7765 -2.4265 -4.1435 -3.5345 -4.9425 -7.239 -6.533 -5.337 -8.0165 -7.186501 -7.350501 -7.1125 -5.7135 -7.2995 -5.2555 -7.019501 -9.441501 -5.148 -5.4735 -7.349 
-6.0905 -7.884501 -7.543 -6.9855 -6.493501 -4.1435 -4.755 -5.341 -8.289001 -8.732 -9.7655 -8.392 -11.5575 -10.1465 -10.389 -9.149501 -9.75 -7.311 -10.553 -11.8592 -10.623 -8.733001 -8.3575 
-8.556001 -8.9835 -7.543 -9.0825 -7.906001 -4.755 -7.107501 -8.525001 -9.7005 -12.0489 -12.9351 -12.1614 -14.5175 -13.185 -12.426 -13.303 -9.7625 -12.6817 -15.3927 -13.0407 -14.208 -11.7908 
-9.573 -8.9835 -9.6435 -10.259 -8.476501 -7.107501 -9.352 -9.8915 -13.0174 -15.2185 -16.7045 -15.1214 -17.556 -15.222 -16.5795 -13.3155 -15.1238 -17.5214 -16.5742 -16.6257 -17.2658 
-2.8965 -3.468 -3.115 -3.7765 -2.674 -5.5235 -2.3335 -2.985 -3.5435 -3.9535 -3.5005 -1.4985 -3.7455 -4.017 -3.2645 -2.489 -4.467 -1.934 -4.19 -3.074 0 
-5.387 -6.475 -6.9855 -6.8055 -6.99 -5.982501 -4.917 -6.2395 -5.756001 -6.35 -4.372 -4.4155 -6.861 -6.785 -3.7195 -5.5365 -5.57 -5.4735 -7.349 -3.074 
-7.884501 -7.543 -8.7945 -11.4535 -7.403 -8.022501 -7.565001 -9.826 -8.522 -7.208 -7.9355 -8.608 -10.1945 -6.935 -7.0445 -6.5555 -8.412001 -8.3575 -7.349 
-8.9835 -8.916 -13.5321 -11.8665 -9.013 -10.7595 -11.7029 -12.592 -9.4255 -10.322 -12.6872 -12.3751 -10.3235 -9.02 -7.864 -9.3155 -11.5532 -8.3575 
-10.1145 -13.6862 -13.9451 -13.4765 -11.8016 -14.8974 -14.4689 -13.4955 -12.6217 -15.0737 -16.4543 -12.5041 -12.4085 -10.1465 -10.4935 -12.5699 -11.5532 
-3.7765 -3.135 -2.8965 -3.468 -2.674 -5.377 -3.776 -6.1895 -1.756 -4.19 -4.8915 0 
-7.5135 -4.9085 -5.387 -5.5775 -8.936501 -9.933001 -9.486 -7.657001 -5.7085 -9.765501 -4.8915 
-9.862501 -7.52 -6.856501 -12.4118 -13.6731 -15.7516 -11.0341 -11.9593 -11.7228 -9.765501 
-10.6245 -8.604 -13.9008 -17.1484 -19.4917 -17.2997 -15.3364 -17.9736 -11.7228 
-11.7085 -15.7325 -18.6374 -22.967 -21.0398 -21.602 -21.3507 -17.9736 
