-4.759 
n/a 
n/a 
n/a 
n/a 
-4.759 
n/a 
n/a 
n/a 
n/a 
-4.759 
n/a 
n/a 
n/a 
n/a 
-4.759 
n/a 
n/a 
n/a 
n/a 
-6.8035 0 -3.0365 -2.7415 -1.8085 -5.764 -7.4415 -3.2495 -3.959 -3.402 -2.264 -3.1435 -7.211 
-6.8035 -3.0365 -4.2225 -3.891 -6.552 -14.2185 -9.105 -5.837 -7.179501 -3.793 -4.6705 -10.0285 
-8.3835 -4.2225 -4.725 -7.631001 -15.3795 -15.882 -11.8969 -8.9585 -7.264 -5.9605 -12.0703 
-9.301001 -4.725 -8.071501 -16.5629 -17.043 -18.6739 -15.0184 -8.985001 -9.296 -13.8483 
-9.702001 -8.071501 -17.2412 -18.2264 -19.8349 -21.7954 -15.0449 -11.1688 -17.3818 
-2.7455 -2.3615 -4.676 -3.0365 -2.186 -5.764 -3.458 -1.4985 -3.2495 -3.959 0 
-4.1635 -6.547501 -7.3155 -3.66 -8.131001 -6.7965 -4.063 -4.1915 -5.837 -3.959 
-8.956 -9.0765 -7.792 -8.8145 -10.0225 -6.860001 -5.0585 -6.016 -5.837 
-11.644 -9.502001 -13.2685 -10.1425 -10.5805 -8.849001 -6.345 -6.016 
-12.0695 -15.0585 -14.5965 -10.695 -12.5695 -9.779501 -6.345 
-3.4765 -3.929 -3.5155 -1.4985 -3.959 -1.7565 -3.6065 -3.992 -2.264 -2.3615 -3.634 0 
-4.589 -6.599 -4.496 -5.5 -5.473 -4.8305 -6.887 -5.482 -3.8255 -4.7085 -3.634 
-7.02 -7.771 -7.747 -6.1685 -8.5565 -9.042001 -7.909 -6.5375 -5.580501 -4.7085 
-8.274501 -10.634 -9.0495 -10.1675 -13.249 -10.523 -8.8155 -7.704 -5.580501 
-11.2213 -11.9365 -13.2223 -14.86 -14.73 -11.4295 -9.7775 -7.704 
-1.4985 -4.676 -3.458 -3.2495 -3.959 -2.8645 -1.4985 -4.1755 -3.6245 0 
-5.915 -8.6035 -5.1565 -5.837 -6.532001 -4.3545 -4.6635 -7.5965 -3.6245 
-9.620501 -10.6095 -7.3965 -7.959001 -8.33 -8.7825 -8.448 -7.5965 
-11.8641 -12.8495 -9.742001 -9.7725 -12.951 -12.6444 -8.448 
-14.1041 -15.195 -11.5469 -14.5411 -16.8129 -12.6444 
