-4.759 
n/a 
n/a 
n/a 
n/a 
-4.759 
n/a 
n/a 
n/a 
n/a 
-4.759 
n/a 
n/a 
n/a 
n/a 
-4.759 
n/a 
n/a 
n/a 
n/a 
-7.259501 -3.9725 -9.299001 -2.8645 -3.7855 -3.091 -4.284 -2.229 -6.441 -1.7695 -3.905 -4.044 -1.7695 -4.2135 -2.4265 0 
-11.08 -14.2145 -12.3631 -5.325 -6.224 -4.863 -5.606 -8.960501 -8.9925 -6.1905 -8.146501 -6.425 -5.4335 -6.508 -2.4265 
-21.322 -17.2786 -14.8236 -7.11 -8.658001 -6.1485 -13.1307 -12.0302 -13.5965 -10.1 -10.368 -9.0315 -6.882501 -6.508 
-24.3861 -19.7391 -16.6086 -9.568501 -9.508 -13.8422 -16.2004 -16.6342 -17.506 -12.7429 -12.9745 -11.5543 -6.882501 
-26.8466 -21.5241 -19.0671 -10.6355 -17.2551 -16.9119 -20.8044 -20.5437 -20.1489 -15.3494 -15.4973 -11.5543 
-8.2205 -4.6805 -6.4585 -6.688 -2.8645 -3.1125 -4.024 -1.7695 -5.7925 -2.0935 -5.4975 -3.213 
-10.2135 -10.9575 -13.7869 -9.3275 -3.5345 -5.3805 -4.5525 -8.283501 -8.305 -6.763 -8.774 
-16.4905 -18.2859 -16.4264 -10.2 -5.566 -5.841001 -11.5651 -9.663501 -13.2319 -10.27 
-23.8189 -20.9254 -17.2989 -12.3689 -6.02 -13.1462 -12.9451 -15.1794 -16.7389 
-26.4584 -21.7979 -19.4678 -12.8229 -13.5728 -14.5262 -18.461 -18.6864 
-10.337 0 -3.9725 -1.7565 -6.7865 -4.3465 -3.091 -4.284 -2.229 -4.7055 -5.3675 -1.7695 -4.2675 -3.0695 -3.1335 -1.4985 -5.3675 0 
-10.337 -3.9725 -4.9685 -9.274 -11.0145 -6.0975 -4.863 -5.606 -6.554 -9.5585 -7.3715 -6.6955 -6.288501 -7.580501 -5.0785 -6.928 -5.3675 
-14.3835 -4.9685 -10.5325 -13.6984 -12.7655 -8.094501 -6.1485 -8.9545 -11.8446 -11.8271 -12.8251 -8.112 -9.306001 -8.241 -10.733 -6.928 
-15.3795 -10.5325 -14.9569 -15.4494 -14.7625 -9.658501 -9.709001 -14.5153 -14.1132 -17.2807 -14.2416 -11.3179 -10.3685 -14.0895 -10.733 
-20.9435 -14.9569 -16.7079 -17.4464 -16.3265 -13.3138 -15.2698 -16.7839 -19.5668 -18.6972 -17.4475 -12.3804 -16.217 -14.0895 
-8.2205 -3.9725 -9.299001 -3.7855 -3.091 -6.688 -2.0935 -4.2135 -1.7695 -3.091 -5.7925 
-10.27 -14.2145 -13.2841 -6.224 -9.836 -8.7965 -6.1705 -6.6105 -4.458 -9.311501 
-20.512 -18.1996 -15.7226 -13.4028 -11.9929 -13.3307 -8.084001 -8.8595 -10.4265 
-24.4971 -20.6381 -22.9014 -15.5597 -16.5271 -15.2442 -10.5024 -14.9712 
-26.9356 -27.8169 -25.0583 -20.0939 -18.4406 -17.6626 -16.6141 
