-4.759 
n/a 
n/a 
n/a 
n/a 
-4.759 
n/a 
n/a 
n/a 
n/a 
-4.759 
n/a 
n/a 
n/a 
n/a 
-4.759 
n/a 
n/a 
n/a 
n/a 
-8.4195 -5.0595 -1.4985 -7.4885 -1.934 -1.4985 -4.3685 0 -3.034 -2.9805 -4.493 -1.756 -3.2295 -1.4985 -6.864 -2.229 -3.3715 -3.8195 -2.4945 -2.6165 -4.09 0 
-14.272 -5.924 -8.1875 -9.125 -2.6125 -5.106 -4.3685 -3.034 -4.4605 -6.4135 -5.8585 -4.793 -3.844 -7.8675 -8.205501 -5.877501 -5.8465 -5.551 -3.8065 -6.4165 -4.09 
-15.1365 -13.1662 -9.337501 -9.506001 -6.0625 -5.106 -7.155001 -4.4605 -7.6955 -8.26 -7.8195 -5.8145 -10.0815 -10.019 -12.7362 -8.9285 -7.7425 -6.7705 -7.548 -6.4165 
-22.3787 -14.3162 -9.659 -13.1202 -6.0625 -7.8435 -8.321 -7.6955 -9.9785 -10.536 -10.298 -12.3766 -12.3426 -14.7349 -15.7872 -11.2101 -9.1175 -9.901501 -7.548 
-23.5287 -14.6377 -13.304 -13.1202 -8.8135 -9.029 -11.6718 -9.9785 -12.3557 -13.0145 -16.8601 -14.6377 -17.0585 -17.7859 -18.0688 -12.5851 -12.3555 -9.901501 
-1.934 -1.4985 -3.882 -3.277 0 -3.8275 -2.356 -12.16972 0 -4.493 -3.091 -4.2245 0 -3.2615 -2.3615 -1.4985 -4.63 -1.7565 -4.544 -2.3345 -7.4885 -2.7415 -4.7075 
-2.6125 -5.587 -6.1265 -3.277 -3.8275 -5.674 -15.43652 -12.16972 -4.493 -6.5 -5.326 -4.2245 -3.2615 -5.276 -4.913 -7.044001 -7.3255 -6.647 -6.89 -9.79 -10.1555 -8.8195 
-6.258 -7.0105 -6.1265 -6.4545 -5.674 -19.53292 -15.43652 -16.66272 -6.5 -8.0955 -5.326 -7.113 -5.276 -6.7585 -10.0505 -7.8265 -12.6064 -8.393001 -14.7631 -12.5898 -16.2335 
-7.325 -7.0105 -10.634 -8.459001 -19.53292 -19.53292 -19.92952 -18.66972 -8.0955 -8.0955 -7.879001 -9.1415 -6.7585 -12.0402 -11.2962 -13.051 -14.3524 -16.4489 -17.5629 -18.6678 
-7.325 -11.8326 -12.6385 -22.69252 -19.53292 -24.02592 -21.93652 -20.26522 -8.0955 -10.316 -9.691 -10.7318 -12.0402 -13.2859 -16.5207 -14.797 -22.4083 -19.2487 -23.6409 
-3.4765 -3.2615 -3.135 -3.4795 -12.16972 -2.356 -3.693 -1.4985 -3.8275 -2.9805 -2.229 -4.2245 -3.956 -5.1765 -4.4115 -1.7565 -8.257501 -3.59 -3.9665 0 
-5.382501 -5.675 -6.0235 -16.69602 -14.52572 -6.973001 -5.085 -4.726 -6.1635 -4.2145 -5.519 -7.6125 -9.5325 -9.175 -7.509 -10.1305 -12.2767 -8.9545 -3.9665 
-8.062 -7.691 -19.89362 -19.05202 -19.14272 -8.3715 -8.467 -6.6115 -7.8885 -9.211 -7.908501 -13.7878 -13.5584 -13.0307 -16.5848 -14.7317 -17.6412 -8.9545 
-10.253 -21.90912 -22.24962 -23.66902 -20.54122 -11.8501 -10.5727 -8.4735 -13.0182 -11.9405 -15.0874 -17.8137 -17.4141 -22.1065 -21.186 -20.0962 -17.6412 
-24.47112 -24.26512 -26.86662 -25.06752 -24.01982 -13.9558 -12.4347 -13.682 -15.7477 -19.1194 -19.1133 -21.6694 -26.4899 -26.7077 -26.5505 -20.0962 
-3.0365 -2.186 -3.074 -1.4985 -3.718 -1.7565 -1.4985 -3.9725 -5.7415 -3.0695 -5.249 -3.091 -4.2245 -1.7695 -3.956 -2.0935 -3.7875 -5.3945 -4.493 -1.8085 -5.4875 -3.9725 -8 -3.0695 -5.534 -1.8085 -5.3585 -2.5195 -1.8085 -5.1065 -2.3345 -4.1685 -3.091 -3.5205 -5.178 -1.7695 -1.4985 -5.0455 -5.1065 -2.7415 -3.074 -3.355 -1.7565 -1.4985 -3.8315 -6.864 -5.008 
-3.66 -4.156 -4.6505 -4.522 -4.7685 -2.4195 -4.88 -9.635 -8.7255 -7.76 -8.8075 -5.326 -6.034 -5.199 -6.0045 -5.4945 -8.3575 -7.3315 -6.1645 -6.771501 -9.7505 -10.0255 -10.622 -7.3955 -7.167001 -6.7475 -7.927501 -3.8815 -6.7075 -7.796 -5.522 -6.531501 -4.613 -7.217501 -6.940001 -2.7955 -6.030001 -9.172501 -7.525001 -4.727 -6.076 -3.725 -2.4195 -4.604 -9.4145 -11.1415 
-5.212501 -5.301001 -7.4925 -5.0205 -5.4365 -5.734 -10.6875 -12.6474 -13.61 -10.151 -10.254 -6.7895 -8.019 -6.6905 -8.5175 -9.637501 -9.377501 -8.5235 -9.146501 -11.6167 -15.9375 -12.6475 -14.948 -8.5445 -12.683 -8.5795 -9.201501 -8.826 -8.9235 -11.2335 -7.8175 -8.1555 -7.697001 -8.9175 -7.855 -7.2795 -10.089 -11.6958 -8.799001 -7.193501 -6.109 -4.0515 -5.639 -9.826 -13.927 
-6.18 -7.788001 -7.6165 -5.699501 -8.3335 -11.7735 -13.6999 -17.5319 -16.001 -11.7235 -10.4855 -8.885 -9.428 -8.731501 -12.8961 -10.3985 -9.979501 -11.7601 -14.3941 -17.8037 -18.5595 -16.9735 -16.097 -14.3121 -14.515 -9.616 -10.75 -10.6345 -12.6016 -13.529 -9.116 -10.621 -9.325001 -9.805 -12.687 -11.7697 -12.6123 -12.9698 -11.9983 -7.207 -6.4325 -7.522501 -10.223 -14.4627 
-8.826501 -7.814501 -8.2405 -8.476001 -15.0464 -14.7859 -18.5844 -19.9229 -17.5735 -11.955 -12.581 -9.891001 -11.6976 -13.2499 -13.6571 -11.0005 -13.5153 -17.0077 -20.5811 -20.4257 -22.8855 -18.1225 -21.8646 -16.1441 -15.5515 -10.7515 -12.5585 -14.3126 -14.8971 -14.8275 -11.7685 -12.5618 -10.1475 -14.637 -17.1772 -14.293 -13.8863 -16.1691 -12.0118 -7.411 -9.6225 -12.3007 -14.8847 
