-4.759 
n/a 
n/a 
n/a 
n/a 
-4.759 
n/a 
n/a 
n/a 
n/a 
-4.759 
n/a 
n/a 
n/a 
n/a 
-4.759 
n/a 
n/a 
n/a 
n/a 
-3.299 -4.194 -1.7565 -5.1175 -3.5515 -3.9545 -2.186 -2.5195 -4.7505 -4.285 -3.7345 0 -3.115 -4.6805 0 -5.304 0 -3.8665 -3.9545 -1.756 -12.16972 -12.16972 0 
-5.828 -5.1445 -6.102 -8.735001 -8.741 -5.974 -4.863 -7.432 -8.755501 -8.361501 -3.7345 -3.115 -7.3335 -4.6805 -5.304 -5.304 -3.8665 -4.922 -5.3285 -14.93432 -24.33944 -12.16972 
-8.118 -9.698501 -9.9775 -14.7245 -10.9175 -8.9875 -9.892 -12.1708 -13.605 -8.361501 -6.8935 -7.3335 -7.3335 -9.113501 -5.304 -8.997001 -4.922 -6.17 -19.61402 -27.10404 -24.33944 
-12.7444 -13.3952 -16.8036 -16.901 -13.931 -14.1519 -14.995 -17.0203 -13.605 -11.7627 -11.3536 -7.3335 -10.3885 -9.113501 -8.997001 -9.0565 -6.17 -21.05132 -31.78374 -27.10404 
-16.4411 -20.2213 -18.9801 -19.9145 -19.0954 -19.2549 -19.8445 -17.0203 -17.0062 -16.2228 -11.3536 -10.3885 -10.3885 -10.335 -9.0565 -9.9335 -21.05132 -33.22104 -31.78374 
-4.975 -5.3625 -1.756 -5.4975 -1.7565 -5.924 -3.9675 0 -3.251 -5.0305 -3.641 -5.0115 0 -1.756 -4.339 -3.222 -3.75 -5.0115 -3.2295 -1.4985 -3.4635 -4.153 -3.2295 -2.95 0 -1.4985 -5.903 -2.674 -5.7565 -4.173 -1.4985 -4.975 -4.418 -1.7565 -3.691 0 -5.0115 0 -4.2815 -1.756 -1.4985 -3.4225 -3.468 0 
-9.2355 -6.6295 -7.0595 -5.879001 -7.680501 -8.73 -3.9675 -3.251 -6.7185 -8.859001 -7.254001 -5.0115 -1.756 -5.7075 -5.703 -7.2495 -7.240001 -8.714001 -3.844 -3.6265 -7.779 -7.595 -4.904 -2.95 -1.4985 -6.818501 -8.1675 -6.87 -8.811501 -4.3745 -5.592 -7.097501 -5.347 -4.930501 -3.691 -5.0115 -5.0115 -4.2815 -5.558001 -3.0405 -3.9655 -3.628 -3.468 
-10.329 -10.4505 -7.5155 -12.6218 -9.913 -8.73 -7.41 -6.7185 -10.2485 -12.9006 -7.254001 -6.778 -5.7075 -6.985 -9.341001 -10.3815 -10.341 -8.9715 -6.601501 -7.7865 -11.608 -9.094001 -4.904 -4.514 -6.818501 -8.519501 -12.5283 -9.75 -8.9985 -8.262001 -7.5 -8.296 -7.495 -4.930501 -7.2965 -5.0115 -8.726501 -5.558001 -6.305501 -5.355 -4.053 -3.628 
-14.15 -10.9065 -14.3665 -14.8543 -9.913 -10.7495 -10.5975 -10.2485 -14.4713 -12.9006 -8.335501 -11.5905 -6.985 -10.503 -10.5545 -10.565 -10.487 -10.5535 -8.991 -11.6235 -13.107 -9.094001 -6.0075 -9.848001 -8.519501 -12.9317 -15.4083 -9.9375 -13.0296 -9.9245 -8.554001 -9.192 -7.495 -9.085501 -7.2965 -8.726501 -9.345 -6.305501 -7.0915 -5.5075 -4.053 
-14.606 -17.7575 -16.599 -14.8543 -11.9325 -13.937 -14.1275 -14.4713 -14.4713 -13.9821 -13.5446 -12.868 -10.503 -11.9717 -10.572 -10.5825 -10.579 -10.571 -13.0084 -13.1225 -13.107 -9.639001 -11.6261 -11.549 -12.9317 -15.8117 -15.5958 -14.0608 -14.6921 -10.4625 -9.433001 -9.192 -10.025 -9.085501 -9.3745 -9.345 -9.9905 -7.0915 -7.136001 -5.5075 
-2.5195 -1.4985 -4.7885 -5.465 -1.7565 -1.4985 -3.995 -4.3155 -4.3685 -4.1845 -3.3035 -3.333 0 -2.925 -2.4945 -6.4015 0 -5.304 0 -3.8665 -3.9545 0 -1.756 -5.508 -7.7235 0 
-3.1695 -5.282001 -8.022 -6.933 -2.4195 -4.712 -7.214 -6.316 -7.154 -7.4215 -5.872 -3.333 -2.925 -3.7675 -9.4515 -6.4015 -5.304 -5.304 -3.8665 -4.922 -3.9545 -1.756 -6.8545 -8.5425 -7.7235 
-6.7265 -8.3605 -8.832001 -7.3645 -5.2205 -8.719 -10.4113 -9.9151 -11.256 -9.992001 -5.872 -6.5035 -3.7675 -10.9499 -9.4515 -10.985 -5.304 -8.997001 -4.922 -4.922 -5.3285 -6.8545 -9.93 -8.5425 
-9.9455 -8.9755 -9.208501 -7.6365 -9.149501 -12.3799 -14.0104 -14.0171 -13.8265 -9.992001 -8.835 -7.162 -10.9499 -10.9499 -14.2546 -10.985 -8.997001 -9.0565 -4.922 -6.17 -8.683001 -9.93 -9.93 
-10.7375 -9.320001 -9.625501 -11.9975 -13.1258 -15.979 -18.1124 -16.5876 -13.8265 -13.3188 -9.1765 -14.6808 -10.9499 -15.753 -14.2546 -14.678 -9.0565 -9.0565 -6.17 -9.154 -11.9137 -9.93 
-4.246 -4.079 -5.02 -3.2775 -2.5045 -4.8945 0 -6.4015 0 -5.304 0 -3.8665 -3.9545 -1.756 -5.508 -2.4945 -3.7555 -2.5195 -1.4985 -6.282 -4.285 -4.1455 
-6.949 -9.092 -6.8925 -3.678 -7.395 -4.8945 -6.4015 -6.4015 -5.304 -5.304 -3.8665 -4.922 -5.3285 -6.8545 -7.895 -7.723001 -6.037 -3.1695 -7.132501 -9.517 -6.3675 
-12.2062 -10.173 -6.9045 -7.634501 -7.395 -10.375 -6.4015 -10.985 -5.304 -8.997001 -4.922 -6.17 -8.683001 -8.341001 -13.4629 -9.05 -6.7125 -8.703 -9.644501 -12.7465 
-13.2872 -10.1805 -8.81 -7.634501 -13.4135 -10.375 -10.985 -10.985 -8.997001 -9.0565 -6.17 -9.154 -10.4345 -14.0599 -14.7899 -9.508501 -12.4738 -10.76 -13.0212 
-13.2947 -12.2106 -8.81 -13.8882 -13.4135 -14.9585 -10.985 -14.678 -9.0565 -9.9335 -9.154 -10.9633 -16.1534 -15.3869 -15.2484 -15.2698 -14.5308 -14.1367 
