-4.759 
n/a 
n/a 
n/a 
n/a 
-4.759 
n/a 
n/a 
n/a 
n/a 
-4.759 
n/a 
n/a 
n/a 
n/a 
-4.759 
n/a 
n/a 
n/a 
n/a 
-3.465 -1.7695 -5.047 -3.091 -5.61 -3.0415 0 -6.0625 -1.7695 -4.4885 -10.738 -2.0935 -3.091 -4.4095 
-3.665 -6.8985 -7.771501 -8.625 -8.2915 -3.0415 -6.0625 -8.778501 -5.032 -16.2085 -12.8315 -4.5345 -6.451 
-10.4945 -9.709001 -13.5609 -11.5933 -8.2915 -9.925501 -8.778501 -12.4326 -17.1556 -18.302 -15.2725 -8.0045 
-13.305 -15.5798 -16.5292 -11.5933 -15.3883 -12.6415 -12.4326 -24.5562 -19.2491 -20.743 -18.7425 
-19.1758 -18.5481 -16.5292 -18.6901 -18.1043 -16.2956 -24.5562 -26.6497 -21.6901 -24.213 
-5.608 -3.5095 -3.935 -2.3615 -9.6315 0 -2.9805 -4.493 -3.595 0 
-10.513 -8.165501 -5.976 -13.2812 -9.6315 -2.9805 -6.4135 -6.393 -3.595 
-15.169 -10.411 -17.1639 -13.2812 -12.8488 -6.4135 -8.063001 -6.393 
-17.4145 -21.5989 -17.1639 -16.4985 -16.2818 -8.063001 -8.063001 
-28.6024 -21.5989 -20.3812 -19.9315 -17.9313 -8.063001 
-1.7695 -3.935 -3.091 -6.542 0 -2.356 -3.091 -4.1235 -5.608 -4.3155 -3.956 -1.7695 -12.16972 
-4.6555 -6.9075 -8.195 -6.542 -2.356 -4.513 -5.9215 -11.3235 -9.68 -7.819 -5.823 -14.92142 
-7.180501 -10.6095 -8.195 -8.915501 -4.513 -7.316501 -13.6361 -15.3955 -13.3159 -8.442 -19.56372 
-10.9745 -10.6095 -10.071 -10.0645 -7.316501 -15.3023 -17.7081 -19.0314 -13.9389 -22.64172 
-10.9745 -13.1613 -10.615 -13.411 -15.3023 -19.3743 -21.344 -19.6544 -28.13862 
-1.4985 -6.0625 -4.675 -1.4985 -9.6315 0 
-9.1735 -11.6501 -6.366 -12.2238 -9.6315 
-15.2007 -13.3411 -17.5871 -12.2238 
-16.8917 -24.5622 -17.5871 
-28.1128 -24.5622 
