-4.759 
n/a 
n/a 
n/a 
n/a 
-4.759 
n/a 
n/a 
n/a 
n/a 
-4.759 
n/a 
n/a 
n/a 
n/a 
-4.759 
n/a 
n/a 
n/a 
n/a 
-3.321 -7.0325 -3.59 -3.6955 -1.7695 -9.541 
-11.2619 -11.2089 -7.398 -4.4705 -12.2927 
-15.4383 -15.0169 -7.932 -15.6111 
-19.2463 -15.5509 -19.1952 
-19.7803 -26.8141 
-3.321 -7.449 -4.0555 -3.2295 -1.7695 -1.4985 -7.912 -3.59 0 
-11.6784 -10.784 -6.098 -4.92 -2.7955 -9.79 -11.9356 -3.59 
-15.0134 -12.8265 -6.713 -5.44 -11.3222 -14.053 -11.9356 
-17.0559 -13.4415 -7.637 -14.2535 -15.5852 -14.053 
-17.6709 -14.3655 -16.7837 -18.5165 -15.5852 
-3.2615 -2.3335 -8.908 -4.0555 -1.7695 -7.462 -5.74 
-5.0495 -11.136 -13.2327 -4.7475 -9.569 -10.304 
-14.2748 -15.4607 -13.9247 -13.0258 -12.6302 
-18.5995 -16.1527 -22.203 -16.087 
-19.2915 -24.431 -25.2642 

n/a 
n/a 
n/a 
n/a 
