-4.759 
n/a 
n/a 
n/a 
n/a 
-4.759 
n/a 
n/a 
n/a 
n/a 
-4.759 
n/a 
n/a 
n/a 
n/a 
-4.759 
n/a 
n/a 
n/a 
n/a 
-3.818 -4.646 0 -6.558 -7.338 
-9.175 -4.646 -6.558 -7.5335 
-9.175 -11.7478 -7.5335 
-16.4356 -12.7233 
-17.4111 
-1.756 -6.558 -7.338 -4.425 -3.616 
-8.078501 -7.5335 -12.3032 -7.941501 
-8.8605 -12.7871 -15.8197 
-14.2493 -16.3036 
-17.7658 
-2.645 0 -6.558 -7.338 -3.0465 -4.181 
-2.645 -6.558 -7.5335 -10.598 -7.408 
-10.0965 -7.5335 -10.6875 -14.9595 
-11.072 -10.6875 -15.049 
-14.226 -15.049 
-3.074 0 -6.558 -7.338 -3.3365 -1.7565 -3.616 
-3.074 -6.558 -7.5335 -11.2147 -4.7425 -5.297 
-10.3105 -7.5335 -11.6986 -12.6207 -7.7285 
-11.286 -11.6986 -13.1046 -15.6067 
-15.4511 -13.1046 -16.0906 
