-4.759 
n/a 
n/a 
n/a 
n/a 
-4.759 
n/a 
n/a 
n/a 
n/a 
-4.759 
n/a 
n/a 
n/a 
n/a 
-4.759 
n/a 
n/a 
n/a 
n/a 
-5.0305 -2.4945 -3.598 -1.7565 -4.1865 -3.9675 -1.756 -3.3435 0 
-7.175 -6.949501 -4.922 -5.463 -6.6535 -4.9775 -5.1365 -3.3435 
-12.163 -7.554501 -8.7145 -7.504001 -7.273 -7.598001 -5.1365 
-12.768 -11.4872 -9.861001 -8.219001 -9.691 -7.598001 
-16.7007 -12.6337 -10.6966 -10.553 -9.691 
-4.759 -2.186 -4.1865 -4.8775 0 -1.756 -3.013 -5.651501 -5.043 -2.3615 -3.9675 
-6.772 -7.2465 -7.5375 -4.8775 -1.756 -4.674 -8.529501 -9.744501 -7.082 -6.633 
-12.3573 -10.9159 -7.5375 -5.757 -4.674 -9.9875 -12.5715 -11.771 -11.7615 
-16.0267 -10.9159 -8.487 -9.1925 -9.535001 -14.5804 -15.5341 -17.2653 
-16.0267 -11.8654 -12.1617 -14.1361 -14.6944 -17.4266 -20.4022 
-4.7425 -4.1865 -3.9675 0 -3.511 -1.7695 -4.1335 0 
-8.360001 -6.6535 -3.9675 -3.511 -5.814 -6.526 -4.1335 
-8.467 -6.6535 -7.969 -5.814 -11.3479 -6.526 
-8.467 -10.5745 -9.439501 -11.3479 -11.3479 
-13.748 -12.045 -16.0668 -11.3479 
-5.334 -2.186 -3.8735 -2.229 -3.699 -4.4095 0 
-7.348001 -6.749001 -5.3655 -5.301 -8.1035 -4.4095 
-12.244 -7.036 -9.1105 -10.348 -8.1035 
-12.531 -10.5425 -14.6195 -10.348 
-16.0375 -16.0515 -14.6195 
