-4.759 
n/a 
n/a 
n/a 
n/a 
-4.759 
n/a 
n/a 
n/a 
n/a 
-4.759 
n/a 
n/a 
n/a 
n/a 
-4.759 
n/a 
n/a 
n/a 
n/a 
-5.3885 -2.229 -4.4695 -4.961 -3.8875 
-7.854 -5.7985 -8.779 -7.358001 
-10.368 -9.790501 -9.771 
-14.36 -10.9793 
-15.5488 
-20.172 -2.229 -4.4695 -4.961 -3.8875 0 
-20.6858 -5.7985 -8.779 -7.358001 -3.8875 
-22.5389 -9.790501 -9.771 -7.358001 
-26.5309 -10.9793 -9.771 
-27.7197 -10.9793 
-1.4985 -4.4695 -9.630501 -3.8875 -14.7835 
-5.252501 -14.8752 -13.6304 -16.079 
-15.6104 -18.8751 -25.2542 
-19.6103 -30.4989 
-31.2341 
-19.7445 -3.8875 -2.186 -5.3885 -4.933 
-20.1898 -6.015 -8.587501 -11.2893 
-21.4204 -13.0773 -14.9083 
-28.7837 -19.3981 
-35.1045 
