-4.759 
n/a 
n/a 
n/a 
n/a 
-4.759 
n/a 
n/a 
n/a 
n/a 
-4.759 
n/a 
n/a 
n/a 
n/a 
-4.759 
n/a 
n/a 
n/a 
n/a 
-1.4985 -3.699 -4.02 -4.7995 -1.7565 -3.8735 -1.4985 -7.002 -1.756 -12.16972 -5.029 -3.222 -1.4985 -5.484 -4.1115 0 
-5.264 -8.3385 -7.5755 -6.253 -5.112 -5.752 -7.535001 -8.6745 -14.93432 -17.19872 -7.1285 -3.7835 -6.222 -6.72 -4.1115 
-9.658 -12.0054 -9.5825 -8.5275 -6.533501 -9.989 -9.097501 -22.15802 -19.96332 -19.29822 -7.403501 -8.186501 -6.981501 -6.72 
-13.3249 -14.0124 -12.117 -9.5565 -11.1057 -11.6123 -22.73742 -27.18702 -22.06282 -19.57322 -9.620501 -8.412001 -6.981501 
-15.3319 -16.5469 -13.146 -14.3971 -12.729 -25.25222 -27.76642 -29.28652 -22.33782 -21.79022 -9.6225 -8.412001 
-1.4985 -3.699 -4.7995 -3.115 -7.002 -1.756 -8.095 -3.613 -1.4985 -5.484 -4.1115 -3.3255 -1.4985 -3.641 -4.197 0 
-5.264 -7.953501 -7.781001 -9.887501 -8.6745 -9.1975 -12.2618 -4.5455 -6.222 -6.72 -7.3765 -3.8945 -4.644 -5.1095 -4.197 
-9.2255 -9.713501 -14.9957 -11.6362 -9.8205 -13.6159 -13.1943 -9.9725 -6.981501 -9.500501 -7.860001 -7.318 -5.620501 -5.1095 
-11.3127 -17.2842 -16.7444 -12.7822 -14.3229 -14.5484 -18.6213 -10.5375 -9.559 -9.8645 -11.5327 -8.637 -5.620501 
-18.8834 -19.0329 -17.8904 -17.2846 -15.2554 -19.9754 -19.1863 -13.115 -9.8865 -13.5372 -12.8517 -8.637 
-3.135 -1.7565 -1.4985 -3.699 -4.7995 -4.142 -3.8735 -3.115 -8.519501 0 -9.4245 -4.292 -2.356 -1.4985 -5.484 -4.1115 
-3.9195 -2.4195 -5.264 -7.953501 -8.515 -6.5985 -7.488501 -12.4101 -8.519501 -9.4245 -13.7937 -6.133 -3.1615 -6.222 -6.72 
-4.168 -6.063 -9.2255 -12.2632 -11.4537 -9.8695 -16.9428 -12.4101 -18.674 -13.7937 -15.6347 -6.931 -8.256001 -6.981501 
-6.844501 -9.742001 -13.8624 -15.2019 -14.7247 -19.5982 -16.9428 -22.5646 -23.0432 -15.6347 -16.4327 -12.3773 -8.971001 
-10.2865 -14.4735 -16.8011 -18.4729 -24.4534 -19.5982 -27.0973 -26.9338 -24.8842 -16.4327 -21.879 -13.0923 
-1.4985 -3.699 -4.7995 -3.115 -7.002 -1.756 -9.133 -2.4945 -5.635 -1.934 -5.484 -4.1115 -3.815 -3.641 -4.197 -1.7565 -3.8735 
-5.264 -7.953501 -7.781001 -9.887501 -8.6745 -11.8976 -11.8527 -8.946501 -7.2955 -7.452 -6.72 -7.854501 -7.859501 -5.1095 -5.405 -5.112 
-9.2255 -9.713501 -14.9957 -11.6362 -19.1213 -14.6173 -18.3047 -9.9785 -13.1623 -8.073501 -9.896501 -12.1904 -9.185501 -6.25 -7.417 
-11.3127 -17.2842 -16.7444 -22.083 -21.841 -21.0693 -19.3367 -16.1953 -13.7838 -11.7018 -14.3172 -13.5164 -10.209 -7.921 
-18.8834 -19.0329 -27.1912 -24.8027 -28.293 -22.1013 -25.5535 -16.8168 -17.4121 -16.1225 -15.6432 -14.5399 -12.4698 
