-4.759 
n/a 
n/a 
n/a 
n/a 
-4.759 
n/a 
n/a 
n/a 
n/a 
-4.759 
n/a 
n/a 
n/a 
n/a 
-4.759 
n/a 
n/a 
n/a 
n/a 
-4.405 -3.8785 -1.934 -12.16972 
-8.533501 -5.5775 -15.11012 
-9.83 -19.33942 
-23.82792 
n/a 
-3.594 -3.6485 -1.934 -5.87 -1.7565 -7.044 
-7.2255 -7.064 -8.3105 -8.6365 -9.0725 
-11.4956 -13.7431 -11.5138 -16.2763 
-18.1747 -16.9464 -19.1536 
-21.378 -24.5862 
-7.044 -4.245 -3.3195 -4.0215 0 
-11.8168 -6.5305 -8.000501 -4.0215 
-14.1023 -9.64 -8.000501 
-17.2118 -9.64 
-17.2118 
-5.5105 -3.3195 -1.934 -6.933001 -4.245 
-9.332001 -5.3225 -8.7335 -8.585001 
-11.4794 -12.9514 -9.3935 
-19.1083 -13.6114 
-19.7683 
