-4.759 
n/a 
n/a 
n/a 
n/a 
-4.759 
n/a 
n/a 
n/a 
n/a 
-4.759 
n/a 
n/a 
n/a 
n/a 
-4.759 
n/a 
n/a 
n/a 
n/a 
-2.5195 -3.7075 -1.7695 -4.2485 -3.519 -1.7565 -2.3615 -3.8725 -1.756 -4.237 -1.7695 -4.157 -1.4985 -4.238 
-6.1755 -6.202001 -6.549 -7.630001 -4.6225 -3.523 -5.6945 -5.7905 -5.738 -6.0245 -5.655 -5.6235 -5.068501 
-7.806 -11.6519 -10.0995 -9.142501 -6.718 -7.0955 -7.3415 -10.1855 -7.447001 -9.816501 -6.3205 -8.71 
-13.8213 -15.2024 -11.8118 -12.6046 -10.2865 -8.778001 -12.1235 -11.8945 -11.3528 -9.9285 -9.338 
-17.3718 -16.9147 -15.2739 -16.1731 -11.969 -13.7538 -13.8325 -15.8003 -11.4648 -14.2054 
-4.237 -4.0225 -2.5045 -4.392 -2.3335 -3.6615 -2.3615 -5.2255 -3.2 -1.7695 -4.593 -5.447 -2.925 -3.355 -3.321 -2.3615 -3.429 -5.047 -1.7695 -5.447 -3.599 
-7.7295 -6.4015 -6.9665 -6.929501 -5.865 -5.8675 -7.376 -8.5165 -4.8875 -7.067 -10.3225 -9.2425 -6.623 -6.9985 -5.4245 -6.5825 -9.5325 -7.731 -8.658501 -9.3895 
-10.204 -11.6723 -10.354 -9.844001 -8.3675 -11.7396 -11.2698 -10.159 -10.1105 -13.2361 -14.6802 -13.4277 -10.172 -9.005 -10.096 -13.1084 -12.2675 -14.8958 -12.8618 
-15.4748 -15.0598 -13.2685 -12.5573 -14.4452 -15.6334 -12.9123 -15.382 -16.2796 -17.5938 -18.8654 -16.9767 -12.2855 -13.8207 -16.6219 -15.8434 -19.4323 -19.0991 
-18.8623 -17.9743 -15.9818 -18.635 -18.339 -17.2759 -18.1353 -21.5511 -20.6373 -21.779 -22.4144 -19.0902 -17.1012 -20.3466 -19.3569 -23.0082 -23.6356 
-3.7075 -3.7805 -2.186 -1.756 -3.995 -4.7885 -3.9035 -3.5005 -1.4985 -8.51 -5.34 -3.5005 -3.599 -4.4665 0 
-6.981 -5.731 -5.029 -5.736 -8.9495 -7.532001 -6.7375 -4.372 -8.308001 -13.5745 -8.841001 -6.772 -9.260501 -4.4665 
-8.586 -8.724501 -10.019 -11.2479 -12.2354 -10.2645 -7.6365 -11.3695 -14.7992 -17.5697 -12.4783 -13.1453 -9.260501 
-11.7419 -13.8309 -15.6225 -14.5338 -14.9679 -11.8889 -15.2204 -18.6784 -18.604 -21.207 -18.8516 -13.1453 
-16.8483 -19.4344 -18.9084 -17.2663 -16.5923 -19.4728 -22.2009 -22.1794 -22.2413 -27.5803 -18.8516 
-4.237 -4.4845 -2.5195 -3.7075 -2.186 -4.237 -1.4985 -4.6985 -1.756 -3.995 -2.229 -5.3595 -2.4265 -2.186 -4.09 -1.4985 -3.599 0 
-6.3505 -7.045001 -6.1755 -5.825 -6.992001 -5.9725 -5.1995 -5.7875 -5.736 -5.324 -7.478 -7.838 -3.292 -5.6995 -5.5375 -4.6155 -3.599 
-8.9935 -10.2085 -8.455501 -10.4945 -8.816501 -8.749001 -6.337 -8.5965 -7.4345 -11.8862 -9.785 -8.762501 -7.066 -7.298501 -8.925 -4.6155 
-12.2744 -13.6987 -13.375 -12.319 -11.6294 -9.693001 -8.736501 -9.021501 -14.1827 -14.1932 -11.0083 -12.6895 -8.675 -10.543 -8.925 
-15.7646 -18.6182 -15.1995 -15.1319 -12.5734 -12.0975 -9.1155 -16.4333 -16.4897 -15.4165 -14.9353 -14.2985 -12.0121 -10.543 
