-4.759 
n/a 
n/a 
n/a 
n/a 
-4.759 
n/a 
n/a 
n/a 
n/a 
-4.759 
n/a 
n/a 
n/a 
n/a 
-4.759 
n/a 
n/a 
n/a 
n/a 
-3.091 -3.519 -7.5405 -1.934 -7.9265 -6.7815 -1.756 -7.657001 -4.0965 
-6.0275 -12.2393 -8.962 -9.1485 -15.2432 -8.436501 -9.615 -12.5597 
-15.4758 -13.6608 -16.3725 -16.6586 -16.8982 -16.6341 -14.5157 
-16.8973 -21.0713 -23.8826 -18.3136 -25.0958 -21.5348 
-24.3078 -28.5814 -25.5376 -26.5112 -29.9965 
-3.091 -8.2395 -3.59 0 -7.657001 -3.59 -7.5405 
-12.6163 -12.2885 -3.59 -7.657001 -10.3415 -12.2691 
-16.6653 -12.2885 -12.3856 -10.3415 -19.0206 
-16.6653 -21.0841 -15.0701 -19.0206 
-25.4609 -23.7686 -23.7492 
-3.091 -5.5195 -2.7415 -3.074 -4.4755 -3.2295 -7.9265 -1.756 -7.657001 -5.74 0 
-7.9985 -8.0385 -4.727 -7.0115 -6.05 -12.311 -9.852501 -9.615 -9.263 -5.74 
-10.019 -10.064 -8.915501 -8.8535 -15.9235 -14.237 -17.7455 -11.219 -9.263 
-12.0445 -14.2525 -9.887501 -18.9412 -17.8495 -22.13 -19.3495 -11.219 
-16.233 -15.2245 -20.2262 -20.8672 -25.7425 -23.734 -19.3495 
-2.3345 -3.3425 -3.091 -3.519 0 -2.925 -4.4755 -3.6215 -9.802 
-4.554 -6.0205 -6.0275 -3.519 -2.925 -6.846001 -6.677 -14.4319 
-7.2305 -8.085501 -6.0275 -6.3805 -6.846001 -8.9075 -18.0082 
-9.2355 -8.085501 -8.652 -10.2185 -8.9075 -20.3341 
-9.2355 -10.5325 -12.629 -12.4208 -20.3341 
