-4.759 
n/a 
n/a 
n/a 
n/a 
-4.759 
n/a 
n/a 
n/a 
n/a 
-4.759 
n/a 
n/a 
n/a 
n/a 
-4.759 
n/a 
n/a 
n/a 
n/a 
-3.9995 -3.2295 -2.186 -3.062 -5.2395 
-6.0445 -6.452 -6.2135 -9.007501 
-8.327001 -9.923 -12.6506 
-11.9868 -16.4649 
-18.5287 
-3.6215 -2.229 -3.836 -2.186 -2.7455 -3.062 -4.277 0 
-5.3165 -5.937 -5.687 -4.686 -6.141 -6.5655 -4.277 
-9.1195 -7.1285 -8 -7.5645 -7.723001 -6.5655 
-10.6016 -9.658501 -10.451 -9.294001 -7.723001 
-13.1316 -12.1307 -12.1805 -9.294001 
-4.3035 -4.275 -2.186 -3.6215 -3.062 -4.277 0 
-8.649 -6.101 -5.7995 -6.8365 -6.5655 -4.277 
-10.1075 -9.1675 -8.245501 -8.6005 -6.5655 
-13.4048 -11.7783 -9.8125 -8.6005 
-16.0156 -13.3453 -9.8125 
-4.415 -4.2085 -2.186 -3.062 -4.277 
-9.807001 -6.377501 -6.2135 -6.5655 
-12.1968 -10.0575 -8.790501 
-15.8768 -12.6345 
-18.4538 
