-4.759 
n/a 
n/a 
n/a 
n/a 
-4.759 
n/a 
n/a 
n/a 
n/a 
-4.759 
n/a 
n/a 
n/a 
n/a 
-4.759 
n/a 
n/a 
n/a 
n/a 
-2.3615 -2.186 -1.7695 -3.047 -2.0935 -4.31 0 
-3.5005 -3.8745 -3.768 -5.471 -6.047501 -4.31 
-5.557 -6.2105 -6.442 -10.0505 -6.047501 
-8.059 -8.922501 -11.0505 -10.0505 
-11.1864 -13.7368 -11.0505 
-2.0935 -4.31 -1.7695 -2.9635 -2.3335 -3.64 
-6.047501 -5.658 -4.09 -5.4375 -7.196501 
-6.9265 -8.027 -7.05 -10.733 
-9.2545 -11.2496 -12.9965 
-12.5993 -17.1961 
-4.31 -1.7695 -2.9635 -3.277 
-5.658 -4.09 -6.101 
-8.027 -6.529 
-10.1945 
n/a 
-2.4265 0 -4.2705 -4.31 -1.7695 -3.197 
-2.4265 -4.2705 -7.266 -5.658 -3.9565 
-5.3995 -7.266 -8.192 -7.7215 
-8.481 -8.192 -9.6715 
-9.1805 -9.6715 
