-4.759 
n/a 
n/a 
n/a 
n/a 
-4.759 
n/a 
n/a 
n/a 
n/a 
-4.759 
n/a 
n/a 
n/a 
n/a 
-4.759 
n/a 
n/a 
n/a 
n/a 
-3.326 -1.934 -3.6605 -4.7425 0 -4.215 -3.833 -2.7455 -2.3615 -3.7695 -4.719 -3.5125 0 0 -4.9485 -3.075 -7.6585 0 
-4.9165 -5.4945 -4.8735 -4.7425 -4.215 -6.962 -6.357 -4.1635 -4.653 -9.810501 -8.633 -3.5125 0 -4.9485 -7.45 -8.910001 -7.6585 
-8.335001 -6.862 -4.8735 -9.7535 -6.962 -9.415001 -7.940001 -5.7085 -11.1804 -13.7579 -8.633 -3.5125 -4.9485 -7.45 -8.9475 -8.910001 
-10.111 -6.862 -9.872001 -12.6855 -9.415001 -11.2038 -9.848001 -13.0917 -15.1278 -13.7579 -8.633 -8.966001 -7.45 -8.9475 -8.9475 
-10.111 -12.3519 -12.8878 -15.1385 -11.2038 -13.1118 -17.328 -17.0391 -15.1278 -13.7579 -14.3969 -11.6803 -8.9475 -8.9475 
-4.415 -1.7565 -3.6605 -7.4065 -4.1035 -1.934 -2.3615 -3.7695 -1.756 -3.5125 -1.7565 -3.1435 -4.415 0 -3.881 -2.3345 -4.9485 -10.7335 0 
-5.449501 -5.1155 -7.7825 -10.148 -6.0175 -3.539 -4.653 -5.449 -5.334 -4.312 -4.124 -6.93 -4.415 -3.881 -4.5275 -6.658 -13.285 -8.910001 
-8.220501 -8.7945 -9.9145 -12.1455 -7.034501 -5.9725 -6.4135 -9.989 -6.051 -7.129 -7.7625 -6.93 -8.815001 -4.5275 -8.675 -10.475 -8.9475 
-10.913 -10.7455 -12.1904 -13.6064 -9.878 -7.8915 -11.4917 -10.798 -8.738 -9.048 -7.7625 -11.8618 -9.1075 -8.675 -11.8491 -9.4895 
-12.9819 -13.179 -13.6301 -16.7115 -12.3144 -13.4439 -12.3007 -13.485 -10.8176 -9.048 -12.7695 -12.1543 -13.3678 -11.8491 -11.8491 
-4.415 -1.7565 -1.4985 -3.995 -4.593 -4.215 -4.1035 -2.7455 -2.3615 -4.7725 -1.756 -3.5125 -1.7565 -2.3615 -4.719 -3.6285 0 -4.9485 -10.7335 0 
-5.449501 -2.4195 -4.712 -8.961 -9.533501 -7.355 -6.5755 -4.1635 -6.4135 -6.5095 -5.334 -4.312 -3.523 -6.081 -9.286001 -3.6285 -4.9485 -13.285 -8.910001 
-6.111501 -5.2205 -9.271501 -14.2587 -12.8647 -9.175 -7.612 -9.9645 -8.125 -10.647 -6.051 -6.2935 -6.399 -11.1216 -9.286001 -8.0845 -8.9475 -8.9475 
-9.067501 -10.007 -14.8952 -17.5899 -14.6847 -10.5179 -14.5324 -11.803 -12.8567 -11.364 -7.487 -10.0575 -11.5404 -11.1216 -13.868 -10.548 -8.9475 
-14.399 -15.4411 -18.2264 -19.4099 -16.0276 -17.4383 -16.3709 -16.5347 -13.5737 -12.8 -11.7938 -15.1989 -11.5404 -15.7036 -16.3315 -10.548 
-4.415 -2.264 -3.995 -3.8255 -5.094 -4.7335 -4.845 -4.1035 -1.756 -3.1435 -3.5125 -2.264 -2.3615 -3.5855 0 -7.4715 -4.9485 -10.7335 
-6.8225 -4.972 -8.127 -8.073501 -8.3125 -8.146 -9.887501 -5.748001 -4.1365 -5.852 -6.0515 -3.8255 -5.0365 -3.5855 -7.4715 -12.9574 -13.285 
-9.764001 -8.733001 -12.8296 -10.5225 -11.7505 -12.6185 -11.5698 -8.790001 -6.805 -8.2475 -7.207 -6.697001 -5.0365 -10.703 -12.9574 -16.9564 
-13.6558 -13.8324 -15.3246 -14.2666 -17.257 -14.8202 -14.6118 -11.5989 -9.146501 -9.624001 -10.5751 -6.697001 -13.3606 -16.1889 -16.9564 
-18.7552 -16.3274 -19.0227 -19.4115 -19.1263 -17.8622 -17.4207 -13.9404 -10.1685 -13.0615 -10.5751 -16.1559 -18.8465 -20.1879 
