-4.759 
n/a 
n/a 
n/a 
n/a 
-4.759 
n/a 
n/a 
n/a 
n/a 
-4.759 
n/a 
n/a 
n/a 
n/a 
-4.759 
n/a 
n/a 
n/a 
n/a 
-2.9805 -4.6835 -3.4915 -1.4985 -3.594 -2.264 -4.922 -6.4575 -2.3345 -12.16972 -1.756 -4.1195 -5.1445 0 
-6.2215 -8.1055 -5.291 -5.2345 -5.3155 -7.221001 -10.3965 -8.715 -14.83482 -13.92572 -5.9755 -5.4255 -5.1445 
-9.6295 -9.706 -8.989 -6.6405 -9.859 -13.0469 -12.654 -21.37792 -16.59082 -18.14522 -7.127 -5.4255 
-11.3422 -13.4438 -10.8308 -11.9292 -15.9763 -15.3044 -25.31692 -23.13392 -20.81032 -19.29672 -7.127 
-15.08 -15.2856 -16.1195 -18.0465 -18.2338 -27.96732 -27.07292 -27.35342 -21.96182 -19.29672 
-2.9805 -4.6335 -9.6215 -1.756 -4.1195 -5.1445 -2.229 -3.594 -3.7015 -4.922 
-5.899 -15.442 -11.8063 -5.9755 -5.4255 -6.643001 -5.2295 -7.8815 -7.080501 
-17.2525 -17.6268 -16.0258 -7.127 -7.502 -9.2445 -9.729 -11.6451 
-19.4373 -21.8463 -17.1773 -9.190001 -10.2865 -13.9896 -13.5186 
-23.6568 -22.9978 -19.2403 -12.0425 -15.0316 -17.7792 
-2.9805 -4.6335 -12.16972 0 -4.1195 -8.9965 -3.594 
-5.899 -17.99022 -12.16972 -4.1195 -9.1105 -13.0463 
-19.80072 -17.99022 -16.28922 -9.1105 -13.3183 
-19.80072 -22.10972 -21.28022 -13.3183 
-23.92022 -27.10072 -25.48802 
-2.9805 -4.5495 -4.8565 -1.7565 -5.5305 -3.594 -1.7565 -12.16972 -1.756 -4.1195 -5.1445 -3.9725 0 
-5.964001 -10.8415 -6.58 -7.2215 -9.550001 -5.572 -14.87542 -13.92572 -5.9755 -5.4255 -5.4925 -3.9725 
-12.5916 -12.565 -12.514 -11.9526 -12.0682 -19.59172 -16.63142 -18.14522 -7.127 -5.5 -5.4925 
-14.3151 -18.499 -17.2451 -14.4708 -26.08792 -21.34772 -20.85092 -19.29672 -7.1755 -5.5 
-20.2491 -23.2301 -19.7633 -28.49052 -27.84392 -25.56722 -22.00242 -19.34522 -7.1755 
