-4.759 
n/a 
n/a 
n/a 
n/a 
-4.759 
n/a 
n/a 
n/a 
n/a 
-4.759 
n/a 
n/a 
n/a 
n/a 
-4.759 
n/a 
n/a 
n/a 
n/a 
-4.0435 -1.7565 -4.201 -2.5195 -3.995 -1.7695 -4.4515 
-5.224 -6.0295 -5.3735 -6.152 -5.9385 -7.121 
-9.459001 -7.3415 -7.6335 -7.156 -8.5435 
-11.5156 -9.469501 -8.364 -8.9455 
-13.6436 -10.2145 -9.492001 
-3.0365 -2.4945 -3.54 -3.9005 -3.7655 -1.7565 -7.606 -4.3645 -3.09 
-3.688 -5.328 -6.281 -7.015 -5.376 -8.057 -9.956 -6.6595 
-5.4375 -7.0175 -7.778501 -7.6595 -10.8115 -10.815 -12.1295 
-7.035 -8.532001 -8.289001 -12.8805 -13.2885 -11.5555 
-8.5425 -8.6335 -13.3595 -15.7105 -14.0945 
-3.115 -4.201 -4.889 -3.458 -4.4515 -1.756 -3.995 
-7.8785 -7.544001 -8.253 -8.463 -5.855 -5.736 
-11.5767 -9.167001 -13.4886 -8.734 -7.913001 
-13.1997 -14.5746 -13.7596 -9.739 
-18.6073 -14.8456 -14.7646 
-3.995 0 -4.4515 -5.2045 -4.0645 
-3.995 -4.4515 -9.373001 -7.4355 
-6.726 -9.373001 -11.702 
-9.654 -11.702 
-12.04 
