-4.759 
n/a 
n/a 
n/a 
n/a 
-4.759 
n/a 
n/a 
n/a 
n/a 
-4.759 
n/a 
n/a 
n/a 
n/a 
-4.759 
n/a 
n/a 
n/a 
n/a 
-3.718 -2.186 -4.26 -2.3345 -4.1465 
-5.353 -5.811501 -5.5915 -7.1805 
-8.567 -6.5205 -10.733 
-9.478001 -12.1242 
-15.2867 
-3.718 -2.186 -5.6445 -3.3255 -4.1465 
-5.353 -6.63 -7.0825 -7.234 
-9.082001 -7.761001 -10.204 
-9.636001 -10.9999 
-12.9373 
-4.1465 -3.3255 -3.4465 -1.7695 -3.853 0 
-7.3575 -7.509001 -5.5945 -6.4925 -3.853 
-11.9436 -10.1385 -11.3927 -6.4925 
-14.5731 -15.9367 -11.3927 
-20.3713 -15.9367 
-3.135 -5.4085 -3.5795 -4.477 -1.8085 -3.718 -3.815 -4.1465 
-8.2425 -8.482 -8.343 -5.805 -4.931 -7.5 -8.795 
-10.554 -13.4423 -9.8125 -9.094501 -8.8555 -12.7096 
-15.5143 -14.9118 -13.3632 -13.1806 -14.2659 
-16.9838 -18.4625 -17.4493 -18.591 
