-4.759 
n/a 
n/a 
n/a 
n/a 
-4.759 
n/a 
n/a 
n/a 
n/a 
-4.759 
n/a 
n/a 
n/a 
n/a 
-4.759 
n/a 
n/a 
n/a 
n/a 
-1.934 -8.402 -4.625 -3.4765 -2.8645 -3.1125 -4.005 -2.5045 -3.8655 0 
-9.545501 -11.886 -5.4755 -6.615001 -3.5345 -5.929501 -5.0615 -7.061501 -3.8655 
-14.123 -12.3215 -8.0935 -7.482 -6.406 -7.174 -9.576501 -7.061501 
-14.3885 -15.08 -8.7895 -9.880501 -7.652 -11.8368 -9.576501 
-17.147 -15.776 -10.7175 -11.3225 -12.398 -11.8368 
-3.8655 -4.439 -1.4985 -4.869 -4.717 -1.756 -3.533 -3.9655 -4.717 0 
-8.258 -6.077 -6.823 -8.405001 -6.3225 -5.8305 -7.0395 -6.071 -4.717 
-8.869501 -9.5485 -8.584001 -9.477501 -10.0815 -9.2665 -7.566501 -6.071 
-10.2595 -10.5875 -9.5505 -13.3203 -10.6525 -9.7185 -7.566501 
-11.5847 -11.554 -13.4215 -13.8913 -10.73 -9.7185 
-4.869 0 -3.533 -1.934 -3.158 -4.625 -3.4765 -2.7415 -2.3345 -3.8655 0 
-4.869 -3.533 -5.780001 -5.7375 -8.255501 -5.4755 -6.7705 -5.77 -6.7625 -3.8655 
-8.300501 -5.780001 -9.182001 -10.757 -9.575001 -8.0305 -9.4895 -10.598 -6.7625 
-10.4035 -9.182001 -14.5615 -12.0765 -12.2436 -10.9761 -14.6079 -10.598 
-13.8055 -14.5615 -15.881 -14.7451 -15.1892 -16.0945 -14.6079 
-8.402 -4.625 -3.4765 -3.152 -4.005 -2.5045 -3.8655 
-11.886 -5.4755 -6.335001 -5.6565 -5.0615 -7.061501 
-12.3215 -7.7855 -7.7025 -6.670001 -9.576501 
-14.726 -8.321 -8.738001 -11.3434 
-15.494 -9.7285 -13.4766 
