-4.759 
n/a 
n/a 
n/a 
n/a 
-4.759 
n/a 
n/a 
n/a 
n/a 
-4.759 
n/a 
n/a 
n/a 
n/a 
-4.759 
n/a 
n/a 
n/a 
n/a 
-3.6705 0 -1.4985 -4.418 -3.325 -1.4985 -4.1 -1.7565 -8.164001 -3.251 -3.1125 -3.849 -2.3345 -1.4985 -3.486 -3.098 -2.3345 -1.4985 -3.1385 -1.934 -4.5735 -3.5215 0 
-3.6705 -1.4985 -5.732 -7.55 -3.898 -5.0695 -5.164001 -10.0285 -11.117 -4.28 -5.7235 -5.722 -3.233 -3.5655 -5.5085 -5.6965 -3.233 -4.2575 -4.522 -5.86 -6.2465 -3.5215 
-4.5585 -5.732 -8.438 -8.0375 -6.657 -5.5715 -14.4948 -12.9815 -12.146 -6.9135 -7.2465 -6.1745 -5.455 -5.534 -7.285 -7.07 -5.869 -5.28 -8.233001 -6.6365 -6.2465 
-8.871501 -8.438 -9.042 -10.4755 -6.859 -15.2011 -17.4478 -14.0105 -14.7795 -8.173 -7.865 -8.178 -6.8855 -7.2935 -8.4805 -10.1035 -7.279 -9.330501 -8.6265 -6.6365 
-11.7087 -9.042 -10.76 -10.527 -16.449 -18.1541 -18.4768 -16.644 -16.039 -8.623 -9.9505 -8.3575 -8.703 -8.492001 -11.6078 -11.5135 -10.7015 -9.844501 -8.6265 
-4.5445 -3.325 -10.4705 -12.16972 -4.088 -2.4945 -3.849 -2.3615 -3.3755 0 -1.934 -3.929 -3.5905 -3.4795 
-8.111 -14.9515 -22.79082 -16.25772 -6.1785 -5.410501 -6.3035 -4.8525 -3.3755 -1.934 -6.9305 -7.89 -5.88 
-20.0095 -27.27182 -26.87882 -18.34822 -8.727501 -8.2355 -8.435 -4.8525 -5.0985 -6.9305 -11.0171 -10.4231 
-32.32982 -31.35982 -28.96932 -20.89722 -11.5239 -9.4945 -8.435 -6.688 -9.248001 -11.0171 -13.5502 
-36.41782 -33.45032 -31.51832 -23.69362 -12.7829 -9.4945 -9.97 -11.0939 -13.3786 -13.5502 
-5.6705 -1.7565 -3.992 0 -1.4985 -3.892 -1.756 -1.4985 -3.1385 -3.325 -1.4985 -4.1 -1.7565 -1.4985 -6.864 -4.6805 -3.152 -3.9205 -2.3345 -1.4985 -3.486 -3.098 0 -7.4885 0 0 -2.5195 -4.5735 -3.5215 0 
-5.681 -5.4595 -3.992 -1.4985 -4.68 -5.337 -3.0405 -4.2575 -6.1955 -3.898 -5.0695 -5.164001 -2.4195 -7.8675 -8.916 -7.2515 -6.2435 -5.811 -3.233 -3.5655 -5.5085 -3.098 -7.4885 -7.4885 0 -2.5195 -6.318501 -6.2465 -3.5215 
-9.818001 -5.4595 -5.9095 -4.68 -5.8785 -6.203 -5.6125 -7.365 -6.648 -6.657 -5.5715 -6.290501 -8.476001 -9.2615 -10.3105 -9.5775 -7.7305 -6.298 -5.455 -5.534 -5.5085 -11.1415 -7.4885 -7.4885 -2.5195 -6.318501 -7.0085 -6.2465 
-9.818001 -6.903501 -9.054001 -5.8785 -6.6825 -8.642 -8.8105 -7.689 -9.257501 -6.859 -6.679 -10.5125 -9.717001 -10.495 -12.6365 -10.735 -8.177501 -8.463 -6.8855 -5.534 -14.2056 -11.1415 -7.4885 -9.705 -6.318501 -7.0085 -7.0085 
-11.5082 -9.412001 -11.2401 -6.6825 -8.9245 -12.1078 -9.199 -9.8605 -9.276501 -7.4855 -10.585 -11.7535 -10.9741 -12.821 -13.794 -11.182 -10.15 -8.620501 -6.8855 -14.2853 -14.2056 -11.1415 -9.705 -13.6014 -7.0085 -7.0085 
-3.6705 -2.4265 -2.186 0 -1.4985 -4.088 -3.325 -1.4985 -6.864 -3.9725 0 -1.756 -1.4985 -3.1385 -3.074 -3.849 -2.356 -2.3615 -3.098 
-4.959001 -3.292 -2.186 -1.4985 -5.6785 -7.479501 -3.898 -7.8675 -8.775001 -3.9725 -1.756 -3.0405 -4.2575 -6.103001 -5.417 -6.0935 -4.2185 -5.7775 
-5.383 -3.292 -3.339 -5.6785 -9.133501 -7.900501 -9.783 -9.040001 -8.775001 -5.5515 -3.0405 -5.6125 -7.7285 -8.727 -8.8675 -8.1155 -6.896501 
-5.383 -4.5995 -8.660501 -9.133501 -9.6975 -14.0273 -11.1105 -9.040001 -10.2135 -6.612 -5.6125 -9.011001 -10.0155 -12.3323 -10.586 -10.0645 
-6.8625 -9.5645 -12.2099 -9.6975 -15.8581 -15.3548 -11.1105 -10.5435 -11.274 -8.439 -9.011001 -11.4062 -13.698 -14.0508 -13.0662 
