-4.759 
n/a 
n/a 
n/a 
n/a 
-4.759 
n/a 
n/a 
n/a 
n/a 
-4.759 
n/a 
n/a 
n/a 
n/a 
-4.759 
n/a 
n/a 
n/a 
n/a 
-1.7695 -4.301 -2.3615 -3.502 -4.317 -6.5105 0 -4.749 -8.399501 -3.115 -7.5705 0 -8.293 -4.267 0 -3.9485 -2.356 -3.8735 -3.2645 -4.503 -5.3085 -2.915 -4.834 
-4.541 -5.995 -6.974 -5.926 -10.119 -6.5105 -4.749 -14.4673 -9.913501 -10.575 -7.5705 -8.1035 -12.598 -4.267 -3.9485 -4.311 -6.3455 -7.0515 -6.502501 -9.834001 -7.7515 -7.940001 
-6.1945 -11.1317 -8.712 -10.1855 -10.119 -10.674 -14.4673 -15.9813 -17.8359 -10.575 -16.6356 -13.1518 -13.1518 -8.526001 -4.311 -8.362 -9.244 -10.085 -12.2881 -12.5356 -13.5419 
-11.38 -12.8697 -13.3811 -10.1855 -14.3787 -20.3923 -15.9813 -23.9037 -17.8359 -19.6401 -21.6839 -13.1518 -17.8642 -8.956 -8.362 -11.6261 -12.4875 -15.913 -14.9897 -18.326 
-13.118 -17.5388 -13.3811 -14.4702 -24.097 -21.9063 -23.9037 -23.9037 -26.901 -24.6884 -21.6839 -17.8642 -18.2942 -13.14 -11.6261 -14.8696 -18.3155 -18.6146 -20.7801 
-1.7695 -3.935 -2.3615 0 -3.502 -3.994 -2.229 -6.5105 0 -3.502 -3.75 -4.317 -3.959 -12.16972 0 -8.529501 -4.267 -4.618 -3.2645 -3.613 -3.894 -2.356 -3.8735 -1.756 -4.384 -5.3085 -4.191 -4.0395 -1.934 -1.4985 -4.1115 0 
-4.6555 -5.976 -2.3615 -3.502 -5.394 -5.9595 -8.396501 -6.5105 -3.502 -5.0795 -5.846001 -6.091001 -17.27532 -12.16972 -6.9975 -11.492 -6.967 -7.177 -6.4965 -6.3555 -4.7015 -6.3455 -5.3865 -6.037 -10.9575 -6.580501 -8.9345 -5.5995 -2.6125 -4.843 -4.1115 
-6.377 -5.976 -6.974 -5.394 -7.4675 -13.1408 -8.396501 -8.2945 -5.0795 -6.633 -7.073501 -19.68972 -17.27532 -19.16722 -12.5984 -15.7518 -9.903501 -10.8206 -8.307501 -7.696 -8.6525 -7.358001 -10.434 -13.1093 -12.2295 -12.512 -10.1045 -6.180501 -6.0655 -4.843 
-6.377 -10.8567 -9.5155 -7.4675 -14.9298 -13.1408 -8.775001 -10.435 -6.633 -7.624001 -20.80322 -19.68972 -24.27282 -24.76812 -15.7518 -18.6883 -13.5557 -12.6316 -9.662001 -11.9098 -9.458 -12.6259 -17.7877 -14.3813 -18.161 -13.682 -11.4847 -9.4975 -6.0655 
-11.4339 -13.3982 -11.7568 -14.9298 -14.9298 -13.5193 -12.6023 -12.4643 -7.624001 -21.40652 -20.80322 -26.68722 -29.87372 -27.92152 -18.6883 -22.3405 -15.3667 -13.9861 -13.9918 -12.7153 -14.9115 -19.9796 -19.0597 -20.3128 -19.331 -15.0622 -14.8017 -9.4975 
-1.7695 -4.301 -2.3615 0 -1.4985 -1.4985 -8.529501 -3.7575 0 -4.749 -4.317 -3.59 -12.16972 0 -1.756 -3.502 -4.317 -6.5105 -3.7575 -5.227 -3.2645 -3.2345 -1.4985 -5.065 -1.934 -1.4985 -4.197 -4.712 -3.0365 -2.186 -1.4985 -5.331 -1.7565 -5.179 -1.7565 -5.3085 0 
-4.541 -5.995 -2.3615 -1.4985 -4.935 -8.142 -10.124 -3.7575 -4.749 -6.0705 -6.963 -16.89832 -12.16972 -1.756 -5.1085 -5.926 -10.119 -10.007 -8.498501 -8.755501 -5.4565 -4.328 -6.85 -6.431 -2.6125 -5.2175 -9.1745 -6.323501 -3.66 -3.339 -6.610001 -6.1495 -7.147 -5.481 -6.896501 -5.3085 
-6.1945 -5.995 -4.913 -4.935 -11.303 -12.7299 -11.2304 -8.092001 -6.0705 -7.835 -20.78412 -16.89832 -13.92572 -5.1085 -7.173 -10.1855 -13.7117 -15.2412 -12.314 -11.1459 -6.509501 -10.3475 -8.6025 -7.2145 -7.059 -9.908001 -10.689 -6.552001 -5.482 -7.881001 -7.424 -12.328 -7.7855 -11.3628 -6.896501 
-6.1945 -7.54 -7.949 -12.0638 -16.7967 -13.2299 -16.7371 -9.642 -7.835 -21.92872 -20.78412 -18.65432 -17.27822 -7.173 -11.9051 -13.8032 -18.9459 -19.0567 -14.7044 -12.1989 -12.6684 -12.1 -8.9255 -12.23 -12.3443 -11.4651 -10.9175 -8.6145 -10.4675 -8.352 -13.9023 -12.9665 -13.8349 -11.3628 
-7.5865 -10.8634 -15.2594 -16.7967 -16.7967 -18.7366 -18.2871 -11.4873 -21.92872 -21.92872 -22.54012 -22.00682 -19.34272 -11.9051 -15.5228 -19.0374 -22.7614 -21.4471 -15.7574 -18.3578 -14.4209 -12.423 -14.1998 -17.5153 -13.9014 -11.6936 -12.98 -14.161 -10.9385 -15.0645 -14.5408 -19.0159 -13.8349 
-2.3615 -5.5365 -7.635 -5.0805 0 -7.391001 -3.994 -3.959 -12.16972 0 -7.97 -5.2125 -1.7695 -3.8735 -2.5685 -2.4945 -3.013 -1.934 -4.1115 -4.834 -5.3085 -5.8165 -3.2 
-8.999001 -13.028 -12.359 -5.0805 -6.416 -7.942 -7.3035 -17.27532 -12.16972 -5.3705 -11.637 -7.0015 -5.578001 -6.6045 -5.3665 -6.753 -4.969 -6.27 -9.154501 -10.5325 -12.144 -10.5535 
-16.9389 -19.6707 -13.0868 -12.7238 -9.918 -12.6915 -21.07922 -17.27532 -17.54022 -13.6012 -15.3902 -11.331 -8.337001 -9.406 -9.318001 -9.3985 -9.540001 -12.095 -15.5446 -17.368 -16.881 
-23.4722 -19.6707 -21.0401 -16.2258 -12.7177 -26.97682 -21.07922 -22.64582 -25.77092 -15.3902 -19.7197 -14.09 -11.4983 -13.3551 -11.9585 -14.0325 -15.758 -18.4851 -22.3801 -22.105 
-23.4722 -27.624 -24.5421 -19.0255 -26.97682 -26.97682 -26.44972 -30.87652 -27.55992 -19.7197 -22.4787 -17.2513 -15.4474 -15.9956 -16.5925 -20.2505 -22.1481 -25.3206 -27.1171 
