-4.759 
n/a 
n/a 
n/a 
n/a 
-4.759 
n/a 
n/a 
n/a 
n/a 
-4.759 
n/a 
n/a 
n/a 
n/a 
-4.759 
n/a 
n/a 
n/a 
n/a 
-9.1575 -10.3545 0 0 -7.8465 -5.686 -1.756 -1.934 -1.7695 -2.688 -4.824 -3.6955 -7.228001 -5.7425 -1.756 -7.1085 -9.934 -3.074 -1.934 -2.3615 -3.2795 
-19.9639 -10.575 0 -7.8465 -13.9925 -7.343 -4.0205 -4.0395 -4.698 -6.956501 -8.758 -9.746 -10.349 -7.140501 -8.870001 -17.5579 -13.254 -4.93 -3.539 -4.9565 
-19.9639 -10.575 -7.8465 -13.9925 -15.6495 -10.2805 -7.434 -7.574 -8.8345 -10.6215 -15.7025 -12.769 -11.4315 -14.8127 -19.5244 -20.8779 -15.11 -6.1405 -5.923 
-19.9639 -18.9661 -13.9925 -15.6495 -18.587 -13.694 -10.2225 -12.0887 -12.6187 -17.566 -18.3572 -14.1227 -19.5463 -25.4671 -22.8444 -22.7339 -16.3205 -8.573 
-28.355 -25.1121 -15.6495 -18.587 -22.0005 -16.4825 -14.7372 -15.8729 -19.5632 -20.2207 -19.5607 -22.2375 -30.2007 -28.7871 -24.7004 -23.9444 -18.753 
-12.16972 -7.937501 -4.686 0 -8.377501 -7.216001 0 -1.756 -2.688 -3.6505 -4.0225 0 -2.871 -3.699 -9.517 -2.645 -8.851001 -8.093 -1.756 -4.088 -11.0235 -3.135 -1.7565 -3.4865 -3.594 -1.756 -2.645 -3.594 -3.4425 -3.8755 -1.934 -6.3165 
-19.07022 -10.282 -4.686 -8.377501 -16.3715 -7.216001 -1.756 -4.619 -6.4505 -8.504001 -4.0225 -2.871 -6.001 -14.5594 -12.817 -12.5694 -17.3592 -9.828501 -5.734 -16.0565 -14.1585 -3.9195 -5.2165 -7.4195 -4.857 -3.898 -6.432 -7.3825 -7.562 -5.2035 -7.473 
-22.60422 -10.4345 -13.2795 -16.3715 -16.3715 -9.148001 -4.619 -8.462 -11.8972 -8.504001 -7.112 -6.001 -17.8424 -17.8594 -22.7414 -21.0776 -19.0947 -13.8369 -18.0355 -19.1915 -14.943 -9.0765 -9.3465 -8.982 -6.9805 -7.793 -10.8897 -12.117 -8.703501 -11.4645 
-22.60422 -19.2474 -21.2735 -16.3715 -18.3035 -12.2572 -8.462 -14.3955 -11.8972 -11.9071 -9.8105 -17.8424 -21.1424 -27.7838 -31.2496 -22.8131 -23.1031 -26.1384 -21.1705 -19.976 -20.1 -13.3297 -10.4685 -11.1727 -8.983 -12.5529 -15.6242 -13.2585 -15.1937 
-31.41712 -27.2414 -21.2735 -18.3035 -21.4127 -16.1002 -14.3955 -14.3955 -15.3003 -14.6056 -21.6735 -21.1424 -31.0668 -36.292 -32.9851 -26.8215 -35.4046 -29.2734 -21.955 -25.133 -24.3532 -14.4517 -12.6592 -13.1752 -13.9051 -17.2874 -16.7657 -19.7487 
-4.3665 -10.161 -9.993501 -9.77 -10.6015 -3.43 -1.8085 -2.688 -3.4105 -1.756 -4.088 -2.9385 0 -12.16972 0 -12.16972 0 -12.16972 -5.256 -3.251 -10.5565 -4.1605 -4.1455 -4.0875 -3.7895 -1.756 -3.43 -2.3615 -3.6955 -1.934 -4.188 0 
-15.8599 -20.5101 -19.9113 -20.3715 -14.0315 -4.6595 -3.642 -5.606 -5.111 -5.734 -6.022 -2.9385 -12.16972 -12.16972 -12.16972 -12.16972 -12.16972 -17.42572 -8.2725 -15.2447 -14.717 -6.3485 -8.4135 -7.7815 -5.179 -5.055 -5.467 -6.697001 -4.938 -7.5165 -4.188 
-26.209 -30.4279 -30.5128 -23.8015 -15.261 -6.5555 -6.1275 -7.190001 -9.505 -7.554501 -6.022 -15.23382 -12.16972 -24.33944 -12.16972 -24.33944 -17.42572 -20.44222 -20.3204 -19.4052 -16.905 -10.3885 -12.3625 -8.98 -8.5865 -7.233001 -9.264501 -8.2845 -9.7915 -7.5165 
-36.1268 -41.0294 -33.9428 -25.031 -17.157 -8.998 -7.4585 -11.964 -11.5285 -7.554501 -19.03232 -15.23382 -24.33944 -24.33944 -24.33944 -29.59544 -20.44222 -32.49012 -24.4809 -21.5932 -20.945 -14.5373 -13.561 -12.6707 -10.298 -11.1615 -11.411 -13.3538 -9.7915 
-46.7283 -44.4594 -35.1723 -26.927 -19.5995 -9.813001 -12.3659 -13.9875 -11.5285 -21.02502 -19.03232 -27.40354 -24.33944 -36.50916 -29.59544 -32.61194 -32.49012 -36.65062 -26.6689 -25.6332 -25.0938 -15.7358 -17.2517 -14.3822 -14.4861 -13.308 -16.4803 -13.3538 
-4.1605 -3.3195 -3.7555 -3.6975 -1.934 -3.676 0 -11.0555 -2.9965 -5.075 0 -7.248 -5.686 -1.756 -3.769 -4.5045 -2.688 -4.2905 0 -1.756 -3.5185 -1.756 -3.383 -3.4865 -1.756 -6.566 -4.2905 -1.934 -3.4975 -3.7865 0 
-5.6665 -7.635 -7.987 -5.568 -4.7985 -3.676 -11.0555 -14.052 -8.822001 -5.075 -7.248 -13.7784 -7.343 -4.496 -8.0065 -7.263 -6.356501 -4.2905 -1.756 -5.1175 -5.195 -5.029 -5.601 -5.8885 -7.5715 -9.933001 -5.0475 -5.3805 -6.9245 -3.7865 
-9.892 -10.451 -9.0905 -7.836 -4.7985 -15.7785 -14.052 -19.8775 -8.822001 -13.1372 -13.7784 -15.4354 -9.125 -9.365001 -11.3288 -11.5789 -6.356501 -5.263 -5.1175 -7.147 -9.366501 -7.5175 -7.0575 -12.628 -11.0891 -10.814 -7.9135 -9.058001 -6.9245 
-12.7718 -11.5545 -11.6453 -7.836 -17.4836 -18.775 -19.8775 -19.8775 -16.9924 -19.6676 -15.4354 -17.2174 -14.4408 -12.8053 -15.6447 -11.5789 -7.0785 -8.6155 -7.147 -11.4541 -12.0804 -9.370001 -14.3456 -16.1456 -11.9701 -13.68 -11.928 -9.058001 
-13.8753 -14.1093 -11.6453 -20.9727 -20.4801 -24.6005 -19.8775 -28.0479 -23.5228 -21.3246 -17.2174 -22.5332 -17.8811 -17.1212 -15.6447 -12.3009 -10.328 -10.5225 -11.4541 -14.168 -13.9329 -16.7305 -17.8632 -17.0266 -14.8361 -17.6945 -11.928 
