-4.759 
n/a 
n/a 
n/a 
n/a 
-4.759 
n/a 
n/a 
n/a 
n/a 
-4.759 
n/a 
n/a 
n/a 
n/a 
-4.759 
n/a 
n/a 
n/a 
n/a 
-2.264 -3.524 -4.751 0 -1.4985 -6.144 -2.229 -5.198 -1.756 -4.9345 -1.4985 -4.0415 -3.918 -1.934 -4.1225 -4.628 -4.743 -2.229 -6.883 -5.199 0 
-4.855 -6.314 -4.751 -1.4985 -6.455 -7.4565 -7.832 -6.456501 -6.2485 -5.9515 -4.9725 -6.2795 -5.666 -5.261 -7.870001 -4.7515 -6.5015 -9.377001 -9.874001 -5.199 
-7.146501 -6.314 -6.9375 -6.455 -7.611 -13.5043 -9.199 -7.945001 -7.077001 -9.043501 -7.4185 -7.0305 -7.98 -8.279 -7.8995 -6.5135 -9.975 -12.7716 -9.874001 
-7.146501 -8.185 -12.1492 -7.611 -13.6856 -14.8713 -10.7073 -8.659501 -10.107 -11.6231 -8.3485 -9.0395 -11.4898 -8.318501 -9.913001 -9.9805 -14.5006 -12.7716 
-8.7335 -13.5327 -13.3052 -13.6856 -15.0526 -16.3796 -11.4218 -11.7917 -12.8144 -12.5531 -10.5111 -12.7849 -11.5293 -10.1635 -13.7394 -14.5003 -14.5006 
-4.0415 -4.288 -1.7695 -2.489 -4.9345 -2.5045 -3.7055 -2.998 -1.934 -4.628 -6.739501 -6.883 -10.1485 
-7.248 -6.4015 -3.1405 -5.9115 -6.940001 -6.856501 -5.4955 -5.5535 -5.9605 -10.6215 -14.2685 -17.7111 
-9.1305 -7.6045 -6.582 -7.7005 -11.9062 -8.347501 -8.1645 -9.7885 -12.9808 -18.1505 -25.0966 
-10.5545 -10.1995 -8.3745 -13.0069 -13.3972 -11.7301 -12.6571 -16.893 -20.5098 -28.9786 
-13.1495 -12.3092 -13.7015 -14.4979 -16.7798 -16.2227 -19.7616 -24.422 -31.3379 
-3.524 -2.998 0 -3.502 -6.899 -6.833 -2.8645 -5.198 -5.723 -2.3345 -6.144 -2.229 
-5.3765 -2.998 -3.502 -10.533 -14.7424 -9.433001 -7.133 -9.341001 -8.1565 -8.052 -7.4565 
-5.3765 -6.8295 -10.533 -18.9032 -17.3424 -13.8591 -11.422 -12.0877 -14.1278 -9.7895 
-9.992001 -14.1593 -18.9032 -21.5032 -21.7685 -18.1481 -14.1687 -18.059 -15.8653 
-17.3218 -22.5295 -21.5032 -25.9293 -26.0575 -20.8948 -20.14 -19.7965 
-1.934 -3.524 -2.998 -4.0415 -4.288 -1.934 -4.481 -3.6415 -5.392 -2.9705 -2.186 -1.934 -3.502 -6.6585 -4.299 -1.756 -4.9345 -2.3345 -1.4985 -4.891 
-5.012 -5.3765 -7.6265 -7.248 -5.8725 -6.916 -7.258 -10.2925 -9.6285 -3.89 -4.0835 -4.8155 -10.575 -10.335 -5.769 -6.2485 -5.816 -3.233 -5.891001 
-7.8885 -11.1384 -11.2758 -8.036 -11.2975 -10.634 -14.3918 -14.529 -10.1655 -5.7145 -7.238501 -12.9759 -14.2515 -12.0092 -9.451 -7.3455 -6.4415 -7.848501 
-14.0402 -14.7877 -12.0638 -13.7736 -15.0155 -17.7678 -18.6283 -15.066 -11.99 -8.643001 -15.6583 -16.6524 -15.9257 -15.6912 -10.565 -7.8085 -10.7335 
-17.6895 -15.5757 -17.8014 -17.4916 -22.1493 -22.0043 -19.1653 -16.8905 -14.9185 -16.9596 -19.3348 -18.3266 -19.6077 -16.8052 -11.028 -12.2721 
