-4.759 
n/a 
n/a 
n/a 
n/a 
-4.759 
n/a 
n/a 
n/a 
n/a 
-4.759 
n/a 
n/a 
n/a 
n/a 
-4.759 
n/a 
n/a 
n/a 
n/a 
-10.526 -10.6255 
-21.1515 
n/a 
n/a 
n/a 
-10.526 -3.594 
-14.12 
n/a 
n/a 
n/a 
-2.7625 -9.5495 -3.594 
-12.4842 -13.1683 
-16.103 
n/a 
n/a 
-12.16972 0 -2.4265 -2.186 -1.8085 -2.871 -1.7565 -1.4985 -3.699 -3.452 -1.934 -5.1845 -4.245 0 
-12.16972 -2.4265 -3.292 -3.164 -4.756001 -3.5385 -2.4195 -5.264 -6.791 -5.2935 -6.564 -7.991 -4.245 
-14.59622 -3.292 -4.4005 -5.7905 -6.113501 -3.7675 -6.063 -8.456 -8.235001 -9.524 -9.073501 -7.991 
-15.46172 -4.4005 -7.0425 -6.8345 -6.8655 -6.646 -9.442 -10.6465 -12.8569 -12.1979 -9.073501 
-16.57022 -7.0425 -8.198501 -7.7835 -9.337001 -10.749 -11.6263 -15.2684 -15.5308 -12.1979 
