-4.759 
n/a 
n/a 
n/a 
n/a 
-4.759 
n/a 
n/a 
n/a 
n/a 
-4.759 
n/a 
n/a 
n/a 
n/a 
-4.759 
n/a 
n/a 
n/a 
n/a 
-2.871 -2.186 -4.0105 -4.6605 -1.756 -3.571 -3.9785 -4.6605 
-4.751 -6.62 -8.3545 -6.0035 -5.1285 -7.775 -9.436001 
-8.706 -11.566 -9.896501 -9.525001 -9.468 -13.7607 
-14.1582 -13.108 -13.4804 -13.9205 -15.4765 
-15.7002 -16.6919 -17.8759 -19.929 
-3.0835 -2.871 -2.186 -3.0835 -5.1035 -1.756 -3.7745 -5.1035 
-5.3085 -4.751 -5.597 -8.995001 -6.035501 -5.3805 -9.620001 
-6.351501 -8.189501 -12.2021 -10.5028 -9.536 -12.0534 
-10.228 -15.0642 -13.7099 -14.0033 -17.2811 
-17.1027 -16.572 -17.2104 -21.7484 
-3.0835 0 -4.0105 -4.6605 -1.756 -4.3715 -4.6605 
-3.0835 -4.0105 -8.3545 -6.0035 -5.45 -8.787001 
-7.144 -8.3545 -9.896501 -9.943 -9.7685 
-11.9394 -9.896501 -13.8984 -14.2615 
-13.4814 -13.8984 -18.2169 
-2.871 -2.186 -4.0105 -8.759001 -2.871 -2.186 -5.637 -5.188 0 
-4.751 -6.62 -12.2805 -10.6045 -4.751 -8.9335 -11.8694 -5.188 
-8.706 -15.6556 -14.376 -12.4669 -11.6503 -15.4043 -11.8694 
-18.2478 -17.5875 -16.077 -19.5194 -18.1211 -15.4043 
-20.1797 -19.2885 -23.1295 -25.9902 -18.1211 
