-4.759 
n/a 
n/a 
n/a 
n/a 
-4.759 
n/a 
n/a 
n/a 
n/a 
-4.759 
n/a 
n/a 
n/a 
n/a 
-4.759 
n/a 
n/a 
n/a 
n/a 
-2.264 -4.9755 -8.512501 -3.251 -3.917 -8.445001 -2.5045 -4.259 -3.034 -2.9805 -2.7415 -4.203 -2.229 -4.2245 
-8.7215 -14.1644 -11.046 -6.9855 -13.503 -11.6813 -6.2345 -7.509501 -4.4605 -4.004 -7.8085 -6.448 -6.2335 
-17.9528 -16.6979 -14.7805 -16.9957 -16.7393 -15.4113 -9.414001 -8.546 -5.2415 -9.794001 -8.658501 -10.2185 
-20.4863 -20.4324 -24.7907 -20.232 -20.4693 -18.5908 -10.5875 -9.152 -10.75 -10.1335 -12.759 
-24.2208 -30.4426 -28.027 -23.962 -23.6488 -19.7643 -11.1935 -14.7509 -11.0895 -15.017 
-1.934 -4.9755 0 -8.4665 -2.7415 -4.645 -3.757 -1.7565 -1.4985 -5.0075 -4.203 -3.774 -1.756 -2.9805 -4.648 -7.5605 -1.4985 -3.3785 -4.259 
-6.249 -4.9755 -8.4665 -10.733 -5.6165 -6.081 -4.5665 -2.4195 -5.724501 -7.5655 -6.491 -5.291 -4.3555 -7.014501 -13.3637 -9.818501 -4.4495 -6.061501 
-6.249 -14.1184 -10.733 -13.608 -6.6575 -6.555501 -4.9145 -6.501501 -8.026001 -9.335 -8.948 -7.704 -8.203501 -15.904 -15.6217 -12.8297 -6.872001 
-15.8057 -16.3849 -13.608 -14.649 -7.0115 -6.758 -8.536 -8.4995 -10.142 -10.5045 -11.407 -11.8764 -17.271 -18.162 -18.6329 -15.2522 
-18.0722 -19.2599 -14.649 -15.003 -7.1365 -10.253 -9.456501 -10.396 -11.3115 -12.9635 -15.5794 -20.9439 -19.529 -21.1732 -21.0554 
-1.934 -4.9755 0 -8.725 -2.5045 -1.8085 -9.306001 -3.8385 -1.756 -4.259 -2.5045 -8.445001 
-6.249 -4.9755 -8.725 -11.6077 -3.3625 -11.6129 -13.2961 -5.126 -6.105 -6.910501 -11.8669 
-6.249 -14.3769 -11.6077 -12.4657 -14.1465 -15.603 -14.5836 -9.331 -8.6115 -16.8691 
-16.0642 -17.2596 -12.4657 -23.2497 -18.1366 -16.8905 -18.7886 -11.9805 -18.8451 
-18.9469 -18.1176 -23.2497 -27.2398 -19.4241 -21.0955 -21.4381 -22.2141 
-1.934 -4.9755 -3.034 -8.512501 -4.3195 -1.4985 -3.8385 -1.7565 -1.4985 -4.203 -3.6825 -1.7565 -1.4985 -3.1715 0 -2.9805 -4.648 -8.445001 -2.5045 -1.4985 -4.259 0 
-6.249 -7.527 -12.7095 -13.2214 -5.1515 -4.778501 -4.716001 -2.4195 -5.438 -6.8015 -5.4015 -2.4195 -3.994 -3.1715 -2.9805 -7.014501 -14.2482 -11.6813 -3.583 -4.743 -4.259 
-7.8595 -17.4571 -17.4184 -14.0534 -7.4715 -5.202 -5.204 -6.278501 -7.296 -8.566 -6.232 -4.741 -3.994 -6.3155 -7.014501 -16.7885 -17.4845 -12.7598 -6.2925 -4.743 
-17.901 -22.166 -18.2504 -16.3734 -7.6365 -5.5205 -8.991 -7.9595 -9.1675 -10.0005 -8.370501 -4.741 -6.867001 -9.820001 -16.7885 -20.0248 -18.563 -15.4693 -6.2925 
-22.6099 -22.998 -20.5704 -16.5384 -7.865 -9.448001 -9.5915 -10.064 -10.361 -12.139 -8.370501 -7.471 -10.361 -19.594 -20.0248 -21.1033 -21.2725 -15.4693 
