-4.759 
n/a 
n/a 
n/a 
n/a 
-4.759 
n/a 
n/a 
n/a 
n/a 
-4.759 
n/a 
n/a 
n/a 
n/a 
-4.759 
n/a 
n/a 
n/a 
n/a 
-2.4265 -2.186 -4.251 -4.7815 -2.3335 -2.847 -4.8415 -5.465 -4.384 -5.2025 -2.264 -1.4985 -3.995 -2.5685 -4.8415 -5.465 -4.788 -5.809 -2.5195 -1.4985 -5.585 -5.339 -1.7565 -5.501 -5.465 -3.2295 -3.3715 -6.4475 0 
-3.292 -5.193 -6.920001 -5.3995 -4.8485 -8.255501 -7.2045 -9.9645 -7.906501 -6.7635 -2.9195 -4.712 -6.8735 -7.7275 -7.2045 -10.3225 -8.405001 -6.112 -3.1695 -6.516001 -8.2775 -6.159 -6.762001 -7.145501 -7.8645 -6.0495 -8.287001 -6.4475 
-6.011 -7.1365 -7.2415 -7.842501 -10.1595 -10.5745 -12.1198 -13.487 -9.324501 -7.166501 -6.008 -7.318501 -12.6915 -10.468 -12.4778 -13.9395 -8.530001 -6.4995 -8.327001 -10.092 -9.975 -11.7167 -8.120001 -10.443 -11.1637 -9.6855 -8.287001 
-7.29 -7.393001 -9.752001 -13.2755 -12.4785 -15.4898 -15.6423 -14.905 -9.427001 -8.552001 -8.635501 -13.4101 -15.432 -15.7413 -16.0948 -14.0645 -8.9265 -10.4855 -12.2352 -11.9149 -15.8249 -13.0747 -11.5727 -13.7422 -14.7997 -9.6855 
-7.397 -9.989 -15.2326 -15.5945 -17.3938 -19.0123 -17.0603 -15.0075 -11.3765 -11.5713 -14.9787 -16.1506 -20.7053 -19.3583 -16.2198 -14.461 -13.0043 -14.8455 -14.0581 -17.7648 -17.1829 -16.5274 -14.8719 -17.3782 -14.7997 
-2.5045 -1.4985 -3.486 -2.95 0 -4.2285 -4.1115 -5.572 -2.4945 -4.5485 -3.851 -1.7695 -1.4985 -5.869 -4.348 -1.7565 -4.8925 -1.4985 -3.681 -3.9785 -3.277 -5.842 -2.9905 0 
-3.1915 -3.5655 -4.563 -2.95 -4.2285 -5.7285 -10.368 -7.281 -5.861 -7.747 -4.0015 -2.7955 -6.868 -9.3725 -5.6535 -6.789501 -6.433001 -4.9615 -8.5 -6.6525 -8.9005 -8.325001 -2.9905 
-4.538 -4.577 -4.563 -7.6995 -5.7285 -13 -12.077 -9.026501 -8.611501 -7.755 -4.5775 -8.222 -10.2695 -10.6958 -11.5101 -8.320001 -10.396 -10.5573 -10.6605 -12.774 -11.5219 -8.325001 
-4.615 -4.577 -8.9505 -9.2685 -13 -14.709 -13.8225 -12.0322 -8.617001 -8.172 -9.2805 -11.8219 -11.5928 -16.5524 -13.0406 -12.3516 -15.9918 -12.7178 -16.782 -15.3954 -11.5219 
-4.615 -8.955501 -10.6541 -16.7462 -14.709 -16.4545 -16.8282 -12.0377 -9.0635 -12.9628 -13.2578 -13.1452 -17.4494 -18.0829 -17.0722 -17.9474 -18.1523 -18.8393 -19.4034 -15.3954 
-3.486 -3.5215 0 -4.8155 -4.2995 -4.6205 -5.3085 -1.934 -3.45 -4.418 0 
-7.2405 -3.5215 -4.8155 -9.617001 -8.1785 -9.495501 -6.8945 -5.009 -6.7665 -4.418 
-7.2405 -9.623501 -9.617001 -13.5946 -13.1849 -11.4941 -10.1945 -7.139 -6.7665 
-13.9107 -14.5682 -13.5946 -18.601 -15.1835 -14.7941 -12.5683 -7.139 
-18.8554 -18.5458 -18.601 -20.5996 -18.4835 -17.1679 -12.5683 
-3.486 -2.95 -4.1325 -1.7565 -3.952 -5.0005 -1.756 -2.9905 -1.7565 -3.737 -4.834 0 
-4.563 -8.670501 -5.706 -6.7935 -9.528501 -6.1305 -5.002501 -3.6185 -5.1295 -10.513 -4.834 
-9.691501 -9.636001 -10.609 -12.6538 -10.515 -9.496 -5.2775 -7.555 -12.2265 -10.513 
-10.2615 -14.736 -16.4693 -13.6403 -13.8805 -10.224 -9.801001 -14.9012 -12.2265 
-16.0175 -20.5963 -17.4558 -17.0058 -14.6085 -14.8127 -17.2716 -14.9012 
