-4.759 
n/a 
n/a 
n/a 
n/a 
-4.759 
n/a 
n/a 
n/a 
n/a 
-4.759 
n/a 
n/a 
n/a 
n/a 
-4.759 
n/a 
n/a 
n/a 
n/a 
-8.004001 -2.674 -3.8935 -3.8735 -3.5435 -2.229 -3.4075 -3.9795 -2.0935 -3.7825 -3.5215 0 
-11.345 -5.0995 -9.299001 -7.528 -4.973001 -5.1175 -6.398001 -5.1125 -5.4405 -5.558001 -3.5215 
-13.7705 -10.7595 -13.3663 -9.5555 -7.153501 -8.215 -7.051001 -8.661501 -8.155001 -5.558001 
-19.4305 -14.8268 -15.3938 -11.8546 -10.316 -8.599 -10.9688 -11.9238 -8.155001 
-23.4978 -16.8543 -17.6929 -15.0171 -10.392 -12.9674 -14.2311 -11.9238 
-8.004001 -3.7555 -3.7825 -3.5215 -4.1865 -3.4075 -3.9795 -2.0935 -3.3195 0 
-12.4265 -6.9775 -5.558001 -7.8735 -6.714 -6.398001 -5.1125 -5.596 -3.3195 
-15.6485 -9.217 -10.66 -10.0345 -9.6635 -7.051001 -8.208501 -5.596 
-17.888 -14.9248 -13.4364 -13.6972 -9.9375 -10.485 -8.208501 
-23.5958 -17.7012 -17.0991 -13.9712 -13.9353 -10.485 
-3.0415 -3.9135 0 -7.4445 -3.7555 -3.4075 -3.9795 -3.7825 -3.5215 0 
-4.52 -3.9135 -7.4445 -12.0278 -8.131001 -6.398001 -7.696001 -5.558001 -3.5215 
-4.52 -12.473 -12.0278 -16.4033 -9.8675 -10.335 -8.274501 -5.558001 
-13.1437 -17.0563 -16.4033 -18.1398 -14.0987 -10.9135 -8.274501 
-17.727 -21.4318 -18.1398 -22.371 -14.6772 -10.9135 
-8.004001 0 -3.7555 -3.7825 -3.5215 -3.9795 -2.0935 -4.96 -4.1865 -3.4075 -8.103001 -3.3195 0 
-8.004001 -3.7555 -6.9775 -5.558001 -8.036 -5.1125 -8.2535 -10.27 -6.714 -14.0265 -12.2135 -3.3195 
-12.4265 -6.9775 -9.217 -10.2085 -8.7235 -12.0403 -13.5221 -12.7975 -18.6948 -18.0134 -12.4637 
-15.6485 -9.217 -14.4733 -11.5486 -16.0371 -17.3089 -16.0496 -24.7783 -22.3435 -18.0134 
-17.888 -14.4733 -15.8134 -18.8622 -21.3057 -19.8364 -28.0304 -28.427 -22.3435 
