-4.759 
n/a 
n/a 
n/a 
n/a 
-4.759 
n/a 
n/a 
n/a 
n/a 
-4.759 
n/a 
n/a 
n/a 
n/a 
-4.759 
n/a 
n/a 
n/a 
n/a 
-4.468 0 -7.205 -5.7275 -9.9265 0 -5.1645 0 
-4.468 -7.205 -10.7495 -16.2294 -9.9265 -5.1645 -5.1645 
-12.0406 -10.7495 -21.2514 -16.2294 -15.2004 -5.1645 
-15.5851 -21.2514 -21.2514 -21.5033 -15.2004 
-26.087 -21.2514 -26.5253 -21.5033 
-4.468 0 -7.205 -5.7275 -7.72 0 -5.1645 0 
-4.468 -7.205 -10.7495 -14.0229 -7.72 -5.1645 -5.1645 
-12.0406 -10.7495 -19.0449 -14.0229 -10.4115 -5.1645 
-15.5851 -19.0449 -19.0449 -16.7144 -10.4115 
-23.8805 -19.0449 -21.7364 -16.7144 
-4.468 0 -7.14 -5.7275 -9.1 0 -5.1645 0 
-4.468 -7.14 -13.2459 -15.4029 -9.1 -5.1645 -5.1645 
-11.9756 -13.2459 -22.9213 -15.4029 -14.5455 -5.1645 
-18.0815 -22.9213 -22.9213 -20.8484 -14.5455 
-27.7569 -22.9213 -28.3668 -20.8484 
-4.468 0 -5.5765 -5.899 -10.9935 0 -5.1645 0 
-4.468 -5.5765 -10.575 -17.3981 -10.9935 -5.1645 -5.1645 
-10.4121 -10.575 -22.0741 -17.3981 -16.158 -5.1645 
-15.4106 -22.0741 -22.0741 -22.5626 -16.158 
-26.9097 -22.0741 -27.2386 -22.5626 
