-4.759 
n/a 
n/a 
n/a 
n/a 
-4.759 
n/a 
n/a 
n/a 
n/a 
-4.759 
n/a 
n/a 
n/a 
n/a 
-4.759 
n/a 
n/a 
n/a 
n/a 
-1.4985 -5.015 -5.3225 -1.756 -3.845 -2.5195 -1.4985 -3.7075 -4.993 -1.4985 -3.995 -2.356 -3.4155 -4.8935 0 -3.0415 -2.4265 -2.186 -10.1015 -1.934 -3.6835 -4.156 -2.5045 -4.215 -4.577 
-6.094 -9.068501 -6.8835 -5.366 -6.885 -3.1695 -4.6235 -8.04 -5.7885 -4.712 -6.308001 -5.218 -7.616 -4.8935 -3.0415 -4.551 -3.292 -13.4979 -12.3129 -5.1975 -6.467 -6.620501 -7.05 -7.2405 
-10.3745 -10.3415 -8.279 -8.114 -7.66 -5.905 -8.0985 -8.612 -7.9055 -6.722501 -8.7915 -7.934501 -7.616 -7.834001 -4.551 -5.318 -15.0759 -15.7093 -15.5764 -8.724001 -8.359501 -10.543 -10.733 
-11.6475 -11.737 -11.365 -8.746 -10.476 -9.056001 -8.666 -9.2985 -10.503 -9.071501 -11.846 -7.934501 -10.071 -9.236 -5.318 -17.5149 -17.2873 -18.9728 -19.1029 -11.0715 -12.4846 -14.226 
-13.043 -14.823 -11.997 -11.6182 -13.627 -9.29 -9.307 -12.035 -12.852 -12.3234 -11.846 -10.3745 -11.518 -9.923 -17.5149 -19.7263 -20.5508 -22.4993 -21.4504 -15.1966 -16.1676 
-2.5045 -1.4985 -5.34 -4.983 -3.7875 -1.4985 -3.93 -5.175 -4.983 -3.115 -8.061501 -1.756 -3.845 -5.68 -1.934 -3.599 0 -2.4265 -4.1675 -2.5045 -4.215 -4.577 -1.7695 -3.6835 -4.156 
-3.583 -6.2865 -9.077001 -8.420501 -5.007 -5.065001 -6.485001 -11.136 -8.265 -11.1165 -9.628501 -5.366 -10.4855 -6.715 -5.715 -3.599 -2.4265 -4.8995 -6.002 -7.05 -7.2405 -6.4185 -5.4475 -6.467 
-8.1195 -9.814501 -12.6107 -9.523001 -8.095 -7.637 -13.1102 -14.418 -16.4203 -12.6835 -13.4031 -12.4515 -11.5205 -8.484501 -5.715 -6.3595 -4.8995 -6.3215 -10.749 -10.733 -9.0175 -10.5325 -8.6905 
-11.7955 -13.3844 -13.7132 -12.7848 -10.937 -14.7362 -16.3922 -22.5733 -17.9873 -16.4581 -20.4886 -13.4865 -13.29 -8.484501 -8.0965 -8.740001 -6.3215 -11.7651 -14.432 -12.51 -13.2321 -13.7755 
-15.3654 -14.4869 -16.975 -15.6268 -18.0362 -18.0182 -24.5475 -24.1403 -21.7619 -23.5436 -21.5236 -15.256 -13.29 -10.467 -10.7698 -10.051 -11.7651 -15.4481 -16.209 -16.7246 -16.4751 
-3.5065 -1.4985 -12.282 -1.7565 -1.4985 -3.845 -1.756 -5.3225 -5.015 0 -1.934 -1.4985 -3.7075 -2.229 -4.669 -2.4945 -3.469 0 -1.4985 -6.433 -2.186 -4.3905 -1.756 -4.1675 -3.115 -4.215 -3.684 -2.0935 -3.6835 -4.2725 0 
-4.358 -11.6725 -11.0985 -2.4195 -4.987 -5.4685 -6.831 -9.133 -5.015 -1.934 -2.6125 -4.6235 -5.5255 -7.1765 -7.025001 -6.026 -3.469 -1.4985 -7.335501 -7.8765 -5.6375 -6.1935 -5.766 -4.664 -7.428 -6.759 -5.9795 -5.189 -7.121 -4.2725 
-15.1125 -12.923 -12.0495 -5.7735 -6.5655 -7.936501 -9.699 -9.133 -6.608 -2.6125 -5.5835 -5.9985 -8.665001 -9.803 -10.1855 -6.026 -5.626 -7.335501 -9.158501 -11.5554 -6.942 -10.6215 -6.6175 -9.1255 -9.908001 -8.828 -9.955501 -8.4515 -7.121 
-15.9334 -13.874 -15.4215 -7.2795 -9.02 -10.4265 -9.699 -10.75 -7.186501 -5.5835 -7.3275 -8.729001 -10.76 -13.0139 -10.1855 -7.979 -11.716 -9.158501 -12.8536 -12.8599 -11.5682 -11.473 -11.4812 -11.6583 -12.0604 -12.8884 -10.7635 -8.4515 
-16.8844 -17.246 -16.9275 -10.0675 -11.703 -10.4265 -11.382 -11.3285 -9.798501 -7.3275 -9.312 -10.867 -13.9709 -13.0139 -12.2359 -14.3 -13.539 -12.8536 -14.1581 -17.4861 -12.4197 -16.3367 -14.014 -13.8107 -16.1208 -13.6964 -10.7635 
-3.5065 -1.4985 -4.4845 -5.2365 -1.7565 -1.4985 -5.3225 -1.756 -1.4985 -3.845 -4.577 -4.983 -2.5195 -1.4985 -3.7075 -4.983 -2.4945 -4.232 0 -1.4985 -5.4675 -1.7565 -3.7805 -4.4995 -1.756 -1.4985 -5.855 -4.098 -4.911 -1.756 -4.305 -1.7695 -2.489 -1.934 -4.215 -4.577 0 
-4.358 -5.624001 -7.551001 -6.028 -2.4195 -6.748501 -6.8835 -3.0405 -4.987 -6.9905 -9.039001 -6.811501 -3.1695 -4.6235 -7.178 -6.5395 -6.283 -4.232 -1.4985 -6.537001 -6.6 -5.09 -9.063001 -6.277 -3.0405 -7.148001 -10.287 -8.8995 -6.764501 -6.096 -4.8245 -3.1405 -4.348 -6.0435 -7.2405 -4.577 
-8.379001 -8.596001 -8.4005 -6.718 -7.733001 -8.345501 -8.194 -6.4585 -7.549 -11.9467 -10.2865 -7.275001 -5.905 -7.854001 -8.748501 -10.523 -6.283 -6.169001 -6.537001 -7.271501 -7.679 -9.822001 -11.0235 -7.369 -8.7275 -12.0874 -15.3395 -10.0965 -11.6163 -6.504 -5.068 -4.8625 -8.813001 -9.043 -7.2405 
-11.6064 -8.969001 -9.054501 -12.5251 -9.425 -8.908001 -10.0345 -9.2585 -13.19 -13.1942 -11.967 -7.778 -9.1885 -9.0825 -12.8298 -10.523 -8.2135 -10.3345 -7.271501 -8.246 -13.0686 -12.0019 -12.1155 -13.2976 -13.7691 -17.1399 -16.5365 -15.1655 -12.0243 -6.787 -6.584001 -9.408001 -11.9011 -9.043 
-11.9794 -9.381001 -15.0912 -14.2171 -10.182 -10.7025 -13.2761 -14.7899 -14.4375 -14.8747 -12.47 -11.3239 -10.5746 -13.1764 -12.8298 -12.4535 -12.464 -11.069 -8.246 -13.9028 -15.2485 -13.0939 -18.0441 -18.3392 -18.8216 -18.3369 -21.6055 -15.5735 -12.3073 -8.243501 -11.6279 -12.5881 -11.9011 
