-4.759 
n/a 
n/a 
n/a 
n/a 
-4.759 
n/a 
n/a 
n/a 
n/a 
-4.759 
n/a 
n/a 
n/a 
n/a 
-4.759 
n/a 
n/a 
n/a 
n/a 
-3.524 -2.1715 -9.831 -6.4485 0 -6.557 -4.537 -1.756 -5.9175 -4.681 
-5.049 -12.2461 -16.3397 -6.4485 -6.557 -11.7834 -6.6235 -7.987 -9.026501 
-16.4506 -18.7548 -16.3397 -14.0169 -11.7834 -13.8699 -13.7483 -10.513 
-22.9593 -18.7548 -23.9081 -19.2433 -13.8699 -20.9947 -16.2743 
-22.9593 -26.3232 -29.1345 -21.3298 -20.9947 -23.5207 
-3.524 -2.1715 0 -8.5725 -7.6495 0 -5.1845 -4.6035 0 -3.8195 -4.681 
-5.049 -2.1715 -8.5725 -10.2235 -7.6495 -5.1845 -9.035 -4.6035 -3.8195 -7.058001 
-5.049 -10.9876 -10.2235 -10.2235 -10.718 -9.035 -9.035 -6.604001 -7.058001 
-15.1921 -12.6386 -10.2235 -13.292 -14.5685 -9.035 -10.4855 -10.0003 
-16.8431 -12.6386 -13.292 -17.1425 -14.5685 -10.4855 -14.2408 
-3.524 -2.1715 0 -8.5725 -6.4485 0 -6.557 -4.6035 0 -3.8195 -4.681 
-5.049 -2.1715 -8.5725 -9.933001 -6.4485 -6.557 -10.958 -4.6035 -3.8195 -7.058001 
-5.049 -10.9876 -9.933001 -9.933001 -14.0169 -10.958 -10.958 -6.604001 -7.058001 
-15.1921 -12.3481 -9.933001 -17.6676 -18.4179 -10.958 -12.9585 -10.0003 
-16.5526 -12.3481 -17.6676 -22.0686 -18.4179 -12.9585 -16.3548 
-3.524 -10.744 -7.6495 0 -5.1845 -4.6035 0 -4.6695 -4.0915 
-13.8651 -12.6386 -7.6495 -5.1845 -9.035 -4.6035 -4.6695 -8.68 
-16.8431 -12.6386 -10.718 -9.035 -9.035 -8.5845 -8.68 
-16.8431 -15.7071 -14.5685 -9.035 -13.2282 -13.0646 
-19.9116 -19.5576 -14.5685 -13.2282 -17.7083 
