-4.759 
n/a 
n/a 
n/a 
n/a 
-4.759 
n/a 
n/a 
n/a 
n/a 
-4.759 
n/a 
n/a 
n/a 
n/a 
-4.759 
n/a 
n/a 
n/a 
n/a 
-1.934 -4.239 -4.642 -2.9195 -5.434 -3.188 -3.4605 -3.213 -1.8085 -3.8935 -4.676 -3.793 0 
-5.464 -9.182501 -8.8655 -9.6125 -9.478001 -6.7465 -7.0465 -5.5115 -4.6045 -6.8985 -8.904501 -3.793 
-11.0047 -13.5278 -15.7955 -14.1705 -13.6747 -10.259 -8.7775 -8.1485 -7.1695 -11.46 -8.904501 
-15.35 -20.4578 -20.3535 -18.3672 -17.1872 -13.1506 -12.4801 -9.943001 -11.9488 -11.46 
-22.28 -25.0158 -24.5502 -21.8797 -20.0788 -16.8532 -14.2746 -14.9249 -11.9488 
-1.934 -3.5715 -2.7035 0 -4.239 -2.9805 -3.793 -1.8085 -3.815 -4.676 -2.7455 -3.188 -4.0005 -3.16 -3.4105 -2.5045 -1.8085 -2.9195 -3.2795 0 
-5.0835 -5.5965 -2.7035 -4.239 -6.627 -6.3475 -5.6075 -4.6365 -6.2675 -6.801 -6.2925 -4.969501 -5.2365 -6.349 -5.5335 -3.913 -5.252 -5.8075 -3.2795 
-8.3765 -5.5965 -6.690001 -6.627 -8.936501 -7.101 -7.7475 -6.2865 -8.642 -10.834 -7.896 -5.246 -8.463501 -8.705 -6.9275 -6.5205 -7.772 -5.8075 
-8.3765 -8.49 -9.4945 -8.936501 -9.1835 -8.743 -10.0611 -8.722 -12.8788 -12.4375 -8.5965 -8.469501 -10.4845 -10.435 -9.622001 -10.0885 -7.772 
-11.1602 -10.2485 -12.081 -9.1835 -11.5639 -11.5242 -12.4966 -13.0202 -14.4823 -13.138 -12.3382 -10.485 -12.5701 -13.1295 -13.141 -10.0885 
-2.9805 -2.8645 -10.6645 -3.815 -3.6595 -2.7455 -1.4985 -3.188 -4.0005 -3.16 -4.4925 -1.934 -1.4985 -9.777 -3.5715 -4.642 
-4.3245 -15.132 -14.4795 -6.746 -5.848001 -3.637 -3.619 -4.969501 -5.2365 -9.179 -6.011001 -2.6125 -10.647 -13.4499 -6.4055 
-17.1484 -18.947 -17.4105 -8.1385 -6.75 -5.988 -5.421 -5.246 -11.7813 -10.661 -6.652 -10.76 -14.3199 -16.2839 
-20.9634 -21.878 -18.803 -8.764001 -10.007 -7.9015 -5.466 -11.9058 -13.2633 -11.302 -15.1907 -14.4329 -17.1539 
-23.8944 -23.2705 -19.4285 -12.1072 -10.4475 -8.0305 -12.5024 -13.3878 -13.9043 -19.8407 -18.8636 -17.2669 
-1.934 -4.239 -3.5715 -3.6905 -2.7035 -3.193 -2.9805 -2.229 -2.9195 -3.515 -3.188 -4.0005 -3.16 -3.213 -3.6205 -2.7455 -3.815 -4.1965 -4.298 0 
-5.464 -7.689 -7.942 -6.083 -6.2015 -5.6515 -4.2145 -5.039001 -5.642 -6.9085 -4.969501 -5.2365 -6.904 -5.9355 -6.8435 -7.0285 -8.862 -9.686001 -4.298 
-9.903501 -12.3173 -11.0361 -8.239 -10.7175 -7.062 -9.040501 -7.957001 -10.27 -8.9515 -5.246 -8.970501 -10.0391 -9.526501 -11.6823 -12.7105 -14.5413 -9.686001 
-14.5318 -15.4114 -13.1921 -14.0604 -12.128 -12.1138 -12.4581 -13.4498 -12.313 -10.0545 -9.069 -12.4108 -13.6301 -14.5737 -17.3643 -18.3898 -14.5413 
-17.6259 -17.5674 -19.0135 -15.4709 -17.1798 -15.5314 -17.9509 -15.4928 -13.416 -14.0035 -12.5937 -16.0018 -18.6773 -20.2557 -23.0436 -18.3898 
