-4.759 
n/a 
n/a 
n/a 
n/a 
-4.759 
n/a 
n/a 
n/a 
n/a 
-4.759 
n/a 
n/a 
n/a 
n/a 
-4.759 
n/a 
n/a 
n/a 
n/a 
-2.543 -1.7695 -2.7035 -16.30922 
-5.0895 -4.9755 -20.52962 
-6.035 -22.36862 
-24.16542 
n/a 
-2.543 -2.5195 -2.7035 -9.979 0 -12.16972 
-5.7545 -5.3855 -12.8545 -9.979 -12.16972 
-7.943001 -16.6533 -12.8545 -22.19052 
-19.5476 -16.6533 -25.06602 
-19.5476 -28.86482 
-12.16972 -2.186 -2.543 -1.7695 -2.5645 -4.1395 
-14.35572 -5.592 -5.0895 -4.707 -7.042001 
-17.76172 -7.245501 -6.192501 -8.661501 
-19.41522 -8.245501 -10.5225 
-20.41522 -12.8529 
-2.543 -1.7695 -2.7035 -4.903 -2.186 -3.849 0 -12.16972 
-5.0895 -4.9755 -8.003 -6.658501 -4.8565 -3.849 -12.16972 
-6.035 -11.0952 -10.485 -10.4425 -4.8565 -16.17932 
-12.4207 -13.5772 -14.269 -10.4425 -17.46782 
-14.9027 -17.3612 -14.269 -23.05382 
