-4.759 
n/a 
n/a 
n/a 
n/a 
-4.759 
n/a 
n/a 
n/a 
n/a 
-4.759 
n/a 
n/a 
n/a 
n/a 
-4.759 
n/a 
n/a 
n/a 
n/a 
-1.4985 -4.3955 -1.7565 -7.093 -2.186 -3.4625 -5.392 -2.4285 -3.4625 -4.7075 0 
-4.95 -4.9015 -9.274 -9.400001 -4.4835 -7.3715 -7.6775 -5.854 -6.3145 -4.7075 
-5.049 -12.8098 -11.6668 -11.8303 -8.250501 -9.2895 -11.845 -8.824 -6.3145 
-13.4013 -15.2026 -14.0971 -15.5973 -10.0095 -13.4814 -14.815 -8.824 
-15.7941 -17.6329 -17.8641 -17.3563 -14.2536 -16.4514 -14.815 
-1.4985 -3.8235 -6.6565 -2.8645 -1.4985 -4.3955 -1.7565 -5.392 -2.4285 -5.987 0 
-4.53 -10.9075 -9.3675 -4.3545 -4.95 -4.9015 -7.662001 -7.6775 -8.39 -5.987 
-11.7668 -13.6185 -10.8809 -6.1745 -5.049 -10.7175 -9.700001 -14.381 -8.39 
-14.4778 -15.1319 -12.7009 -7.8165 -11.309 -12.7555 -16.9023 -14.381 
-15.9912 -16.9519 -14.3429 -14.1895 -13.347 -19.9578 -16.9023 
-7.093 -3.757 -3.264 -2.4285 -4.8275 
-11.407 -6.3475 -6.364 -7.286 
-13.9975 -9.972 -10.7175 
-17.622 -14.8489 
-22.4989 
-1.4985 -3.8235 -6.178 -5.3285 -1.8085 -3.9845 -2.3335 -2.186 -3.7855 -2.4285 -1.8085 -4.0905 -2.3335 -2.186 -5.392 
-4.53 -10.135 -12.2191 -6.112 -7.488 -6.193501 -3.7085 -4.9225 -6.2655 -4.126 -5.2585 -5.916 -3.7085 -6.925 
-10.3345 -16.1761 -13.0026 -12.5527 -9.483 -7.279 -6.6635 -7.0375 -7.9425 -7.634501 -6.425 -7.122001 -8.3175 
-16.3756 -16.9596 -19.4433 -14.5477 -10.7345 -8.563001 -8.780001 -8.3455 -11.9836 -8.756001 -7.6415 -8.864501 
-17.1591 -23.4003 -21.4383 -15.7992 -12.0185 -10.1765 -9.184001 -12.9178 -13.1051 -9.932501 -9.4055 
