-4.759 
n/a 
n/a 
n/a 
n/a 
-4.759 
n/a 
n/a 
n/a 
n/a 
-4.759 
n/a 
n/a 
n/a 
n/a 
-4.759 
n/a 
n/a 
n/a 
n/a 
-3.922 -1.4985 -5.0295 -3.4905 0 
-4.7665 -6.0815 -6.3955 -3.4905 
-8.9575 -8.2985 -6.3955 
-9.095 -8.2985 
-9.095 
-4.299 -1.7695 -3.922 -1.4985 -5.409 -4.174 -2.186 -1.7695 -3.922 -1.4985 -7.2175 0 
-4.783 -4.5985 -4.7665 -6.511001 -6.725501 -5.962501 -3.8745 -4.5985 -4.7665 -8.944501 -7.2175 
-6.833001 -5.177001 -9.25 -8.135 -8.229 -8.2925 -6.1385 -5.177001 -13.2091 -8.944501 
-7.359001 -9.616 -9.5255 -9.0065 -10.396 -9.989 -6.486001 -13.706 -13.2091 
-12.1 -9.772501 -10.4568 -11.3743 -12.0925 -10.614 -15.2342 -13.706 
-6.2775 -1.4985 -5.0295 -3.757 -3.2345 -3.6135 -1.4985 -5.0295 
-6.8095 -6.0815 -9.231001 -7.607 -6.3935 -6.345 -6.0815 
-8.6805 -10.0575 -13.2034 -9.786501 -9.953501 -10.0885 
-13.0267 -14.1189 -15.3829 -15.0559 -13.697 
-17.0881 -16.2984 -20.6523 -18.7994 
-5.0295 -5.3285 -2.186 -1.8085 -3.7075 -1.7565 -4.0955 -1.7695 -4.673 -1.4985 -3.4905 -1.7565 -1.4985 -5.0295 0 
-5.733 -7.3855 -3.164 -4.8725 -4.51 -5.675 -4.1555 -5.0455 -6.099 -4.7085 -4.601 -2.4195 -6.0815 -5.0295 
-8.136 -8.351001 -6.2625 -5.4405 -8.3345 -5.761 -8.636001 -6.304 -8.127001 -4.841 -4.9845 -6.5975 -6.0815 
-9.1825 -11.7319 -6.6375 -9.1155 -8.4325 -10.426 -9.144 -8.4145 -8.1855 -5.1115 -8.212501 -6.5975 
-12.6904 -12.1069 -9.771501 -9.287001 -13.2313 -10.7725 -11.3355 -8.455001 -8.460501 -8.3125 -8.212501 
