-4.759 
n/a 
n/a 
n/a 
n/a 
-4.759 
n/a 
n/a 
n/a 
n/a 
-4.759 
n/a 
n/a 
n/a 
n/a 
-4.759 
n/a 
n/a 
n/a 
n/a 
-2.5045 -1.4985 -3.486 -3.8405 -7.149 -3.4605 -4.2485 -3.584 -2.985 -3.09 0 
-3.583 -3.5655 -5.469 -11.122 -7.984 -7.9605 -8.040501 -6.201 -5.773 -3.09 
-6.26 -5.5015 -13.2583 -15.5955 -15.0095 -12.2489 -10.2925 -9.679001 -5.773 
-9.036501 -13.3378 -17.7318 -20.8705 -19.2979 -14.5009 -13.7705 -9.679001 
-17.4038 -17.8113 -23.0068 -25.1589 -21.5499 -17.9789 -13.7705 
-4.067 -1.4985 -3.486 -2.95 -7.5485 -3.074 -3.9535 -4.0515 -2.985 -3.09 
-5.852 -3.5655 -4.563 -11.478 -11.9615 -6.3685 -7.5645 -6.732501 -5.773 
-6.233 -4.577 -14.1073 -15.814 -16.1532 -9.0555 -9.703501 -8.0935 
-7.693501 -14.2666 -17.9333 -19.7335 -18.861 -11.2115 -10.76 
-17.6453 -17.9354 -21.8528 -22.4413 -21.017 -12.268 
-3.3715 -4.269 -3.486 -2.95 -3.584 -1.8085 -3.5025 -3.213 -3.09 -7.149 
-6.6505 -6.529 -4.563 -6.422 -4.729 -6.54 -6.4255 -6.614 -9.130001 
-9.458301 -10.7335 -8.383 -8.285501 -8.451 -10.354 -11.0197 -13.9686 
-13.6628 -14.5535 -9.332001 -12.1961 -13.2868 -15.1528 -18.3743 
-17.4828 -15.5025 -13.3118 -17.0319 -18.0856 -22.5074 
-3.6215 -2.3615 -3.486 -3.8405 0 -10.8945 -3.251 -3.9535 -2.985 -3.4605 -3.1335 0 
-5.619 -5.568501 -5.469 -3.8405 -9.5975 -13.849 -6.0795 -6.503 -5.478 -6.62 -3.1335 
-7.9275 -7.054 -5.469 -14.4404 -13.9688 -17.0968 -8.160501 -9.723001 -9.526001 -6.62 
-9.476001 -7.054 -16.5767 -18.8117 -17.0968 -19.1778 -11.4299 -13.8308 -9.526001 
-9.476001 -17.9437 -20.948 -21.9397 -19.1778 -22.4472 -15.5377 -13.8308 
