-4.759 
n/a 
n/a 
n/a 
n/a 
-4.759 
n/a 
n/a 
n/a 
n/a 
-4.759 
n/a 
n/a 
n/a 
n/a 
-4.759 
n/a 
n/a 
n/a 
n/a 
-5.1845 -3.9675 -1.934 -3.502 -4.317 -3.959 
-8.286 -5.608 -4.8155 -5.926 -6.091001 
-9.598001 -8.036501 -7.344501 -7.349 
-12.0849 -9.630501 -8.314 
-13.6789 -11.2134 
-1.934 -6.8795 -3.959 -5.1845 -3.9675 
-9.304001 -9.97 -9.734 -8.286 
-12.6139 -15.745 -13.1179 
-18.3889 -19.1289 
-21.7728 
-5.1845 -3.9675 -1.934 -3.502 -3.75 -3.994 
-8.286 -5.608 -4.8155 -5.0795 -5.276 
-9.598001 -8.036501 -6.192 -5.751 
-12.0849 -9.071 -6.617001 
-13.1194 -9.772501 
-5.1845 -5.2145 -1.934 -3.502 -3.75 -3.994 
-9.452001 -6.732501 -4.8155 -5.0795 -5.276 
-11.0848 -9.147501 -6.192 -5.751 
-13.4998 -10.427 -6.617001 
-14.7793 -10.5565 
