-4.759 
n/a 
n/a 
n/a 
n/a 
-4.759 
n/a 
n/a 
n/a 
n/a 
-4.759 
n/a 
n/a 
n/a 
n/a 
-4.759 
n/a 
n/a 
n/a 
n/a 
-2.9805 -4.8465 -2.264 -4.8835 -3.723 -3.098 0 
-6.084001 -7.161 -7.2805 -8.847 -7.3395 -3.098 
-8.773001 -12.5387 -11.8046 -12.6941 -7.3395 
-14.5999 -17.0628 -15.6517 -12.6941 
-19.124 -20.9099 -15.6517 
-3.0415 -2.9805 -4.8465 -4.732 -4.8835 -3.723 -3.098 
-5.0885 -6.084001 -8.714001 -9.9305 -8.847 -7.3395 
-8.719501 -9.587501 -14.2233 -14.0704 -12.6941 
-12.2806 -15.3426 -18.3632 -17.9175 
-18.0357 -19.4825 -22.2103 
-3.0415 0 -2.9805 -4.8465 -2.925 -1.7695 -4.8835 -3.723 -3.098 0 
-3.0415 -2.9805 -6.084001 -7.876501 -3.71 -6.783 -8.847 -7.3395 -3.098 
-5.0885 -6.084001 -9.281501 -8.245501 -8.052501 -10.298 -12.6941 -7.3395 
-8.719501 -9.281501 -9.658501 -12.9038 -12.1289 -14.1451 -12.6941 
-10.76 -9.658501 -14.3906 -16.9802 -15.976 -14.1451 
-3.0415 0 -2.9805 -3.098 -3.6645 -2.5045 -2.7035 -5.3545 -3.098 
-3.0415 -2.9805 -5.926001 -7.1935 -5.7515 -4.6755 -8.2465 -9.3195 
-5.0885 -5.926001 -10.688 -9.203 -8.625501 -11.6009 -12.6905 
-8.003 -10.688 -12.6975 -12.3918 -16.0719 -16.0449 
-12.9506 -12.6975 -15.8863 -19.8382 -20.5159 
