-4.759 
n/a 
n/a 
n/a 
n/a 
-4.759 
n/a 
n/a 
n/a 
n/a 
-4.759 
n/a 
n/a 
n/a 
n/a 
-4.759 
n/a 
n/a 
n/a 
n/a 
-6.6175 -2.4945 -5.871 -4.121 -5.835001 -1.934 -3.8735 0 
-8.137501 -9.844501 -9.739 -7.6595 -7.355501 -4.885 -3.8735 
-15.9817 -13.8109 -10.406 -8.844501 -10.1185 -4.885 
-19.9481 -14.4779 -11.591 -10.2045 -10.1185 
-20.6151 -15.6629 -12.951 -10.2045 
-3.5085 -3.264 -1.7565 -4.9325 -4.121 -5.0485 -2.229 -1.934 -3.8735 -2.186 -5.871 0 
-4.98 -3.6125 -6.593 -8.894501 -6.243001 -7.6175 -4.573 -4.885 -5.949 -9.445001 -5.871 
-5.0055 -8.906 -11.4052 -9.161 -8.708501 -9.8585 -7.741 -6.6635 -13.7218 -9.445001 
-10.3885 -13.9214 -11.6717 -12.1049 -10.7495 -13.0775 -9.948 -14.5055 -13.7218 
-15.5607 -14.1879 -14.6156 -14.1459 -13.9685 -15.2845 -17.79 -14.5055 
-4.1865 -4.9225 -4.3845 -1.7695 -2.664 -4.121 -5.0485 -2.186 -9.962501 -2.664 -5.871 0 
-7.620501 -9.0065 -5.2635 -4.185 -8.582001 -6.243001 -6.6985 -13.3589 -12.6421 -10.316 -5.871 
-12.1237 -10.0599 -6.7655 -10.4105 -10.7012 -7.434501 -18.2956 -16.0385 -20.2941 -10.316 
-13.1771 -11.5619 -13.9288 -12.5297 -11.8927 -19.6474 -20.9752 -23.6905 -20.2941 
-14.6791 -18.7252 -16.048 -13.7212 -24.1056 -22.327 -28.6272 -23.6905 
-4.121 -5.0485 -3.6885 -2.186 -3.5085 -3.264 -5.871 -1.934 -3.8735 0 
-6.243001 -7.966001 -5.4995 -6.4515 -4.98 -8.940001 -8.138 -4.885 -3.8735 
-8.078001 -9.528 -10.1385 -7.7725 -12.2932 -11.3324 -11.2076 -4.885 
-9.790001 -14.2532 -11.6463 -15.7371 -14.6856 -14.402 -11.2076 
-14.4774 -15.761 -19.6109 -18.1295 -17.7552 -14.402 
