-4.759 
n/a 
n/a 
n/a 
n/a 
-4.759 
n/a 
n/a 
n/a 
n/a 
-4.759 
n/a 
n/a 
n/a 
n/a 
-4.759 
n/a 
n/a 
n/a 
n/a 
-6.929 -7.5985 -8.316 -1.756 -6.929 -9.236501 
-15.3695 -16.5375 -9.8655 -8.6355 -17.0075 
-24.3085 -18.087 -16.745 -18.8992 
-25.858 -24.9665 -27.0087 
-32.7375 -35.2302 
-8.253 -8.563001 -8.316 0 -8.253 -8.563001 
-17.3602 -17.292 -8.316 -8.253 -17.3602 
-26.0892 -17.292 -16.9092 -17.3602 
-26.0892 -25.8852 -26.0164 
-34.6824 -34.9924 
-8.253 -7.4045 -6.598001 0 -8.253 -8.563001 
-11.08 -14.6171 -6.598001 -8.253 -17.3602 
-18.2926 -14.6171 -15.3864 -17.3602 
-18.2926 -23.4055 -24.4936 
-27.081 -32.5127 
-8.253 -8.0655 -8.316 0 -8.253 -9.028501 0 
-16.8627 -16.7891 -8.316 -8.253 -17.8257 -9.028501 
-25.5863 -16.7891 -16.9092 -17.8257 -17.8257 
-25.5863 -25.3823 -26.4819 -17.8257 
-34.1795 -34.955 -26.4819 
