-4.759 
n/a 
n/a 
n/a 
n/a 
-4.759 
n/a 
n/a 
n/a 
n/a 
-4.759 
n/a 
n/a 
n/a 
n/a 
-4.759 
n/a 
n/a 
n/a 
n/a 
-8.5015 -4.743 -8.2605 
-7.1395 -14.137 
-12.966 
n/a 
n/a 
-3.8675 -3.458 -3.8735 -1.756 -4.628 -4.743 0 -4.393 0 
-5.3915 -6.666 -5.3865 -6.51 -4.7515 -4.743 -4.393 -4.393 
-8.358 -6.711 -7.3155 -6.654 -4.7515 -8.624001 -4.393 
-8.3925 -8.153501 -7.32 -6.654 -8.625 -8.624001 
-9.908501 -8.1575 -7.32 -11.0473 -8.625 
-3.8735 -6.6585 -3.8675 0 -4.393 
-8.5365 -11.1415 -3.8675 -4.393 
-13.5079 -11.1415 -8.9775 
-13.5079 -16.2515 
-18.6179 
-3.8735 -6.6585 -3.8675 -4.393 
-8.5365 -11.1415 -8.9775 
-13.5079 -16.2515 
-18.6179 
n/a 
