-4.759 
n/a 
n/a 
n/a 
n/a 
-4.759 
n/a 
n/a 
n/a 
n/a 
-4.759 
n/a 
n/a 
n/a 
n/a 
-4.759 
n/a 
n/a 
n/a 
n/a 
-12.16972 0 -4.597 -1.7695 -6.552001 
-12.16972 -4.597 -6.7755 -9.04 
-16.76672 -6.7755 -14.7006 
-18.94522 -14.7006 
-26.87032 
-12.16972 0 -3.4005 -2.9705 -2.8645 -1.7695 -3.659 
-12.16972 -3.4005 -6.254 -4.6335 -4.4755 -4.3495 
-15.57022 -6.254 -7.7605 -6.528 -7.0445 
-18.42372 -7.7605 -9.7305 -10.031 
-19.93022 -9.7305 -13.0015 
-3.6065 0 -3.781 -4.1085 -3.4005 
-3.6065 -3.781 -9.556 -8.353001 
-6.7815 -9.556 -13.8063 
-13.7297 -13.8063 
-17.98 
-12.16972 -4.1085 -1.7695 -4.9795 -1.4985 -3.4005 
-16.27822 -4.428 -6.272 -6.922501 -5.183001 
-16.59772 -8.856 -7.5705 -11.272 
-21.02572 -10.5001 -12.6754 
-22.66982 -15.605 
