-4.759 
n/a 
n/a 
n/a 
n/a 
-4.759 
n/a 
n/a 
n/a 
n/a 
-4.759 
n/a 
n/a 
n/a 
n/a 
-4.759 
n/a 
n/a 
n/a 
n/a 
-3.9345 -1.7695 -1.4985 -3.4975 -7.978 -2.915 -1.4985 -3.436 -2.925 -4.1 -1.4985 -3.705 0 -1.4985 -3.836 -2.0935 -1.4985 -3.6765 -2.0935 -1.4985 -3.158 -3.0105 -2.186 -8.057501 -4.3515 0 
-3.94 -2.7955 -4.3125 -12.9659 -11.0145 -4.8835 -6.323501 -5.0005 -6.3345 -5.72 -4.925 -3.705 -1.4985 -5.304 -5.498 -2.9725 -4.501 -5.538 -2.9725 -4.178 -5.481501 -5.976 -10.3325 -12.841 -4.3515 
-4.4455 -5.6745 -14.6293 -16.0024 -12.983 -10.2045 -9.067501 -8.937 -7.5605 -7.654001 -4.925 -5.929501 -5.304 -7.508 -5.9665 -6.0825 -6.67 -6.196 -5.128 -6.349501 -7.819 -13.3915 -15.2771 -13.0546 
-6.557 -16.2605 -17.6658 -17.9709 -18.304 -12.9529 -13.1234 -9.9725 -9.550501 -7.654001 -7.290501 -7.9115 -7.508 -7.9705 -9.158001 -8.408501 -7.333 -8.837501 -7.125501 -8.226501 -15.5751 -18.9496 -15.2771 
-18.0382 -19.297 -19.6343 -23.2919 -21.0524 -17.0088 -14.1589 -11.9625 -9.550501 -9.115001 -9.927501 -10.6735 -7.9705 -10.7495 -11.7636 -8.997001 -9.3585 -11.087 -8.7665 -16.0876 -20.9342 -18.9496 
-3.9345 -1.7695 -1.4985 -4.46 0 -1.4985 -3.784 -4.524 -3.836 -3.436 -3.705 -1.934 -3.0105 -2.186 -8.057501 -4.3515 0 
-3.94 -2.7955 -5.446 -4.46 -1.4985 -4.6165 -6.153501 -5.5335 -6.061501 -6.146 -5.9275 -4.827 -5.976 -10.3325 -12.841 -4.3515 
-4.4455 -6.8725 -5.446 -6.461 -4.6165 -6.6225 -6.9575 -8.2605 -7.1855 -7.832 -8.3925 -7.013 -13.3915 -15.2771 -13.0546 
-7.287 -6.8725 -7.3325 -8.6505 -6.6225 -7.683 -9.998 -9.212001 -8.3505 -9.584001 -10.361 -14.7295 -18.9496 -15.2771 
-7.287 -8.543501 -9.532001 -9.4305 -7.683 -11.4023 -10.518 -10.469 -10.7595 -11.6113 -18.0775 -20.0886 -18.9496 
-1.4985 -2.9635 -1.7565 -3.676 -2.229 -4.889 -4.456 0 -1.4985 -2.8195 -3.836 -3.436 -1.4985 -3.705 -8.057501 -4.3515 -1.934 -1.4985 -3.158 -3.0105 
-4.761 -4.6005 -4.4345 -4.593 -7.1125 -9.729 -4.456 -1.4985 -4.524 -6.6765 -6.061501 -4.213 -4.925 -12.164 -12.841 -5.461 -2.6125 -4.178 -5.481501 
-5.786 -7.662 -5.472 -10.8509 -12.3407 -9.729 -6.0895 -4.524 -7.7925 -9.9988 -7.8455 -7.482501 -14.456 -17.7901 -14.1641 -6.601 -5.265 -6.349501 
-9.095 -8.396501 -12.0835 -16.0791 -12.3407 -11.4535 -9.603001 -7.7925 -12.4288 -11.7828 -9.765 -17.6573 -19.8151 -18.8996 -15.3041 -8.6435 -6.8925 
-10.1945 -15.1742 -17.3117 -16.0791 -14.0652 -14.967 -12.9549 -12.4288 -14.2128 -13.7023 -20.1276 -23.0164 -20.9246 -20.0396 -17.3466 -10.375 
-2.5045 -3.543 -1.4985 -3.4975 -5.5 0 -1.4985 -3.836 -3.436 -3.705 -2.7415 -15.47372 
-5.323 -5.62 -4.3125 -9.1085 -5.5 -1.4985 -5.304 -6.061501 -6.146 -6.467 -19.07002 
-5.8685 -8.5105 -9.3105 -9.1085 -7.061001 -5.304 -8.494501 -7.1855 -7.8555 -22.89622 
-9.0775 -13.9439 -9.3105 -11.3317 -11.4095 -8.494501 -9.4195 -9.047001 -23.62832 
-14.5569 -13.9439 -12.0807 -15.6802 -14.6 -9.4195 -10.7505 -25.00322 
