-4.759 
n/a 
n/a 
n/a 
n/a 
-4.759 
n/a 
n/a 
n/a 
n/a 
-4.759 
n/a 
n/a 
n/a 
n/a 
-4.759 
n/a 
n/a 
n/a 
n/a 
-4.359 -4.867 0 -5.1845 -8.2255 
-11.046 -4.867 -5.1845 -14.7044 
-11.046 -11.015 -14.7044 
-17.194 -20.5349 
-26.7139 
-4.1035 -4.867 0 -5.1845 -3.36 
-7.908 -4.867 -5.1845 -8.559 
-7.908 -11.015 -8.559 
-14.8958 -14.3895 
-18.2703 
-3.0835 -4.584 0 -5.1845 -3.5165 
-7.693501 -4.584 -5.1845 -9.186501 
-7.693501 -10.8625 -9.186501 
-14.3356 -14.8645 
-18.3376 
-3.0835 -3.473 -5.1845 -3.36 0 
-6.9355 -8.821 -8.559 -3.36 
-13.0703 -12.7179 -8.559 
-16.9672 -12.7179 
-16.9672 
