-4.759 
n/a 
n/a 
n/a 
n/a 
-4.759 
n/a 
n/a 
n/a 
n/a 
-4.759 
n/a 
n/a 
n/a 
n/a 
-4.759 
n/a 
n/a 
n/a 
n/a 
-1.934 -3.091 -3.882 -7.762001 0 -4.8095 -5.0775 -2.3335 -2.9805 -4.4015 -3.893 -1.4985 -3.8275 -2.264 -3.982 -2.5045 -1.4985 -7.653 -5.0845 
-4.2105 -6.454 -11.136 -7.762001 -4.8095 -8.963501 -5.344 -4.1515 -5.896501 -6.5595 -4.573 -4.726 -5.147 -6.836 -6.693 -3.1915 -9.959001 -13.1039 
-6.8745 -14.4118 -11.136 -13.1369 -8.963501 -9.313001 -7.298501 -7.1735 -8.599501 -7.4885 -8.374001 -5.646 -7.522501 -8.978001 -7.101 -12.111 -15.4099 
-15.4299 -14.4118 -16.5109 -17.2909 -9.313001 -11.3023 -10.7457 -9.989 -9.3385 -11.5363 -9.857 -9.126 -9.3935 -9.484501 -16.5091 -17.5619 
-15.4299 -19.7867 -20.6649 -17.6404 -11.3023 -14.7495 -13.5612 -10.728 -13.4733 -13.0193 -13.3348 -11.5692 -10.0415 -19.1286 -21.96 
-1.934 -3.091 -3.882 -5.216 0 -5.2735 -5.724 -2.3335 -3.982 -1.934 -5.0845 -4.179 -2.4265 -4.532 -1.4985 -3.8275 0 
-4.2105 -6.454 -9.213 -5.216 -5.2735 -10.127 -6.296 -6.815001 -5.9555 -6.3365 -10.647 -5.993501 -6.908 -6.3605 -4.726 -3.8275 
-6.8745 -9.948501 -9.213 -11.2835 -10.127 -10.7565 -10.259 -9.052501 -9.204 -12.3342 -12.4615 -11.453 -9.050501 -9.137 -4.726 
-10.9666 -9.948501 -15.4405 -16.137 -10.7565 -14.7195 -12.4965 -12.4596 -15.2727 -14.1487 -17.921 -13.5955 -11.8362 -9.137 
-10.9666 -16.176 -20.294 -16.7665 -14.7195 -16.957 -15.9036 -18.5283 -17.0872 -19.6082 -20.0635 -16.3812 -11.8362 
-4.8095 -5.0775 -3.982 -4.532 -2.0935 -3.8275 -1.934 -5.0845 -4.179 
-8.963501 -9.832001 -8.887 -5.504 -5.919001 -5.2615 -6.3365 -10.647 
-13.946 -14.9336 -9.857 -9.473001 -7.2485 -9.166 -12.3342 
-19.0476 -15.9036 -13.8938 -10.4685 -11.6014 -15.2953 
-20.0176 -19.9404 -14.8893 -14.8214 -17.7307 
-4.8095 -5.0775 -2.264 -3.091 -4.2925 -5.216 -2.5045 -3.982 -2.7415 -3.845 -1.4985 -3.8275 -2.356 -1.934 -5.0845 -4.179 0 
-8.963501 -7.257 -4.534 -6.507 -9.51 -7.5085 -6.868 -6.608 -6.1715 -5.710001 -4.726 -5.674 -5.342 -6.3365 -10.647 -4.179 
-11.371 -9.162001 -7.6 -12.2813 -11.9983 -12.1296 -8.659 -9.651501 -8.0795 -8.282001 -6.6115 -8.961 -10.634 -12.3342 -10.647 
-13.276 -12.7592 -13.6041 -14.7696 -16.6194 -13.9206 -11.8971 -11.7007 -10.304 -10.467 -10.163 -14.4152 -16.6317 -12.3342 
-16.8732 -18.7633 -16.0924 -19.3907 -18.4104 -17.1587 -13.9463 -13.9252 -12.489 -14.3829 -15.6172 -20.4129 -16.6317 
