-4.759 
n/a 
n/a 
n/a 
n/a 
-4.759 
n/a 
n/a 
n/a 
n/a 
-4.759 
n/a 
n/a 
n/a 
n/a 
-4.759 
n/a 
n/a 
n/a 
n/a 
-1.934 -3.533 0 -2.9805 -4.0875 -3.355 -1.934 -1.4985 -4.219 -2.0935 -1.4985 -4.0105 -3.7445 -2.0935 -1.4985 -3.545 -1.7565 -4.5345 -1.756 -3.966 -2.4265 0 
-5.0615 -3.533 -2.9805 -5.359 -5.7705 -4.8475 -2.6125 -5.129 -6.131001 -2.9725 -4.7015 -7.9725 -5.3205 -2.9725 -4.401 -4.649 -5.167 -5.753 -5.662 -6.0365 -2.4265 
-5.0615 -6.2635 -5.359 -7.087 -5.8455 -5.376 -6.29 -6.937 -6.782001 -6.326 -8.823501 -9.148 -6.0785 -6.3465 -5.098001 -5.232 -6.351501 -9.9975 -7.417 -6.0365 
-6.646 -8.535001 -7.087 -7.136001 -6.1595 -8.033501 -7.877501 -7.545 -9.93 -9.799001 -10.1936 -9.4725 -8.223001 -6.998 -5.6575 -6.374 -10.0275 -11.8343 -7.417 
-8.7745 -9.646501 -7.136001 -7.462501 -8.795501 -9.9125 -8.401501 -10.8054 -13.6316 -11.8827 -10.5181 -12.2946 -9.0555 -7.5305 -6.5105 -10.034 -11.8709 -11.8343 
-1.934 -1.4985 -3.533 -4.219 -2.0935 -3.4975 -3.999 -3.545 -2.9805 -3.966 
-2.6125 -5.5225 -6.7655 -6.131001 -5.577001 -8.632501 -6.5895 -6.153 -5.9475 
-6.425 -6.959001 -8.793501 -10.1425 -11.3886 -11.7326 -9.2025 -9.226 
-7.566 -8.8865 -13.1086 -15.9541 -14.4887 -14.3456 -12.3591 
-9.5135 -13.2406 -18.9202 -19.0542 -17.1017 -17.5022 
-1.934 -3.533 0 -2.9805 -3.966 -1.8085 -4.4225 -4.0105 -3.7445 -2.0935 -1.4985 -5.214 -3.545 -1.7565 -4.3345 0 
-5.0615 -3.533 -2.9805 -5.9475 -5.6305 -5.7555 -6.2735 -7.9725 -5.3205 -2.9725 -4.6085 -6.3195 -4.649 -6.283501 -4.3345 
-5.0615 -6.2635 -5.9475 -7.219501 -9.184 -7.663001 -9.1835 -9.148 -6.0785 -5.6745 -6.3945 -6.5305 -7.297 -6.283501 
-6.646 -9.104 -7.219501 -9.765 -9.3295 -9.601001 -9.637501 -9.4725 -7.7515 -7.731501 -6.5375 -8.118501 -7.297 
-9.224 -9.847 -9.765 -9.8205 -9.79 -9.7805 -9.685 -9.6185 -9.6505 -7.771501 -8.265 -7.937 
-1.934 -3.533 -2.9805 -5.037 -1.934 -1.4985 -3.4975 -4.293 -1.756 -2.7415 -5.2725 -1.934 -1.4985 -3.0835 -4.07 -1.7565 -4.219 0 
-5.0615 -6.2635 -6.6575 -5.1315 -2.6125 -4.3125 -8.392 -5.737 -4.4655 -6.396 -6.51 -2.6125 -3.535 -5.278 -5.1955 -5.991001 -4.219 
-6.646 -9.165001 -6.724501 -5.5325 -5.731 -8.542001 -9.4735 -7.9575 -7.883 -7.1315 -7.0635 -4.5575 -5.693 -5.951 -8.765 -5.991001 
-9.4735 -9.241501 -7.082001 -8.2185 -9.316501 -9.516001 -11.6766 -9.913 -8.677501 -7.540501 -8.519 -5.9845 -6.074 -9.574 -8.765 
-9.548 -9.566501 -9.623501 -12.2518 -10.131 -11.7521 -13.6321 -10.5365 -9.133 -8.9545 -8.796 -6.4095 -9.6715 -9.574 
