-4.759 
n/a 
n/a 
n/a 
n/a 
-4.759 
n/a 
n/a 
n/a 
n/a 
-4.759 
n/a 
n/a 
n/a 
n/a 
-4.759 
n/a 
n/a 
n/a 
n/a 
-2.5195 -1.4985 -3.4625 -3.581 0 -2.8965 -4.1335 -2.4945 -4.4825 -1.934 -3.17 -5.4085 0 -1.4985 -4.1425 -3.5125 -3.837 -3.6075 -2.9775 -4.346 -1.756 -1.4985 -4.2285 -3.913 -4.431 -1.4985 -3.6615 -3.458 -3.2495 -6.483001 -4.2285 -3.913 -2.7765 -2.489 -3.2955 -1.7695 -4.5445 -3.8105 -2.4285 -2.6165 -2.3615 -2.186 -4.023 
-3.1695 -4.940001 -5.542 -3.581 -2.8965 -6.071 -5.6415 -5.956 -6.3565 -4.8605 -7.966 -5.4085 -1.4985 -5.880501 -6.0565 -6.663 -7.4045 -4.892 -7.7965 -5.974 -3.0405 -6.177501 -8.293001 -7.0625 -5.4935 -4.9455 -6.4335 -5.1565 -8.2165 -11.569 -8.293001 -6.45 -3.495 -3.979 -3.9425 -5.101 -5.532001 -4.8395 -4.3195 -5.583 -3.5005 -4.89 
-6.986 -7.009 -5.542 -7.668 -6.071 -7.565001 -8.2 -7.482501 -8.7505 -9.360001 -7.966 -6.9985 -5.880501 -7.453001 -9.7215 -10.155 -9.351 -9.72 -9.355 -7.354 -8.0135 -8.907001 -10.575 -8.6495 -8.2155 -7.311001 -8.0815 -11.434 -12.4145 -12.7275 -10.382 -6.764 -4.532001 -4.5435 -7.0245 -5.869 -6.308001 -4.8475 -6.158 -6.426 -6.3355 
-8.530001 -7.009 -9.144501 -10.375 -7.565001 -10.118 -9.690001 -9.793501 -10.4425 -9.360001 -9.8715 -10.4505 -7.453001 -10.122 -10.5885 -10.641 -10.622 -10.437 -10.317 -10.4505 -10.426 -10.5975 -10.6045 -10.575 -9.948 -8.7565 -11.509 -13.8267 -15.6168 -14.5756 -10.4085 -7.33 -4.9245 -7.571001 -7.692 -6.7145 -6.312 -6.4835 -6.7135 -9.305 
-8.530001 -10.4185 -10.451 -10.4625 -10.118 -10.3805 -10.421 -10.445 -10.4425 -10.39 -10.454 -10.4645 -10.122 -10.6035 -10.6555 -10.662 -10.655 -10.4835 -10.4875 -10.499 -10.673 -10.629 -10.647 -10.6655 -10.651 -12.1231 -15.1948 -16.9078 -17.1133 -14.5956 -10.451 -7.5855 -8.093 -8.144501 -8.482 -6.7205 -8.418 -7.1025 -9.401501 
-2.8965 -4.1335 -2.4945 -3.8115 -1.7695 -4.4825 -1.934 -5.4085 -2.5195 -1.4985 -3.4625 -7.7235 -3.5125 -3.837 -1.4985 -4.253 -3.4715 -1.756 -4.2285 -3.598 -4.431 -1.4985 -3.6615 -3.458 -3.2495 -6.6805 -3.3425 -1.4985 -4.1425 -3.5125 -3.925 -2.7765 -2.9635 -3.6075 -4.1425 -1.756 -5.101 -1.4985 -3.6075 -7.750501 -3.913 -2.186 -3.2955 -1.7695 -4.5445 -3.8105 -2.3615 -3.6005 -2.4285 -2.6165 0 
-6.071 -5.6415 -4.966001 -3.8325 -7.219 -6.3565 -7.6995 -8.1115 -3.1695 -4.940001 -8.4055 -8.3585 -6.663 -4.797 -5.429501 -6.2425 -5.553 -7.2435 -8.9785 -7.172501 -5.4935 -4.9455 -6.4335 -5.1565 -8.712501 -9.145 -4.0125 -5.880501 -6.0565 -7.1675 -6.870501 -5.3245 -5.4795 -6.9205 -6.360001 -6.0935 -6.457 -4.5495 -11.187 -13.047 -5.4595 -4.348001 -3.9425 -5.101 -5.532001 -5.539001 -6.572001 -5.9745 -4.3195 -2.6165 
-7.565001 -8.753 -4.9795 -10.76 -9.820001 -12.7786 -10.419 -9.222 -6.986 -9.174001 -10.791 -13.1935 -7.875 -9.147 -7.078001 -7.978001 -9.951 -10.218 -12.7824 -9.196501 -8.2155 -7.311001 -8.0815 -10.641 -10.6185 -9.2685 -6.66 -7.453001 -10.757 -11.2452 -9.452001 -8.398001 -9.6565 -8.854501 -10.172 -7.4685 -8.979501 -13.1772 -16.2721 -15.5799 -7.286 -4.837 -7.0245 -5.869 -7.488 -9.816501 -9.517 -7.5205 -4.3195 
-11.0167 -8.759501 -12.089 -13.361 -16.6405 -15.4981 -11.5295 -13.2417 -11.533 -12.3365 -13.8685 -13.8845 -12.4998 -10.8793 -8.529 -12.701 -13.0157 -14.2725 -14.8064 -11.9987 -9.948 -8.7565 -11.5545 -12.235 -11.3585 -13.722 -9.838 -13.0553 -14.8347 -13.8267 -12.7959 -12.5908 -12.6651 -13.1337 -11.547 -10.243 -18.0176 -17.9583 -18.2836 -17.4064 -7.8425 -7.5455 -7.692 -7.804501 -12.0019 -12.8407 -10.4195 -7.5205 
-11.0232 -16.1466 -14.69 -20.1815 -19.36 -16.6086 -15.5492 -18.1037 -14.1725 -16.5583 -14.7723 -19.0195 -14.2321 -12.3303 -13.4258 -15.7657 -17.0702 -16.2965 -17.6086 -13.7312 -10.651 -12.1718 -13.9604 -13.1066 -15.9093 -17.5656 -15.7703 -17.133 -17.4162 -17.1706 -16.9887 -15.5994 -16.9443 -14.5087 -14.3215 -19.4919 -22.6035 -19.9698 -20.1101 -17.9629 -10.8552 -8.208501 -10.1145 -12.3892 -15.0261 -13.7432 -10.4195 
-1.4985 -4.339 -1.7565 -4.2285 -3.0785 -1.7695 -3.5045 -3.8105 -2.186 -4.023 -2.4285 -2.6165 -1.756 -5.774 -1.756 -3.619 -3.277 0 
-4.9215 -4.919 -6.2795 -8.429001 -4.903 -4.661 -6.774 -7.176001 -4.89 -5.9175 -4.3195 -5.4345 -7.349 -7.301 -4.907001 -6.006001 -3.277 
-5.0945 -10.3475 -11.7106 -10.7025 -8.162001 -7.477001 -10.304 -10.214 -6.785501 -7.769001 -6.0605 -12.0571 -9.285001 -10.218 -6.7235 -6.006001 
-10.7495 -15.7786 -13.9841 -13.9615 -11.0474 -11.1272 -13.8062 -12.0263 -8.286 -9.204 -12.7979 -13.9931 -12.2828 -12.0345 -6.7235 
-16.1806 -18.0521 -17.2431 -16.8469 -14.6976 -14.6294 -15.6185 -13.5268 -9.731001 -16.081 -14.7339 -16.9909 -14.0993 -12.0345 
-3.4625 -4.9905 -1.756 -3.8125 -3.074 -3.699 -5.0675 -4.2285 
-8.099501 -6.221001 -5.485 -6.7675 -5.729 -9.081 -9.981001 
-9.087501 -10.119 -8.4265 -10.341 -11.9278 -14.2417 
-13.3571 -13.4687 -12.6248 -16.5486 -17.0885 
-16.7068 -17.667 -18.8324 -21.7093 
