-4.759 
n/a 
n/a 
n/a 
n/a 
-4.759 
n/a 
n/a 
n/a 
n/a 
-4.759 
n/a 
n/a 
n/a 
n/a 
-4.759 
n/a 
n/a 
n/a 
n/a 
-3.5155 -6.627501 -1.756 -4.1395 
-9.838 -7.962001 -5.5845 
-10.078 -12.2171 
-14.3331 
n/a 
-4.0145 -1.756 -4.1395 -3.5155 -1.7565 -3.277 
-5.1755 -5.5845 -7.929501 -4.8955 -4.25 
-5.9295 -9.204 -9.18 -5.762 
-9.820001 -10.5533 -10.255 
-11.4311 -11.6283 
0 -4.0145 -1.756 -4.1395 -2.4945 
-4.0145 -5.1755 -5.5845 -5.9615 
-5.1755 -5.9295 -7.739 
-5.9295 -8.556001 
-8.556001 
0 -12.16972 -7.9635 -12.16972 -12.16972 
-12.16972 -20.13322 -20.37082 -24.33944 
-20.13322 -32.54054 -32.54054 
-32.54054 -44.71026 
-44.71026 
