-4.759 
n/a 
n/a 
n/a 
n/a 
-4.759 
n/a 
n/a 
n/a 
n/a 
-4.759 
n/a 
n/a 
n/a 
n/a 
-4.759 
n/a 
n/a 
n/a 
n/a 
-1.934 -4.869 -12.16972 -3.098 -3.5035 -1.756 -4.6585 -4.622 -2.688 -4.6605 -3.2275 0 -3.135 -4.002 -3.074 -1.934 -3.35 -4.6745 -3.074 -3.5185 -3.6135 -3.6885 -2.0935 -2.3615 
-6.114 -17.64632 -15.26772 -7.169 -4.74 -7.1325 -9.529 -6.796 -7.165501 -8.0455 -3.2275 -3.135 -7.087501 -7.1485 -4.93 -6.093 -6.870501 -8.491 -6.0145 -7.5425 -5.943 -5.407001 -3.854 
-19.31752 -20.74432 -19.33872 -8.83 -11.3323 -12.3834 -11.7262 -11.8195 -10.533 -8.0455 -6.951 -7.087501 -8.6925 -9.1145 -9.16 -8.168 -11.0966 -11.6067 -9.814501 -10.31 -6.9865 -7.3135 
-22.41552 -24.81532 -20.99972 -15.6299 -16.5832 -14.5806 -16.7497 -15.187 -10.533 -12.4622 -8.979 -8.6925 -11.3975 -13.4391 -11.4122 -12.8255 -14.2123 -15.4067 -12.739 -11.3535 -9.1335 
-26.48652 -26.47632 -27.79962 -20.8808 -18.7804 -19.6041 -20.1172 -15.187 -14.9497 -14.4902 -10.7495 -11.3975 -15.7221 -15.6913 -16.0697 -15.9412 -18.0123 -18.3312 -13.7825 -13.5005 
-3.098 -6.6585 -1.934 -4.869 -1.756 -2.688 -3.9675 -12.16972 -1.756 -4.43 -9.455001 -1.7695 -1.4985 -3.5585 -1.934 -1.4985 -3.35 0 -3.43 -2.4265 -4.6475 
-10.543 -8.461 -6.114 -6.631001 -4.619 -6.193 -17.49722 -13.92572 -6.4635 -14.917 -11.1415 -2.7955 -4.8755 -4.9155 -2.6125 -4.152 -3.35 -3.43 -4.849 -6.383 
-12.3455 -13.2586 -7.0655 -9.894501 -8.458 -20.54932 -19.25322 -18.63322 -17.4631 -16.6035 -12.1675 -6.081501 -6.2315 -5.5505 -5.886001 -4.152 -7.569 -4.849 -7.202 
-17.1431 -14.2101 -10.494 -13.8873 -23.07532 -22.30532 -23.96072 -29.63282 -19.1496 -17.6295 -15.4535 -7.363501 -6.6985 -7.644001 -5.886001 -8.078 -8.900001 -7.202 
-18.0946 -17.6386 -14.6118 -28.50462 -24.83132 -27.01282 -34.96032 -31.31932 -20.1756 -20.9155 -16.7355 -7.896501 -9.066 -7.644001 -10.223 -9.316 -11.572 
-1.934 -9.083 -3.158 -4.129 -10.4535 -3.5035 -1.756 -10.429 -3.158 -4.905 -1.4985 -2.688 -8.591001 -2.4945 -4.8775 -1.4985 -3.5585 -1.934 -3.35 -2.186 -3.383 -3.869 -4.1445 0 
-12.0234 -12.4092 -6.7685 -16.0193 -13.957 -4.74 -13.1936 -13.9002 -8.249001 -5.6145 -3.702 -10.688 -11.6355 -6.7115 -6.119 -4.8755 -4.9155 -6.093 -5.587 -4.438 -5.7275 -7.216001 -4.1445 
-15.3496 -16.0197 -19.3856 -19.5228 -15.1935 -17.3934 -16.6648 -18.9912 -8.804501 -6.7125 -11.909 -14.4319 -15.8525 -7.8115 -9.7215 -6.2315 -8.1155 -8.825001 -8.0705 -6.8415 -7.9875 -7.216001 
-18.9601 -28.6368 -22.8891 -20.7593 -27.8469 -20.8646 -21.7558 -19.5467 -10.135 -15.2243 -15.6529 -18.6489 -16.9525 -11.757 -11.1265 -9.935 -11.0867 -10.564 -10.749 -10.459 -7.9875 
-31.5772 -32.1403 -24.1256 -33.4127 -31.3181 -25.9556 -22.3113 -20.8772 -18.6468 -18.9682 -19.8699 -19.7489 -20.898 -13.162 -14.83 -12.9326 -12.8257 -13.2425 -14.3665 -10.459 
-1.4985 -3.5035 -5.932 -6.5175 -2.3345 -4.2315 -2.9705 -2.7415 -4.4895 -1.934 -4.869 0 -1.4985 -2.688 -4.5665 -3.9655 -3.8225 -8.103001 -1.934 -4.6585 -1.756 -1.4985 -3.8225 -1.7695 -5.228 -5.7715 -1.7565 -4.66 -1.7695 -3.5585 -1.7695 -4.641 -2.9705 -2.7415 -4.4895 -3.882 0 -3.43 -1.4985 -4.663 -4.6475 0 
-4.4895 -9.204 -13.9963 -8.8795 -5.927 -6.769 -4.512 -5.4595 -5.366 -6.114 -4.869 -1.4985 -3.702 -7.2295 -7.2555 -8.9145 -10.181 -9.2495 -5.8095 -6.3145 -3.0405 -4.8075 -5.3765 -5.552001 -10.674 -6.591 -6.170001 -6.358 -5.2655 -4.869 -6.637001 -7.113 -4.512 -5.4595 -7.6085 -3.882 -3.43 -4.7635 -6.307 -8.54 -4.6475 
-9.846001 -17.4285 -16.3583 -13.0134 -8.429001 -8.511001 -6.8725 -6.0625 -8.4665 -6.114 -6.508501 -3.702 -7.586 -10.1425 -12.8857 -15.5318 -11.9271 -13.1656 -6.769001 -7.405 -6.563 -6.1215 -7.323 -10.7175 -10.697 -8.901 -7.700001 -9.378 -7.132 -8.8695 -8.827001 -8.9995 -6.8725 -8.5605 -7.6085 -7.0515 -4.7635 -9.731 -9.743501 -8.54 
-18.0279 -19.7905 -20.4922 -15.5154 -10.015 -11.0657 -7.269001 -8.904501 -8.4665 -7.133 -8.642501 -7.586 -10.7595 -15.9227 -19.503 -17.2779 -15.8432 -14.1251 -7.952001 -11.1567 -7.651 -7.652 -13.2973 -10.743 -13.007 -9.6875 -11.0966 -11.3597 -11.3815 -11.1923 -10.7875 -11.4542 -9.801001 -8.5605 -11.3168 -8.2045 -9.731 -10.6245 -9.743501 
-20.3899 -23.9244 -22.9942 -17.1014 -12.5697 -11.4622 -10.403 -8.904501 -9.429 -9.239501 -12.7455 -10.7595 -16.5397 -22.54 -21.2491 -21.194 -16.8027 -15.3081 -11.8089 -12.2447 -9.219001 -14.8005 -13.3228 -13.053 -13.7935 -13.4039 -13.0783 -15.6092 -13.7043 -13.1528 -13.2422 -14.3827 -9.801001 -12.5188 -12.4698 -13.3246 -10.6245 -10.6245 
