-4.759 
n/a 
n/a 
n/a 
n/a 
-4.759 
n/a 
n/a 
n/a 
n/a 
-4.759 
n/a 
n/a 
n/a 
n/a 
-4.759 
n/a 
n/a 
n/a 
n/a 
-3.5715 -2.341 0 -5.406 -1.934 -6.165 0 -2.855 -3.1385 -3.0695 -4.3035 -1.7695 -5.1335 -1.4985 -6.165 0 -3.7555 -4.6295 -1.934 -1.4985 -5.764 -1.756 -4.7225 -3.539 -2.5195 -1.4985 -4.686 -1.756 -4.424 
-5.5735 -2.341 -5.406 -7.8585 -7.6995 -6.165 -2.855 -6.2415 -4.286 -6.234 -4.6755 -5.7385 -6.159 -6.4265 -6.165 -3.7555 -6.2905 -5.492001 -2.6125 -7.4245 -7.210501 -6.0135 -6.438001 -5.3585 -3.1695 -5.404 -5.7295 -5.698 
-5.5735 -7.562 -7.8585 -13.8906 -7.6995 -9.703501 -6.2415 -7.9835 -7.5175 -6.336501 -7.743001 -6.647 -9.2585 -6.4265 -10.389 -6.2905 -7 -5.851501 -8.976 -8.6955 -12.0996 -7.41 -8.019001 -5.9325 -6.786 -6.36 -10.001 
-11.8497 -10.389 -13.8906 -13.8906 -11.6872 -13.1318 -7.9835 -11.4756 -7.697001 -9.272 -8.549001 -9.634001 -9.2585 -10.459 -12.924 -7 -7.415 -12.9922 -10.2135 -13.6942 -13.4961 -9.1145 -8.318501 -7.7805 -7.829 -10.1805 
-14.6767 -16.4211 -13.8906 -17.8783 -15.1155 -14.8738 -11.4756 -11.6551 -10.434 -9.9385 -11.7132 -9.634001 -13.4988 -12.994 -13.6335 -7.415 -14.5907 -14.2297 -15.2122 -15.0907 -15.2006 -9.195001 -10.6267 -8.531 -11.7293 
-3.5715 -4.255 -2.855 -4.147 -5.7805 -2.5195 -3.948 -3.959 -3.152 -5.34 -2.3345 -1.8085 -6.261 -1.756 -3.966 -2.985 -4.221 0 -3.4985 -4.0955 -1.7695 -5.1335 -1.4985 -5.8945 -5.6195 -4.53 0 
-6.4745 -7.5075 -7.6995 -7.363 -7.8485 -5.454 -6.288 -6.2895 -6.893001 -6.564 -3.8605 -6.979 -7.7245 -5.662 -5.648 -5.038 -4.221 -3.4985 -5.9045 -4.1555 -5.7385 -6.159 -6.577001 -12.383 -9.369 -4.53 
-9.154 -12.6042 -11.4565 -9.264001 -10.298 -7.112 -8.661 -10.2085 -8.087 -7.475 -8.4995 -8.1265 -10.634 -7.485 -6.4445 -5.038 -6.903501 -5.9045 -5.927 -7.4865 -6.647 -10.1425 -13.8229 -17.5632 -10.085 
-14.8727 -16.3612 -13.3575 -11.7895 -11.956 -9.212001 -12.647 -11.6417 -8.901501 -9.7285 -9.534 -11.1294 -12.457 -8.355 -6.4445 -7.351001 -8.9965 -5.927 -8.874001 -8.254 -10.3405 -17.715 -18.7059 -17.5632 
-18.6297 -18.2622 -15.883 -13.4475 -14.056 -13.2852 -14.0802 -12.4562 -10.1855 -10.7195 -12.5813 -12.9524 -13.327 -8.355 -8.168 -9.180501 -9.004001 -8.874001 -9.663 -12.1197 -18.0208 -22.598 -18.7059 
-3.5715 -5.196 -5.9415 -2.5195 -3.948 -3.959 -3.152 -8.068001 -2.925 -4.3035 -1.7695 -5.1335 -6.111 -12.91 -3.177 
-8.017 -11.554 -8.467 -5.454 -6.288 -6.2895 -12.5298 -11.2238 -6.056 -4.6755 -5.7385 -10.523 -19.3664 -16.3366 
-15.7837 -14.4107 -11.6131 -7.112 -8.661 -16.1203 -15.6856 -14.3548 -6.2005 -7.743001 -11.5282 -24.0798 -23.018 
-18.7206 -17.5568 -13.2711 -9.212001 -18.5588 -19.2761 -18.8166 -14.4993 -8.8385 -14.2423 -25.085 -27.43 
-21.8667 -19.2148 -15.3711 -19.197 -21.7146 -22.4071 -18.9611 -17.1373 -15.8174 -27.7991 -28.4352 
-3.5715 -2.341 0 -2.855 -3.38 -5.7805 -3.152 -4.424 -1.934 -1.4985 -5.764 -3.034 -2.925 -3.74 -1.7695 -5.1335 -1.934 -5.6195 -5.98 -4.3675 -1.934 -6.165 
-5.5735 -2.341 -2.855 -6.901 -8.675 -7.9995 -8.638 -5.195 -2.6125 -7.4245 -8.593 -4.4 -5.873 -4.2995 -5.7385 -6.6945 -7.9 -11.6075 -9.235001 -6.831 -7.6995 
-5.5735 -4.7845 -6.901 -12.6834 -11.5826 -13.7477 -9.485001 -6.055501 -8.976 -10.194 -10.31 -6.7915 -5.976 -7.7075 -7.285501 -13.2296 -12.9695 -13.7066 -11.8785 -13.1911 
-8.683001 -9.1875 -12.6834 -15.591 -17.3308 -14.5947 -9.823501 -13.2028 -11.8413 -11.911 -12.7015 -6.857 -9.017 -9.511001 -14.1616 -18.4302 -17.4595 -17.2069 -18.2386 
-13.4974 -15.0399 -15.591 -21.3392 -18.1778 -14.9332 -17.1684 -16.0681 -13.5583 -14.3025 -12.767 -9.948501 -10.543 -16.4233 -19.3622 -22.7556 -20.103 -23.567 
