-4.759 
n/a 
n/a 
n/a 
n/a 
-4.759 
n/a 
n/a 
n/a 
n/a 
-4.759 
n/a 
n/a 
n/a 
n/a 
-4.759 
n/a 
n/a 
n/a 
n/a 
-3.1385 -2.229 -5.3745 -3.9235 -1.7565 -5.1845 
-4.6125 -6.4755 -7.077001 -5.24 -6.580501 
-6.732 -8.813 -8.8645 -8.978001 
-8.852501 -9.045 -8.999001 
-9.052001 -9.051001 
-4.9225 -5.3745 -4.5675 -2.0935 -5.1845 -6.844 0 -4.512 0 
-7.8085 -7.863 -5.941 -7.298 -6.9655 -6.844 -4.512 -4.512 
-9.885 -10.0475 -10.4185 -7.801001 -6.9655 -10.784 -4.512 
-12.3479 -14.5868 -10.6105 -7.801001 -11.0749 -10.784 
-16.8872 -14.7788 -10.6105 -12.8578 -11.0749 
-4.426 -1.7565 -1.4985 -3.0835 -4.7285 -4.1555 -3.147 -3.1385 -4.631 -1.7565 -5.1845 
-5.47 -2.4195 -3.535 -6.042 -8.4455 -5.77 -6.5485 -8.4065 -6.209 -6.580501 
-5.9535 -4.6785 -6.335501 -9.523001 -9.541501 -9.752501 -12.3201 -10.1555 -12.018 
-8.021 -7.476501 -10.0095 -10.7035 -13.524 -15.5241 -14.0691 -16.0869 
-9.983001 -11.3061 -11.3 -14.686 -19.2956 -17.2731 -20.0005 
-3.1385 -2.229 -5.3745 -4.5675 -1.7565 -5.1845 -6.844 0 -4.512 0 
-4.6125 -6.4755 -7.863 -5.8295 -6.580501 -6.9655 -6.844 -4.512 -4.512 
-6.732 -8.85 -9.2235 -9.2185 -7.1625 -6.9655 -10.784 -4.512 
-8.8625 -9.330501 -9.279501 -9.280001 -7.1625 -11.0749 -10.784 
-9.336 -9.3495 -9.287001 -9.280001 -11.4797 -11.0749 
