-4.759 
n/a 
n/a 
n/a 
n/a 
-4.759 
n/a 
n/a 
n/a 
n/a 
-4.759 
n/a 
n/a 
n/a 
n/a 
-4.759 
n/a 
n/a 
n/a 
n/a 
-5.4235 -7.943 -7.081 -2.8645 -4.127 -1.934 -3.091 -3.452 -1.8085 -3.5125 -1.7565 -3.8735 0 -2.3335 -7.4885 -3.251 -5.309 
-9.5065 -8.276501 -9.3415 -6.9465 -4.842 -4.2105 -5.5575 -5.22 -5.146 -4.312 -5.112 -3.8735 -2.3335 -10.533 -9.921 -8.059 
-9.5135 -10.007 -13.4187 -8.2075 -7.915501 -6.003 -7.057 -7.866 -5.2675 -7.1395 -5.112 -6.7635 -10.533 -12.9655 -14.7478 
-10.5895 -14.0922 -14.6797 -9.604 -10.4284 -7.726501 -8.84 -7.902 -8.1555 -7.1395 -7.639 -15.2746 -12.9655 -17.7923 
-14.6747 -15.3532 -16.0762 -12.2895 -12.1519 -9.019001 -8.8475 -11.145 -8.1555 -9.666 -16.2579 -17.7071 -17.7923 
-7.943 -7.081 -1.7695 -4.4525 -1.7565 -3.5125 0 -1.8085 -3.5125 -1.7565 -3.8735 -3.8625 -1.7695 -8.257501 -3.594 0 
-8.276501 -9.734 -7.673501 -4.6715 -5.191 -3.5125 -1.8085 -5.146 -4.312 -5.112 -8.166 -5.2885 -11.0092 -12.2807 -3.594 
-10.287 -15.709 -8.2335 -7.9245 -5.191 -5.917 -5.146 -5.2675 -7.1395 -9.1415 -9.673 -15.5562 -15.0324 -12.2807 
-16.262 -16.269 -11.5145 -7.9245 -7.2505 -7.636 -5.2675 -8.1555 -10.6465 -10.66 -20.3431 -19.5794 -15.0324 
-16.822 -19.55 -11.5145 -10.411 -9.0225 -7.853 -8.1555 -12.3991 -12.165 -21.3301 -24.3663 -19.5794 
-1.4985 -3.5125 -1.7565 -3.8735 -2.8645 -2.356 -8.5035 -2.229 -6.8125 0 
-4.7015 -4.312 -5.112 -6.143 -6.314 -10.7335 -10.5435 -9.1705 -6.8125 
-4.846 -7.1395 -7.062 -9.396 -15.0721 -12.7735 -17.485 -9.1705 
-7.9565 -9.710501 -10.5864 -18.2385 -17.1121 -19.715 -17.485 
-9.961 -13.3297 -19.4289 -20.2785 -24.0536 -19.715 
-11.0235 -7.081 -3.091 -4.1865 -3.5125 0 -1.8085 -3.5125 -1.7565 -3.8735 0 -3.594 -4.4155 -10.4705 -4.4725 -3.3715 -5.309 
-18.1045 -10.575 -7.276 -6.885 -3.5125 -1.8085 -5.146 -4.312 -5.112 -3.8735 -3.594 -7.6265 -15.7674 -15.0936 -7.430501 -7.6285 
-21.5985 -14.76 -10.115 -6.885 -5.917 -5.146 -5.2675 -7.1395 -5.112 -7.979 -7.6265 -19.3872 -20.3905 -18.0516 -10.564 
-25.7835 -17.599 -10.115 -8.862 -7.636 -5.2675 -8.1555 -7.1395 -9.418 -12.5737 -19.3872 -24.0103 -23.3485 -21.1851 
-28.6225 -17.599 -12.2244 -10.451 -7.853 -8.1555 -8.1555 -12.0241 -14.0599 -24.3344 -24.0103 -26.9683 -26.482 
