-4.759 
n/a 
n/a 
n/a 
n/a 
-4.759 
n/a 
n/a 
n/a 
n/a 
-4.759 
n/a 
n/a 
n/a 
n/a 
-4.759 
n/a 
n/a 
n/a 
n/a 
-2.3615 -4.449 -3.3715 -4.9225 -4.3285 -3.2495 -4.2915 0 
-8.224 -7.675 -7.0565 -9.404 -8.0445 -6.6065 -4.2915 
-11.7132 -11.7136 -12.053 -13.307 -10.5425 -6.6065 
-15.7518 -16.7101 -15.956 -15.805 -10.5425 
-20.7483 -20.6131 -18.454 -15.805 
-3.17 -1.7565 -1.4985 -5.171 -3.1385 -2.4945 -5.346 0 
-4.179 -2.4195 -5.913 -9.050501 -4.588 -7.348001 -5.346 
-4.497 -6.636001 -9.72 -10.468 -8.932001 -7.348001 
-9.123 -10.4265 -11.2031 -14.812 -8.932001 
-13.1323 -11.9096 -15.5471 -14.812 
-3.45 -3.0695 -5.0305 -3.147 -3.17 -4.3845 -3.2495 -9.724001 
-4.273 -6.8455 -7.276 -6.3255 -8.301001 -7.7765 -14.0285 
-8.2915 -8.136001 -10.1855 -12.2065 -10.5865 -19.2573 
-9.501 -11.2723 -16.1869 -14.492 -23.0233 
-12.5491 -17.2737 -18.4724 -26.9288 
-3.147 -3.17 -1.7565 -1.4985 -9.591001 -2.4945 -8.505501 -3.2495 -4.2915 0 
-6.3255 -4.179 -2.4195 -10.821 -12.2321 -9.946001 -12.214 -6.6065 -4.2915 
-7.134501 -4.497 -11.9328 -13.4621 -19.6836 -13.8743 -15.571 -6.6065 
-7.4485 -14.5463 -14.5739 -20.9136 -23.6119 -17.2313 -15.571 
-17.7144 -17.1874 -22.0254 -24.8419 -26.9689 -17.2313 
