-4.759 
n/a 
n/a 
n/a 
n/a 
-4.759 
n/a 
n/a 
n/a 
n/a 
-4.759 
n/a 
n/a 
n/a 
n/a 
-4.759 
n/a 
n/a 
n/a 
n/a 
-2.4265 -2.186 -1.4985 -4.031 -2.0935 -5.1265 -4.8095 -1.934 -4.392 0 
-3.292 -3.339 -4.771 -4.8935 -6.669 -10.647 -6.382 -6.862 -4.392 
-4.5995 -5.8475 -5.3855 -9.532001 -12.5813 -12.2195 -12.1026 -6.862 
-7.312 -6.593 -10.078 -15.4581 -14.1538 -17.9401 -12.1026 
-8.2735 -11.3249 -15.9987 -17.0306 -19.8744 -17.9401 
-2.3615 -3.585 -3.098 -4.2705 -1.4985 -4.8095 -3.518 -1.934 -7.808001 
-5.071 -6.721001 -6.7115 -5.7555 -6.0585 -7.136001 -5.322001 -10.4265 
-7.872 -10.2535 -7.75 -9.92 -7.781501 -7.951 -14.3111 
-11.6659 -11.292 -12.0605 -11.8674 -8.208 -17.7121 
-12.7044 -15.6025 -14.0079 -12.2939 -18.3473 
-1.4985 -4.1345 -1.7565 -4.8095 -2.186 -3.851 -1.7695 -2.3615 -4.293 
-5.169001 -4.9435 -5.881001 -6.5915 -5.0955 -4.0015 -3.736 -6.3425 
-5.2405 -8.231501 -7.649001 -9.8085 -5.314 -6.14 -7.8665 
-8.446501 -9.447001 -10.442 -9.8575 -7.7545 -8.551001 
-9.508 -12.6236 -10.517 -12.2838 -9.9505 
-3.9545 -1.7565 -4.8095 -4.138 -1.7565 -5.3225 -3.1495 -1.7565 -4.031 0 
-6.7515 -5.881001 -8.981501 -5.1845 -7.5715 -8.378 -7.011001 -5.849501 -4.031 
-9.4965 -10.304 -10.543 -12.3109 -10.5535 -12.4489 -11.5444 -5.849501 
-14.3147 -12.0907 -17.6694 -15.2929 -14.6244 -16.9823 -11.5444 
-16.1014 -19.2171 -20.6514 -19.3638 -19.1578 -16.9823 
