-4.759 
n/a 
n/a 
n/a 
n/a 
-4.759 
n/a 
n/a 
n/a 
n/a 
-4.759 
n/a 
n/a 
n/a 
n/a 
-4.759 
n/a 
n/a 
n/a 
n/a 
-2.925 -2.4945 -4.152 -3.515 0 -3.9655 -3.515 -1.756 -4.622 -5.126 0 
-3.7675 -7.663001 -5.669001 -3.515 -3.9655 -6.4985 -5.0885 -6.212 -11.08 -5.126 
-9.013 -9.3915 -5.669001 -6.9525 -6.4985 -8.580501 -10.9425 -13.0094 -11.08 
-10.598 -9.3915 -8.3675 -7.384501 -8.580501 -14.6227 -17.7399 -13.0094 
-10.598 -12.2002 -8.594501 -10.5745 -14.6227 -21.4201 -17.7399 
-5.6235 -4.152 -3.5065 0 -10.429 0 -1.756 -4.698 -3.4765 
-10.0925 -7.966001 -3.5065 -10.429 -10.429 -1.756 -6.33 -6.4715 
-13.9065 -7.966001 -15.0193 -10.429 -12.185 -6.33 -8.494 
-13.9065 -19.8388 -15.0193 -12.185 -16.759 -8.494 
-25.7793 -19.8388 -16.7753 -16.759 -18.923 
-2.925 -2.4945 -4.152 -3.4765 0 -3.9655 -3.4765 0 -4.698 -3.4765 
-3.7675 -7.663001 -5.848001 -3.4765 -3.9655 -6.4125 -3.4765 -4.698 -6.4715 
-9.013 -9.84 -5.848001 -7.392 -6.4125 -6.4125 -7.469501 -6.4715 
-11.307 -9.84 -8.696001 -8.186001 -6.4125 -10.181 -7.89 
-11.307 -13.057 -8.776501 -8.186001 -10.181 -11.0197 
-2.925 -2.4945 -2.5685 -4.698 -3.5065 0 -4.233 -3.5065 0 -3.843 0 
-3.7675 -4.6335 -7.2235 -7.860001 -3.5065 -4.233 -7.397501 -3.5065 -3.843 -3.843 
-5.5775 -9.269001 -10.9047 -7.860001 -8.369 -7.397501 -7.397501 -7.453501 -3.843 
-10.1105 -13.2572 -10.9047 -13.1769 -9.913501 -7.397501 -10.396 -7.453501 
-14.2871 -13.2572 -16.2216 -14.7214 -9.913501 -10.396 -10.396 
