-4.759 
n/a 
n/a 
n/a 
n/a 
-4.759 
n/a 
n/a 
n/a 
n/a 
-4.759 
n/a 
n/a 
n/a 
n/a 
-4.759 
n/a 
n/a 
n/a 
n/a 
-3.3985 -4.239 -3.5725 -3.5905 -3.6205 -3.676 -3.5125 0 -3.383 -3.6135 -5.269 -4.4295 -2.6485 
-6.5935 -8.398001 -8.8395 -7.358 -8.5065 -7.0065 -3.5125 -3.383 -5.8785 -9.764 -10.3415 -9.149 
-11.1131 -13.8564 -12.8418 -13.1604 -12.7906 -7.0065 -7.5505 -5.8785 -12.4472 -14.9241 -15.061 
-16.5715 -17.8587 -18.6442 -17.4445 -12.7906 -11.7399 -10.6298 -12.4472 -17.6073 -19.6436 
-20.5738 -23.6611 -22.9283 -17.4445 -17.524 -14.8192 -17.1985 -17.6073 -22.3268 
-3.5455 -1.4985 -2.688 -4.127 -3.4975 -3.5125 -3.458 -3.3985 -4.239 -1.7695 -3.3985 -3.5905 0 -4.3125 -5.0665 -4.547 -1.756 -6.942 -5.5265 -3.152 -4.4825 -3.325 -1.4985 -4.5325 -3.9555 0 
-3.91 -3.702 -6.723001 -6.545001 -5.433001 -7.227 -6.4595 -6.5935 -6.2045 -5.6125 -5.704 -3.5905 -4.3125 -9.372 -8.557501 -5.863501 -7.116 -11.192 -9.679001 -8.948501 -7.365 -3.898 -5.771501 -6.182 -3.9555 
-6.9995 -7.6025 -9.797501 -7.848501 -8.911501 -10.2135 -9.176001 -8.408501 -8.387501 -7.626 -5.704 -8.519501 -9.372 -13.036 -10.248 -12.775 -15.5394 -16.8903 -15.6379 -11.9684 -7.8985 -7.593 -6.2565 -6.182 
-11.6368 -10.513 -11.149 -11.5818 -12.0692 -13.1164 -12.2854 -9.249001 -9.4715 -7.626 -11.0292 -14.1732 -13.036 -14.7265 -18.1007 -20.8159 -20.4013 -22.8492 -18.6578 -12.5019 -9.752001 -7.7235 -6.2565 
-14.5473 -11.8645 -14.8823 -14.7395 -14.9721 -16.2258 -13.1259 -9.6925 -9.4715 -13.2764 -16.6829 -17.8372 -14.7265 -22.5792 -26.1416 -25.2578 -26.3602 -25.8691 -19.1913 -14.3554 -9.841001 -7.7235 
-1.4985 -3.098 -4.979 -2.3335 -4.598 -2.186 -4.077 -2.5045 -2.5685 -2.186 -1.8085 -4.3885 -3.8405 -3.3155 -1.4985 -4.5495 -3.0755 -3.941 -2.356 -3.616 -4.387 -4.902 -2.186 -4.403 -3.436 -2.4265 -2.186 -4.6525 -2.356 -1.4985 -4.2205 -4.646 -3.941 -1.756 -3.582 -4.387 -4.902 -1.7565 -1.4985 -3.462 -3.793 0 
-4.123 -7.5555 -5.79 -7.469501 -6.7445 -5.476 -6.45 -4.275 -5.349 -3.164 -4.904 -6.54 -6.6025 -4.1745 -5.3615 -8.197001 -7.295501 -6.335 -5.592501 -7.8545 -6.440001 -6.390501 -5.248 -7.1645 -4.978 -3.292 -5.752501 -5.492 -3.1615 -5.670501 -7.913 -7.2445 -5.495501 -4.8375 -7.739 -6.440001 -7.442501 -2.4195 -4.9825 -6.6505 -3.793 
-7.6175 -8.126 -11.4042 -8.337 -10.8703 -7.864 -7.265 -6.514 -6.8535 -6.209 -6.6715 -8.715 -7.2855 -8.0485 -9.0775 -12.9618 -10.523 -7.596 -10.7495 -10.2645 -7.6045 -8.252501 -7.984 -9.026501 -5.7605 -7.1045 -6.4575 -6.261 -7.2775 -9.060501 -9.353001 -8.5165 -8.2285 -9.352501 -9.932501 -8.995001 -7.864001 -6.099 -7.2405 -6.6505 
-8.1595 -14.0242 -12.2717 -12.6778 -13.2583 -8.463 -9.425501 -7.6115 -10.4765 -8.665 -8.835501 -9.488501 -11.3507 -11.8707 -13.9283 -16.1893 -11.784 -13.7568 -13.1595 -11.429 -9.585 -10.172 -9.6785 -9.441501 -8.6495 -7.778 -6.973001 -10.0995 -10.3885 -10.7475 -11.1228 -10.2325 -13.3409 -11.6754 -12.4875 -9.252501 -12.2841 -8.420501 -7.2405 
-14.0635 -14.8917 -16.6125 -15.0658 -13.8573 -10.099 -10.555 -11.5963 -12.9325 -10.0245 -9.565001 -13.6063 -15.1729 -16.7215 -17.1558 -17.4503 -17.9448 -16.1668 -14.324 -13.4095 -11.6943 -12.8271 -9.974501 -12.6231 -9.675501 -8.330501 -11.1319 -13.2105 -12.0755 -12.5173 -12.8388 -15.3689 -15.6638 -14.2304 -12.745 -14.399 -14.6056 -8.420501 
-1.934 -1.4985 -3.6205 -3.5125 -1.7565 -3.676 -3.458 -3.3985 -4.239 -1.756 -3.3985 -3.5905 -3.0365 -2.7415 -3.6885 -5.4075 -4.547 -1.756 -5.1075 -4.4825 -1.934 -4.2935 -2.6485 -3.325 -1.4985 -4.5325 -3.307 0 
-2.6125 -4.05 -8.213 -4.312 -4.4345 -7.428 -6.4595 -6.5935 -5.89 -5.8595 -5.704 -6.6315 -4.2225 -6.693 -8.9525 -9.212501 -5.863501 -6.358 -10.0855 -5.5625 -7.0045 -4.8275 -6.406 -3.898 -5.771501 -9.558001 -3.307 
-5.745 -8.4265 -9.1905 -6.952 -8.557501 -9.899 -9.176001 -8.1765 -8.6455 -7.966001 -8.528 -7.4975 -8.277 -12.7968 -12.9059 -10.4275 -9.159501 -11.7314 -11.3119 -11.3076 -8.129001 -9.288501 -6.7035 -7.593 -11.9102 -9.558001 
-9.908501 -9.4805 -12.1001 -10.2585 -11.1627 -12.7961 -9.198 -9.4685 -9.7355 -10.2535 -9.410001 -11.7958 -14.489 -16.7502 -14.1209 -13.7235 -14.9653 -12.9578 -17.057 -12.4321 -13.0462 -9.713001 -11.1879 -14.6785 -11.9102 
-10.2275 -12.5343 -15.4066 -13.0065 -14.0598 -12.8181 -9.854 -9.845 -12.285 -11.2955 -13.7231 -18.0078 -18.4424 -17.9652 -17.4169 -19.5293 -16.1917 -18.7029 -18.1815 -17.3493 -13.4707 -14.3624 -18.2734 -14.6785 
