-4.759 
n/a 
n/a 
n/a 
n/a 
-4.759 
n/a 
n/a 
n/a 
n/a 
-4.759 
n/a 
n/a 
n/a 
n/a 
-4.759 
n/a 
n/a 
n/a 
n/a 
-6.982501 -3.8735 -3.4425 -4.5175 -1.4985 -4.348 -1.934 -5.4585 
-11.479 -7.234 -8.3755 -6.313001 -6.117001 -6.7025 -6.7015 
-14.8395 -12.5918 -10.622 -10.411 -9.816 -10.575 
-20.1973 -14.8383 -14.72 -14.3574 -13.7853 
-22.4438 -18.9363 -18.6664 -18.3267 
-1.934 -5.4585 -4.065 -4.1865 -3.4425 -4.6825 -1.7695 -4.348 
-6.7015 -9.067 -5.35 -7.9285 -8.555 -6.7485 -6.307001 
-9.989501 -10.546 -11.661 -13.3228 -11.188 -10.287 
-11.5767 -16.857 -17.0553 -15.9558 -14.7265 
-17.8877 -22.2513 -19.6883 -19.4943 
-7.572001 -4.1865 -3.4425 -4.1375 -1.4985 -4.348 -2.5195 -5.4585 0 
-12.2655 -7.9285 -7.1035 -6.516001 -6.117001 -7.194 -7.783501 -5.4585 
-16.0075 -11.8713 -10.281 -11.6127 -10.0448 -12.9042 -7.783501 
-19.9503 -15.0488 -15.3777 -15.5405 -15.755 -12.9042 
-23.1278 -20.1455 -19.3055 -21.2507 -15.755 
-2.5195 -5.4585 -5.648 -9.882501 -3.4425 -3.9535 -4.9295 -4.348 
-7.783501 -9.6885 -16.4331 -13.569 -7.7335 -9.029501 -10.1945 
-9.824 -20.4806 -19.9194 -18.4106 -13.3067 -14.5157 
-20.6269 -23.9669 -24.6352 -23.9838 -18.7929 
-24.1132 -28.6827 -30.2084 -29.47 
