-4.759 
n/a 
n/a 
n/a 
n/a 
-4.759 
n/a 
n/a 
n/a 
n/a 
-4.759 
n/a 
n/a 
n/a 
n/a 
-4.759 
n/a 
n/a 
n/a 
n/a 
-1.4985 -8.6785 -3.8745 -2.4945 -3.8825 -1.934 -1.4985 -3.641 -1.7565 -3.8735 -1.756 -6.246 0 -6.6155 -3.8375 -2.9705 -2.4945 -3.7875 -6.8195 -2.4945 -9.448501 -1.934 -1.4985 -3.75 -1.934 -1.4985 -6.246 -4.1115 0 
-10.396 -9.3615 -6.394501 -5.478001 -4.9695 -2.6125 -4.644 -5.198501 -5.112 -5.3865 -8.1925 -6.246 -6.6155 -8.279 -6.654 -4.302 -5.3155 -10.8415 -8.066 -10.7495 -9.811001 -2.6125 -4.8715 -6.196 -2.6125 -6.940001 -7.0385 -4.1115 
-11.079 -12.2979 -9.0495 -5.959001 -5.375 -5.3205 -6.088 -8.3195 -6.409 -9.834001 -8.1925 -6.937 -8.279 -10.543 -8.3815 -8.024 -13.2621 -12.088 -17.0876 -11.112 -10.126 -5.621 -6.988 -6.838 -7.6305 -7.2985 -7.0385 
-14.0154 -14.9529 -9.180501 -6.354001 -8.819 -6.789001 -8.945001 -9.304001 -10.476 -9.834001 -8.9185 -8.927 -10.543 -12.2705 -12.2731 -16.0214 -14.5086 -21.1096 -17.4501 -11.427 -13.2481 -7.547 -7.455 -12.3238 -7.919 -7.2985 
-16.6704 -15.0839 -9.226501 -9.8585 -10.2435 -9.2565 -9.8465 -13.4866 -10.476 -10.5165 -10.27 -11.219 -12.2705 -16.1621 -20.2705 -17.2679 -23.5302 -21.4721 -17.7651 -14.5491 -15.1741 -8.030001 -13.0468 -12.6123 -7.919 
-6.8525 -3.8745 -2.4945 -3.8825 -1.934 -1.4985 -3.8735 -2.229 -4.02 -5.0895 0 -1.756 -14.6175 -3.8745 -2.4945 -3.8825 -3.2615 -1.4985 -4.2775 -5.0895 -1.934 -1.4985 -5.484 -4.1115 0 
-8.030001 -6.394501 -5.478001 -4.9695 -2.6125 -6.3715 -5.3655 -6.1825 -8.435 -5.0895 -1.756 -14.4365 -12.8845 -6.394501 -5.478001 -7.0165 -4.032 -5.1745 -8.283001 -6.9115 -2.6125 -6.222 -6.72 -4.1115 
-9.6525 -9.0495 -5.959001 -5.375 -7.496 -7.772 -8.493501 -11.2227 -8.435 -6.39 -8.888 -8.995 -9.179501 -9.0495 -8.354501 -7.555 -8.566001 -8.5605 -9.650001 -7.521001 -6.909501 -6.981501 -6.72 
-12.3687 -9.180501 -6.354001 -10.7595 -9.050501 -10.7595 -14.2799 -11.2227 -9.458 -12.5166 -8.995 -10.9405 -11.9927 -12.3868 -9.022501 -12.4188 -12.1082 -9.887501 -10.1405 -12.304 -7.583501 -6.981501 
-12.4997 -9.226501 -11.9083 -12.314 -12.0974 -16.5459 -14.2799 -12.2457 -15.6396 -12.6376 -10.9575 -13.7813 -15.3471 -13.0548 -13.7803 -15.961 -13.4352 -10.2735 -15.1029 -12.978 -7.583501 
-12.16972 -3.8375 -1.7565 -8.993 -1.7565 -4.1865 -3.8375 -2.186 -7.995501 -2.264 -1.4985 -4.02 -4.1115 -4.675 0 -9.222501 -4.3185 -1.7565 -10.245 -1.756 -10.2055 -3.8745 -2.4945 -4.99 -4.2775 -3.7575 -1.934 -1.4985 -10.245 -4.1115 
-16.00722 -5.3875 -11.046 -11.5773 -5.463 -7.4865 -5.9065 -8.556001 -8.931001 -2.9195 -4.969501 -7.5105 -6.957001 -4.675 -9.222501 -13.8956 -5.4615 -12.9507 -12.1934 -10.821 -10.5535 -6.394501 -6.2325 -10.089 -6.5915 -5.82 -2.6125 -12.8373 -14.5489 
-17.55722 -15.6996 -13.6303 -15.2838 -9.121 -9.432 -12.7673 -9.340501 -9.2215 -6.1325 -7.845 -10.4505 -6.957001 -14.9215 -13.8956 -15.0386 -17.3467 -14.8991 -21.2584 -11.169 -13.0735 -8.573001 -11.6719 -12.403 -8.880501 -6.3845 -14.3455 -17.1412 
-27.86932 -18.2839 -17.3368 -18.9418 -11.2181 -16.424 -13.5518 -9.626 -12.5711 -9.3575 -10.6335 -10.4505 -17.6119 -19.5946 -15.0386 -26.9238 -19.2951 -23.9641 -21.6064 -13.689 -15.252 -14.1926 -13.9859 -14.692 -9.422 -18.4143 -18.6494 
-30.45362 -21.9904 -20.9948 -21.0389 -18.2101 -17.2085 -13.8373 -13.1086 -15.7961 -12.2514 -10.6335 -21.1054 -22.285 -20.7376 -26.9238 -28.8722 -28.3601 -24.3121 -24.1264 -15.8675 -20.8716 -16.5066 -16.2749 -15.2335 -21.4518 -22.7182 
-6.8525 -2.9705 -2.4945 -4.935 -4.7715 -3.8745 -2.4945 -4.706 -4.685 -9.486501 -4.197 -1.7565 -3.8735 -1.756 -12.8615 -3.8745 -2.9705 -2.4945 -9.356501 -4.3185 -2.4945 -4.706 -4.685 -2.5195 -3.75 -4.197 -1.7565 -3.8735 
-9.9755 -4.302 -7.988501 -8.274 -8.530001 -6.394501 -7.228 -9.098501 -15.1713 -13.8447 -5.405 -5.112 -5.3865 -8.8835 -7.331501 -6.945001 -4.302 -13.2792 -13.946 -6.996 -7.228 -9.098501 -5.093 -6.0575 -5.285501 -5.405 -5.112 
-11.3282 -10.111 -11.8271 -12.4999 -12.0878 -11.6186 -11.9917 -19.979 -19.5295 -15.0527 -7.417 -6.409 -10.56 -9.577 -9.8935 -7.678 -15.4689 -17.8687 -16.6235 -11.9307 -11.9917 -9.330501 -9.502501 -7.4335 -6.4055 -7.417 
-17.1372 -13.9496 -16.053 -16.0577 -17.3119 -16.3823 -22.8722 -24.3372 -20.7375 -17.0647 -8.503 -11.1585 -10.643 -11.5035 -10.763 -19.2197 -20.0584 -20.5462 -21.5582 -16.6944 -12.2237 -13.8752 -10.9347 -9.1845 -8.123501 
-20.9758 -18.1755 -19.6108 -21.2818 -22.0756 -27.2628 -27.2304 -25.5452 -22.7495 -18.1507 -11.4155 -11.271 -13.2113 -12.5843 -22.5527 -23.8092 -22.7359 -25.4809 -26.3219 -16.9264 -16.7684 -15.3074 -12.6857 -10.5335 
