-4.759 
n/a 
n/a 
n/a 
n/a 
-4.759 
n/a 
n/a 
n/a 
n/a 
-4.759 
n/a 
n/a 
n/a 
n/a 
-4.759 
n/a 
n/a 
n/a 
n/a 
-1.8085 -3.2795 -1.7565 -3.811 -1.756 -3.1935 -4.3655 -2.264 -3.7865 -1.7565 -5.1845 
-4.5305 -4.4575 -5.765501 -5.2245 -4.799 -5.029 -6.408 -6.707001 -6.1105 -6.580501 
-4.854 -8.4785 -6.672501 -5.4625 -6.2805 -7.0915 -11.5038 -9.453501 -10.2805 
-8.7875 -9.344001 -6.843 -6.772 -7.783 -12.4189 -14.2503 -13.7007 
-9.417001 -9.3655 -8.6695 -9.101501 -13.683 -15.1654 -18.4975 
-7.6955 -3.127 -2.0935 -5.1845 -3.7865 0 
-10.9785 -4.761 -7.298 -9.4215 -3.7865 
-13.462 -10.3745 -12.0416 -9.4215 
-19.1829 -15.8825 -12.0416 
-24.6909 -15.8825 
-1.4985 -3.7805 -1.756 -3.915 -3.759 -1.7565 -5.1845 -2.229 -4.062 -3.7865 0 
-4.8195 -5.1485 -5.414001 -7.698501 -4.5295 -6.580501 -8.101 -5.6555 -5.1635 -3.7865 
-6.2125 -6.865 -9.38 -9.149 -9.1335 -9.663001 -12.0287 -7.5515 -5.1635 
-8.1315 -11.3452 -10.9303 -13.9274 -12.4994 -13.7901 -13.9247 -7.5515 
-12.9563 -12.8955 -15.7087 -17.2933 -16.6265 -15.6861 -13.9247 
-9.6365 -3.9675 -2.674 -7.0045 -4.15 
-13.7302 -7.0455 -8.2335 -8.5655 
-16.8082 -13.2621 -11.1105 
-23.0248 -16.333 
-26.0957 
