-4.759 
n/a 
n/a 
n/a 
n/a 
-4.759 
n/a 
n/a 
n/a 
n/a 
-4.759 
n/a 
n/a 
n/a 
n/a 
-4.759 
n/a 
n/a 
n/a 
n/a 
-12.16972 -2.7275 -2.985 -5.0545 -6.805501 
-14.89722 -4.749001 -6.976 -12.1832 
-16.91872 -8.377501 -14.4313 
-20.54722 -15.942 
-28.11172 
-3.9645 -10.9935 -4.824 -6.42 -6.312 
-15.3122 -15.8175 -10.068 -13.195 
-20.1362 -21.0615 -17.0246 
-25.3802 -28.0181 
-32.3368 
-10.225 -2.7275 -5.1565 -4.1415 -6.4025 -12.16972 
-13.0119 -7.017501 -8.547001 -9.1 -19.04862 
-17.3019 -10.01 -13.7087 -21.92492 
-20.2944 -15.1717 -26.53362 
-25.4561 -27.99662 
-9.2915 -6.4865 -6.805501 
-16.4014 -13.7388 
-23.6537 
n/a 
n/a 
