-4.759 
n/a 
n/a 
n/a 
n/a 
-4.759 
n/a 
n/a 
n/a 
n/a 
-4.759 
n/a 
n/a 
n/a 
n/a 
-4.759 
n/a 
n/a 
n/a 
n/a 
-1.4985 -3.699 -3.89 -1.934 -2.3615 -2.186 -8.962001 0 
-5.264 -5.6305 -5.431 -3.539 -3.5005 -12.3584 -8.962001 
-6.218 -6.8285 -6.936501 -6.293 -14.2717 -12.3584 
-8.026 -8.2065 -9.035501 -17.0358 -14.2717 
-8.9565 -9.8915 -20.0819 -17.0358 
-2.3615 -3.699 -2.7415 -8.962001 
-5.6105 -6.8925 -13.0693 
-10.031 -17.7509 
-20.8894 
n/a 
-3.458 -3.277 0 -5.677 0 -2.186 -3.383 -3.699 
-5.3735 -3.277 -5.677 -5.677 -2.186 -4.438 -5.014 
-5.3735 -10.375 -5.677 -7.7665 -4.438 -5.451 
-12.5981 -10.375 -7.7665 -10.292 -5.451 
-12.5981 -12.4645 -10.292 -11.305 
-4.525 -2.186 -1.4985 -3.699 -2.871 -1.934 -3.1495 
-6.239 -3.339 -5.264 -6.3315 -4.8125 -4.5395 
-7.795 -6.9335 -7.808001 -7.575 -7.903 
-11.6311 -8.186 -9.080501 -10.0185 
-12.8836 -9.3035 -11.857 
