-4.759 
n/a 
n/a 
n/a 
n/a 
-4.759 
n/a 
n/a 
n/a 
n/a 
-4.759 
n/a 
n/a 
n/a 
n/a 
-4.759 
n/a 
n/a 
n/a 
n/a 
-2.4265 -2.186 -2.6165 -4.3895 -1.934 -3.3785 
-3.292 -3.5105 -6.282001 -5.879 -4.5895 
-4.443 -6.7065 -7.863 -8.6695 
-8.354501 -8.7305 -10.4035 
-9.9805 -11.377 
-2.3615 -2.186 -2.6165 -1.4985 -3.3785 -3.89 
-3.5005 -3.5105 -4.2225 -4.4495 -7.7145 
-4.744 -4.8535 -7.3605 -8.9455 
-5.5525 -8.148001 -12.0941 
-8.815001 -13.0242 
-2.3615 -2.6165 -1.8085 -4.7935 -5.923 -3.895 0 
-5.456 -4.0345 -6.46 -9.375 -10.9424 -3.895 
-5.8115 -8.264501 -11.9251 -15.0672 -10.9424 
-11.5095 -13.8242 -17.6173 -15.0672 
-17.0692 -19.5164 -17.6173 
-2.3615 -2.7415 -2.6165 -3.4915 -4.0535 
-4.455 -4.266 -5.27 -8.078501 
-5.7415 -6.711 -10.2335 
-8.5015 -11.9077 
-14.3092 
