-4.759 
n/a 
n/a 
n/a 
n/a 
-4.759 
n/a 
n/a 
n/a 
n/a 
-4.759 
n/a 
n/a 
n/a 
n/a 
-4.759 
n/a 
n/a 
n/a 
n/a 
-4.4755 -1.756 -4.088 -2.674 -4.69 -2.5045 -4.2775 -4.6945 -3.5065 -1.4985 -4.6625 -4.153 0 
-5.863 -6.205 -6.8535 -6.841001 -6.4135 -6.0845 -6.838 -7.813001 -4.358 -5.6305 -6.721001 -4.153 
-7.303 -8.118501 -11.3541 -8.124001 -8.6575 -7.459001 -9.478001 -8.433001 -8.172501 -6.9425 -6.721001 
-9.2565 -12.7429 -12.6371 -10.0345 -9.396501 -10.022 -10.3115 -12.4509 -8.5155 -6.9425 
-13.9631 -14.0259 -14.5476 -10.538 -12.0555 -10.569 -14.3294 -12.7939 -8.5155 
-9.410001 -1.756 -4.088 -2.7415 -4.794 -1.934 -2.6615 -4.184 -7.9525 
-10.958 -6.205 -6.599 -6.637 -6.64 -5.1955 -5.858 -9.9135 
-15.407 -8.290501 -10.078 -8.3155 -9.2775 -7.9865 -12.1555 
-17.4925 -11.8465 -12.0651 -10.322 -12.4075 -14.8288 
-21.0485 -13.8336 -14.0716 -13.4712 -19.2498 
-4.4755 -1.756 -4.088 -4.6625 -4.674 -4.2775 -3.958 -4.5675 
-5.863 -6.205 -8.89 -9.708 -8.434 -8.7995 -9.441501 
-7.303 -11.5176 -14.3675 -13.468 -13.1196 -14.54 
-12.8516 -16.9951 -18.1275 -18.1536 -18.8601 
-18.3291 -20.7551 -22.8131 -23.8941 
-4.4755 -1.756 -4.088 -2.6615 -4.184 -4.153 -1.7565 -3.766 -7.5345 -1.7695 -3.685 0 
-5.863 -6.205 -7.165 -5.858 -5.8855 -5.909501 -5.1285 -10.089 -10.647 -4.9795 -3.685 
-7.303 -9.585001 -10.2535 -8.0205 -8.639501 -7.998001 -10.7595 -13.3645 -13.857 -4.9795 
-10.634 -12.6735 -12.416 -10.586 -10.9784 -14.2884 -14.035 -16.5745 -13.857 
-13.7225 -14.836 -14.9815 -12.9249 -17.2688 -17.5639 -17.245 -16.5745 
