-4.759 
n/a 
n/a 
n/a 
n/a 
-4.759 
n/a 
n/a 
n/a 
n/a 
-4.759 
n/a 
n/a 
n/a 
n/a 
-4.759 
n/a 
n/a 
n/a 
n/a 
-3.0415 -3.135 -6.705 -3.7805 -6.5825 0 
-5.978 -11.071 -10.0855 -9.456 -6.5825 
-14.315 -14.4515 -15.8632 -9.456 
-17.6955 -20.2292 -15.8632 
-23.4732 -20.2292 
-3.433 -1.7565 -2.9705 -3.3715 -3.7805 -6.5825 0 
-4.1845 -4.3815 -6.0305 -6.698 -9.456 -6.5825 
-7.5325 -7.288001 -10.2485 -13.3071 -9.456 
-9.4345 -11.8678 -16.8576 -13.3071 
-14.0629 -18.4769 -16.8576 
-3.0415 0 -3.135 -4.3225 -3.7555 -1.8085 -4.264 
-3.0415 -3.135 -7.2565 -8.499001 -4.597 -5.4415 
-5.978 -7.2565 -12.0938 -9.446501 -8.813 
-10.238 -12.0938 -13.0413 -13.7005 
-15.0753 -13.0413 -17.2953 
-1.934 -2.3615 -4.0505 -3.135 -3.8195 -3.0465 -6.5825 
-3.539 -5.51 -7.2375 -7.337 -7.5065 -10.2185 
-6.08 -8.375 -11.7655 -11.493 -15.2805 
-9.095 -13.0754 -15.9215 -19.267 
-13.8676 -17.2314 -23.6955 
