-4.759 
n/a 
n/a 
n/a 
n/a 
-4.759 
n/a 
n/a 
n/a 
n/a 
-4.759 
n/a 
n/a 
n/a 
n/a 
-4.759 
n/a 
n/a 
n/a 
n/a 
-2.3585 -2.674 -3.2895 -1.7695 -3.013 -2.5235 -4.384 
-3.6565 -6.413 -4.985001 -3.7215 -5.346001 -6.666 
-7.47 -6.9415 -7.210001 -6.043 -7.541501 
-8.019501 -8.696 -10.5229 -8.279 
-9.738501 -12.1245 -12.7589 
-2.3585 -2.674 -3.098 -3.519 -1.7695 -3.013 -4.384 
-3.6565 -5.359 -6.9785 -4.761 -3.7215 -7.9335 
-6.4735 -9.693001 -8.639501 -6.633 -8.191 
-11.1589 -10.2775 -10.259 -11.8207 
-11.7434 -11.897 -15.5077 
-4.28 -2.186 -3.7855 -1.7695 -2.3585 -2.0935 -3.098 -3.013 -1.4985 -4.384 
-5.493 -4.9225 -4.793 -4.061 -4.3685 -5.109 -5.5995 -4.488 -5.604 
-7.127 -5.685 -6.303 -5.4645 -7.844 -10.0415 -6.873 -8.407001 
-7.379 -7.489 -7.321501 -8.271501 -12.9375 -11.315 -10.7454 
-9.432 -8.861 -10.8747 -13.508 -14.211 -15.1874 
-2.3585 -2.674 -3.401 -3.098 -1.7695 -3.013 -2.5235 -4.6865 0 
-3.6565 -6.4755 -6.9215 -4.6695 -3.7215 -5.346001 -6.7965 -4.6865 
-7.386001 -10.2535 -8.135501 -7.370501 -6.043 -8.916 -6.7965 
-10.6215 -10.562 -10.5225 -9.623501 -9.481501 -8.916 
-10.7785 -12.949 -12.7755 -13.2804 -9.481501 
