-4.759 
n/a 
n/a 
n/a 
n/a 
-4.759 
n/a 
n/a 
n/a 
n/a 
-4.759 
n/a 
n/a 
n/a 
n/a 
-4.759 
n/a 
n/a 
n/a 
n/a 
-2.9805 -2.7415 -3.3195 -2.5045 -1.8085 -5.202 -1.7565 -3.982 -1.934 -4.971 0 
-4.004 -5.298 -6.3195 -3.3625 -7.448 -6.168 -5.614 -5.9555 -6.2535 -4.971 
-7.520501 -7.788 -7.243001 -8.6035 -8.419001 -7.6585 -7.089 -7.999001 -6.2535 
-8.756001 -8.2775 -13.01 -9.413 -10.3675 -8.695001 -8.823501 -7.999001 
-9.425001 -14.1621 -13.8195 -11.3895 -11.404 -9.1685 -8.823501 
-1.934 -4.5065 -2.9805 -4.648 -2.5045 -1.8085 -4.176 -5.202 
-5.7025 -6.8105 -7.014501 -5.8555 -3.3625 -5.6635 -6.6965 
-7.035 -10.5035 -8.700001 -6.607 -7.354 -8.956 
-10.702 -12.189 -9.878 -11.5417 -9.8125 
-12.3875 -13.367 -15.0267 -14.0002 
-2.9805 -2.8645 -4.645 -2.5045 -4.176 -2.229 -5.202 -1.934 -1.4985 -3.158 -4.971 0 
-4.3245 -6.54 -6.168001 -7.0535 -6.807 -7.298 -7.178 -2.6125 -4.178 -7.808001 -4.971 
-8.4715 -8.944 -9.915501 -9.7475 -10.2035 -8.4595 -7.9635 -5.265 -8.3935 -7.808001 
-11.1635 -12.9987 -13.2211 -13.1982 -11.6926 -10.1425 -10.3035 -8.8785 -8.3935 
-15.2182 -16.3043 -16.6718 -14.6873 -13.3756 -12.4825 -13.917 -8.8785 
-1.934 -4.971 -2.9805 -4.3195 -1.4985 -5.202 -1.7565 -3.982 
-6.2535 -7.3395 -5.4865 -5.1515 -5.943001 -6.168 -5.614 
-7.5825 -8.848001 -6.313 -9.0915 -6.721001 -7.6585 
-8.9505 -9.740001 -9.786 -9.232 -8.333001 
-9.823501 -13.2492 -9.93 -9.7665 
