-4.759 
n/a 
n/a 
n/a 
n/a 
-4.759 
n/a 
n/a 
n/a 
n/a 
-4.759 
n/a 
n/a 
n/a 
n/a 
-4.759 
n/a 
n/a 
n/a 
n/a 
-2.3615 -2.186 -1.4985 -4.98 -2.186 -4.025 -2.0935 -2.5685 -4.8625 
-3.5005 -3.339 -6.3295 -6.9545 -5.0765 -5.959 -3.987 -7.3575 
-4.3105 -8.529 -7.6425 -10.218 -7.199 -8.2515 -8.332001 
-9.401501 -10.4035 -10.99 -12.5765 -10.0125 -13.1209 
-11.672 -13.751 -13.3485 -15.39 -14.9093 
-2.6165 -3.354 -2.0935 -5.1215 -3.3775 -1.7695 -2.5685 -9.6365 0 
-4.9185 -5.0115 -7.0625 -8.629 -4.9625 -4.2305 -11.136 -9.6365 
-7.3645 -10.513 -11.1384 -10.4438 -7.8765 -13.1488 -11.136 
-13.4046 -14.5889 -12.9532 -13.3578 -17.1308 -13.1488 
-17.4805 -16.4037 -15.8672 -22.6121 -17.1308 
-2.0935 -2.5685 -8.27 -3.0365 -2.186 -2.847 -3.776 -4.421 0 
-3.987 -9.599501 -10.634 -3.66 -4.1045 -5.8345 -8.21 -4.421 
-9.911 -12.1823 -11.2575 -4.256001 -6.6665 -9.055 -8.21 
-13.0248 -12.8058 -11.8535 -6.6705 -9.2475 -9.055 
-13.6483 -13.4018 -14.268 -9.2475 -9.2475 
-2.5685 -5.1845 -4.9225 -2.6165 -3.776 -4.421 0 
-8.3965 -9.13 -7.968 -6.4115 -8.21 -4.421 
-12.4674 -12.3101 -12.2194 -11.7235 -8.21 
-15.6475 -16.5615 -17.5314 -11.7235 
-19.8989 -21.8735 -17.5314 
