-4.759 
n/a 
n/a 
n/a 
n/a 
-4.759 
n/a 
n/a 
n/a 
n/a 
-4.759 
n/a 
n/a 
n/a 
n/a 
-4.759 
n/a 
n/a 
n/a 
n/a 
-3.288 0 -5.1845 -6.899 -2.688 -3.158 
-3.288 -5.1845 -9.83 -10.209 -4.7705 
-9.995501 -9.83 -13.4218 -10.39 
-14.9486 -13.4218 -13.6028 
-18.5404 -13.6028 
-3.288 0 -5.1845 -6.9645 -2.688 -3.158 
-3.288 -5.1845 -13.4434 -10.382 -4.7705 
-9.995501 -13.4434 -16.8609 -12.4645 
-18.562 -16.8609 -18.9434 
-21.9795 -18.9434 
-8.4725 -2.688 -3.158 -3.193 
-12.0765 -4.7705 -6.34 
-10.7615 -7.3475 
-11.769 
n/a 
-3.288 0 -5.1845 -6.899 -2.688 -3.158 
-3.288 -5.1845 -9.83 -10.209 -4.7705 
-9.995501 -9.83 -13.4218 -10.39 
-14.9486 -13.4218 -13.6028 
-18.5404 -13.6028 
