-4.759 
n/a 
n/a 
n/a 
n/a 
-4.759 
n/a 
n/a 
n/a 
n/a 
-4.759 
n/a 
n/a 
n/a 
n/a 
-4.759 
n/a 
n/a 
n/a 
n/a 
-3.533 -8.76 0 -5.7865 0 
-10.1555 -8.76 -5.7865 -5.7865 
-10.1555 -15.0269 -5.7865 
-16.7122 -15.0269 
-16.7122 
-3.533 0 -7.649 0 -5.7865 0 
-3.533 -7.649 -7.649 -5.7865 -5.7865 
-11.7038 -7.649 -11.0145 -5.7865 
-11.7038 -11.0145 -11.0145 
-15.0693 -11.0145 
-3.533 0 -8.76 
-3.533 -8.76 
-10.1555 
n/a 
n/a 
-3.533 0 -10.178 0 -5.7865 0 
-3.533 -10.178 -10.178 -5.7865 -5.7865 
-14.2328 -10.178 -16.3751 -5.7865 
-14.2328 -16.3751 -16.3751 
-20.4299 -16.3751 
