-4.759 
n/a 
n/a 
n/a 
n/a 
-4.759 
n/a 
n/a 
n/a 
n/a 
-4.759 
n/a 
n/a 
n/a 
n/a 
-4.759 
n/a 
n/a 
n/a 
n/a 
-4.299 -2.264 -10.4975 -6.3565 -3.918 0 -3.5905 
-5.322001 -13.7935 -17.3586 -7.448 -3.918 -3.5905 
-17.4159 -20.6546 -18.4501 -7.448 -8.0625 
-24.277 -21.7461 -18.4501 -12.0297 
-25.3685 -21.7461 -23.0318 
-12.16972 -4.4345 -4.683 -4.299 -3.5905 
-16.60422 -10.5477 -10.4505 -8.427 
-22.71742 -16.3152 -14.5785 
-28.48492 -20.4432 
-32.61292 
-3.5905 0 -7.8145 -3.38 -4.145 -4.299 0 
-3.5905 -7.8145 -9.074 -5.1535 -8.311501 -4.299 
-10.5865 -9.074 -9.165501 -9.430501 -8.311501 
-12.4156 -9.165501 -13.6243 -9.430501 
-12.5071 -13.6243 -13.6243 

n/a 
n/a 
n/a 
n/a 
