-4.759 
n/a 
n/a 
n/a 
n/a 
-4.759 
n/a 
n/a 
n/a 
n/a 
-4.759 
n/a 
n/a 
n/a 
n/a 
-4.759 
n/a 
n/a 
n/a 
n/a 
-8.5955 -5.7045 -2.5195 -6.3215 0 -3.5015 0 -5.1845 -5.821 -3.618 
-14.7222 -7.928 -8.212 -6.3215 -3.5015 -3.5015 -5.1845 -9.933001 -10.8168 
-16.9457 -13.8625 -8.212 -10.8215 -3.5015 -9.329 -9.933001 -15.4592 
-22.8802 -13.8625 -13.06 -10.8215 -9.329 -14.5313 -15.4592 
-22.8802 -18.7105 -13.06 -16.649 -14.5313 -20.0575 
-3.759 -1.7565 -8.8655 -2.5195 -1.4985 -6.3215 -5.1845 -4.245 -3.16 -3.759 0 
-4.5295 -10.586 -11.8292 -3.1695 -8.272 -8.106001 -7.991 -7.5425 -7.695001 -3.759 
-14.024 -13.5497 -12.4792 -9.506001 -10.5745 -12.3549 -11.6079 -12.9591 -7.695001 
-16.9877 -14.1997 -18.8157 -11.9445 -15.294 -15.9718 -17.0245 -12.9591 
-17.6377 -20.5362 -21.2542 -16.664 -18.9109 -21.3884 -17.0245 
-6.3215 -5.1845 -4.245 -4.1985 -3.999 -3.6205 -1.934 -2.3615 -8.5955 -3.32 0 
-8.106001 -7.991 -9.485001 -7.922 -8.1185 -5.5265 -3.539 -12.2452 -12.3377 -3.32 
-12.3549 -13.5504 -13.4179 -12.3041 -10.1945 -7.241 -14.1277 -15.9874 -12.3377 
-17.9143 -17.4833 -17.8 -14.3801 -11.909 -18.2269 -17.8699 -15.9874 
-21.8472 -21.8654 -19.876 -16.0946 -22.8949 -21.9691 -17.8699 
-8.5955 -3.32 -1.934 -6.3215 -5.1845 -4.245 -3.992 -3.32 -4.397 0 
-12.3377 -5.544001 -7.453 -8.106001 -7.991 -8.071501 -8.495501 -8.869 -4.397 
-14.5617 -11.6872 -8.8865 -12.3549 -10.76 -13.4794 -14.2133 -8.869 
-20.7049 -13.1207 -13.4848 -15.1239 -16.1679 -19.1972 -14.2133 
-22.1384 -17.719 -16.2538 -20.5318 -21.8857 -19.1972 
