-4.759 
n/a 
n/a 
n/a 
n/a 
-4.759 
n/a 
n/a 
n/a 
n/a 
-4.759 
n/a 
n/a 
n/a 
n/a 
-4.759 
n/a 
n/a 
n/a 
n/a 
-6.36 -3.074 -4.0225 -2.5045 -1.4985 -2.95 
-9.324 -6.8575 -6.4015 -3.1915 -3.9285 
-13.2719 -8.995001 -7.191 -4.5155 
-15.4094 -9.8745 -8.8765 
-16.2889 -11.5712 
-3.851 -1.7695 -4.1435 -4.1705 -1.7565 -4.086 -6.36 -5.1945 0 
-4.0015 -6.5305 -8.558001 -5.2045 -5.332 -10.985 -11.117 -5.1945 
-7.771 -11.4022 -9.337501 -6.948501 -12.5582 -15.742 -11.117 
-12.8377 -12.1817 -10.182 -14.9403 -17.3152 -15.742 
-13.6172 -13.0262 -18.1738 -19.6973 -17.3152 
-6.9175 0 -4.1435 -6.5285 -4.9175 -4.5175 -5.874 -1.934 0 -6.36 0 -4.3005 -6.999001 -3.836 -4.1435 -3.5135 0 
-6.9175 -4.1435 -10.3965 -12.3886 -8.7395 -10.802 -8.379 -1.934 -6.36 -6.36 -4.3005 -9.868 -11.6542 -8.099501 -8.479 -3.5135 
-11.9924 -10.3965 -16.2566 -16.2106 -15.3078 -13.307 -8.379 -8.9855 -6.36 -10.564 -9.868 -15.4026 -15.9177 -13.4692 -8.479 
-18.2454 -16.2566 -20.0786 -22.7789 -17.8128 -13.307 -15.6239 -8.9855 -10.564 -16.1315 -15.4026 -19.6661 -21.2874 -13.4692 
-24.1055 -20.0786 -26.6469 -25.2839 -17.8128 -20.5519 -15.6239 -13.3169 -16.1315 -21.6661 -19.6661 -25.0358 -21.2874 
-4.4905 -1.7565 -3.8725 -1.7565 -4.086 -3.958 -1.756 -6.36 -4.3005 -4.086 -4.008 -1.756 -5.3745 0 
-7.899501 -6.689001 -6.8265 -5.332 -7.569 -5.699 -7.9445 -10.564 -9.173 -9.0155 -5.792 -7.9505 -5.3745 
-13.2036 -9.551001 -10.8332 -8.617001 -9.6055 -12.7693 -12.3935 -15.4365 -14.4571 -10.9713 -13.0189 -7.9505 
-16.0656 -14.0061 -14.1182 -10.8983 -16.8178 -17.2183 -17.266 -20.7206 -16.4129 -18.1982 -13.0189 
-20.5207 -17.2911 -16.3995 -18.1106 -21.2668 -22.0908 -22.5501 -22.6764 -23.6398 -18.1982 
