-4.759 
n/a 
n/a 
n/a 
n/a 
-4.759 
n/a 
n/a 
n/a 
n/a 
-4.759 
n/a 
n/a 
n/a 
n/a 
-4.759 
n/a 
n/a 
n/a 
n/a 
-3.17 -1.7565 -1.4985 -3.485 -4.02 -1.7565 -5.5865 -4.5445 -5.6025 0 -4.0305 -1.934 -2.8845 0 -3.152 -4.8875 -1.7565 -5.7565 -4.9225 -2.5195 -3.875 -3.436 -4.9795 -3.8405 -1.756 -3.436 -3.4225 -4.39 
-4.179 -2.4195 -4.147 -6.074 -5.1665 -7.626501 -10.3045 -10.1555 -5.6025 -4.0305 -5.958001 -4.7805 -2.8845 -3.152 -8.049001 -6.117001 -7.960001 -10.703 -7.17 -5.8335 -7.1755 -8.781501 -6.6125 -5.3535 -5.457 -7.717 -4.7525 
-4.497 -5.0865 -6.6755 -7.5235 -10.279 -12.2075 -15.6756 -10.1555 -9.4665 -5.958001 -7.995501 -4.7805 -6.5265 -8.049001 -8.106501 -12.9949 -13.1059 -12.9505 -9.491501 -8.955501 -12.9518 -10.8103 -7.802001 -8.087001 -9.938001 -8.705501 
-7.1615 -7.630001 -7.754001 -12.6275 -15.2868 -18.1145 -15.8152 -14.0195 -11.5396 -7.995501 -7.995501 -7.2085 -11.7947 -8.106501 -15.0346 -18.1408 -15.3534 -15.272 -12.8749 -14.9098 -14.9806 -11.9998 -10.4585 -12.7856 -11.1311 
-9.7825 -8.675 -12.842 -17.9435 -21.5652 -18.1145 -19.6792 -16.0926 -13.5771 -7.995501 -10.609 -12.5305 -11.8522 -15.0346 -20.1805 -20.3883 -17.6749 -18.6554 -18.8292 -16.9386 -16.1701 -14.6563 -15.1571 -13.9787 
-4.4285 -1.7565 -1.4985 -3.8825 0 -2.8845 0 -5.0515 -1.7565 -5.5865 -7.148 -5.6025 -2.4945 -1.4985 -5.4975 -1.7565 -1.4985 -3.1385 -4.0555 -2.5195 -3.875 -3.436 -1.4985 -3.8405 -1.7565 -6.061 -1.756 -5.0265 -3.5435 0 
-4.6405 -2.4195 -4.569 -3.8825 -2.8845 -2.8845 -5.0515 -5.598001 -7.626501 -11.612 -13.2205 -6.914001 -3.9315 -6.3765 -5.879001 -2.4195 -4.2575 -6.3625 -5.0775 -5.8335 -7.1755 -4.213 -4.7545 -4.563 -6.856501 -6.764 -5.853 -8.1115 -3.5435 
-5.2 -5.1885 -4.569 -7.818 -2.8845 -8.345501 -5.598001 -12.201 -14.3031 -18.2661 -14.532 -8.5845 -7.494 -6.436501 -6.5825 -5.013 -7.5265 -7.3935 -7.824 -8.955501 -7.769001 -7.1375 -5.365 -9.113 -7.493501 -11.6874 -8.3865 -8.1115 
-8.563001 -5.1885 -8.981501 -7.818 -8.345501 -8.476501 -12.201 -19.1244 -20.5654 -19.5776 -16.2025 -12.5042 -7.517 -7.087501 -8.6 -8.396001 -8.724 -9.589001 -10.2435 -9.445001 -11.1587 -7.9195 -9.344501 -9.7495 -12.5777 -14.2209 -8.3865 
-8.563001 -10.3815 -8.981501 -13.6268 -8.476501 -15.1945 -19.1244 -25.2699 -21.8769 -21.2481 -20.1222 -12.5272 -8.075001 -8.859 -12.5338 -9.463 -10.9183 -12.1521 -11.1512 -13.0491 -11.9407 -12.0744 -9.948001 -14.9303 -15.1112 -14.2209 
-1.8085 -4.4285 -1.7565 -1.4985 -3.634 0 -2.8845 0 -4.5435 -1.7565 -5.5865 -3.748 -5.6025 0 -2.4945 -6.755 -1.7565 -5.59 0 -3.0695 -4.518 -3.8655 -3.5455 -1.4985 -4.9795 -3.8405 -1.756 -3.436 -1.4985 -4.794 -3.5435 0 
-5.2695 -4.6405 -2.4195 -4.943501 -3.634 -2.8845 -2.8845 -4.5435 -5.295001 -7.626501 -7.937 -7.4425 -5.6025 -2.4945 -9.8325 -8.035 -6.759501 -5.59 -3.0695 -7.013 -8.362 -7.121 -3.91 -5.952001 -6.6125 -5.3535 -5.457 -4.213 -5.696 -6.595 -3.5435 
-5.427 -5.2 -5.876 -4.943501 -7.4675 -2.8845 -7.156 -5.295001 -10.612 -9.687 -11.282 -7.4425 -6.914001 -9.8325 -10.2125 -13.3604 -6.759501 -7.1775 -7.013 -10.2135 -10.674 -7.451 -7.2695 -6.9375 -7.802001 -8.087001 -6.205 -8.634501 -7.351 -6.595 
-5.781 -8.901 -5.876 -8.344501 -7.4675 -7.156 -7.7795 -10.4675 -11.3085 -12.497 -11.664 -8.665001 -14.721 -10.2125 -15.5379 -13.3604 -8.241501 -10.396 -10.2135 -12.5255 -11.004 -10.564 -7.528 -8.006001 -10.4585 -8.384001 -10.7513 -10.2035 -7.351 
-9.808001 -8.901 -9.401 -8.344501 -12.2988 -7.7795 -13.7142 -11.3085 -15.698 -12.727 -12.6855 -16.8228 -15.101 -15.5379 -15.5379 -14.8424 -11.5632 -13.6681 -12.5255 -12.8555 -14.117 -10.6395 -8.506001 -10.5425 -10.7555 -13.2563 -12.3203 -10.2035 
-3.485 0 -2.8845 0 -4.889 -5.5865 -3.748 -3.17 -1.7565 -5.6025 -1.4985 -3.8405 -1.7565 -5.171 -2.229 0 -1.756 -2.925 -2.4945 -4.0225 -2.5195 -1.4985 -4.836 -1.7565 -3.875 -3.0695 -3.152 -3.436 -1.4985 -4.043 -3.5435 0 
-3.485 -2.8845 -2.8845 -4.889 -10.762 -7.937 -7.3805 -4.179 -6.755001 -7.224 -4.7545 -4.563 -7.2335 -7.098001 -2.229 -1.756 -4.2585 -3.7675 -5.396 -5.119 -3.1695 -6.8795 -7.718501 -5.1745 -6.946 -4.8015 -6.429 -4.213 -5.182 -8.318001 -3.5435 
-7.434 -2.8845 -8.482 -9.867001 -12.0575 -11.184 -7.6505 -10.1635 -8.4165 -10.8406 -5.365 -10.089 -9.419001 -7.098001 -4.366 -4.2585 -5.16 -6.6235 -6.2135 -5.74 -8.927501 -8.999001 -11.7663 -7.964001 -8.3585 -7.883 -7.0725 -9.0165 -9.074501 -8.318001 
-7.434 -8.482 -13.964 -12.6085 -16.67 -11.8135 -14.3058 -11.825 -12.1703 -11.4511 -10.442 -12.2745 -9.419001 -10.0745 -6.8715 -5.16 -7.874001 -7.251 -7.1545 -11.7412 -10.674 -13.0252 -14.5558 -9.144501 -11.518 -9.1835 -12.1342 -12.9654 -9.074501 
-13.5375 -13.964 -16.7055 -16.67 -16.9175 -18.4608 -15.9673 -15.5788 -12.7808 -16.5281 -12.6275 -12.2745 -12.4641 -12.58 -7.7025 -7.874001 -9.090501 -8.213501 -13.3359 -13.4877 -14.7002 -15.8147 -15.7363 -12.4026 -12.8185 -14.5482 -16.0831 -12.9654 
