-4.759 
n/a 
n/a 
n/a 
n/a 
-4.759 
n/a 
n/a 
n/a 
n/a 
-4.759 
n/a 
n/a 
n/a 
n/a 
-4.759 
n/a 
n/a 
n/a 
n/a 
-6.0335 -4.0455 0 -3.06 -4.3225 -4.783 -1.756 -2.4945 -4.0655 -2.0935 -4.7455 0 
-9.7675 -4.0455 -3.06 -6.1105 -6.833 -6.0755 -4.2725 -5.2585 -4.742 -6.3065 -4.7455 
-9.7675 -7.989 -6.1105 -8.360001 -8.175 -7.8145 -6.563001 -6.0205 -8.646001 -6.3065 
-13.7862 -9.801001 -8.360001 -9.647 -10.1185 -10.328 -7.315001 -9.139001 -8.646001 
-15.5982 -12.4535 -9.647 -11.6089 -12.765 -10.399 -9.170501 -9.139001 
-4.684 -4.442 0 -3.7515 -3.06 -4.3225 -4.1165 0 
-6.7105 -4.442 -3.7515 -6.8335 -6.1105 -6.6995 -4.1165 
-6.7105 -7.725 -6.8335 -9.243501 -8.593 -6.6995 
-10.411 -10.396 -9.243501 -12.0346 -8.593 
-13.082 -10.686 -12.0346 -12.0346 
-3.5905 -4.0455 0 -2.7835 -1.8085 -4.0455 -2.186 -3.06 -4.3225 -1.934 -4.783 0 -4.7455 -2.742 -3.584 
-7.079 -4.0455 -2.7835 -4.329 -5.2965 -5.900001 -5.944 -6.1105 -6.207 -5.6455 -4.783 -4.7455 -7.847 -5.3095 
-7.079 -6.6735 -4.329 -7.2555 -7.035501 -9.5445 -8.484 -7.809 -6.91 -5.6455 -10.019 -7.847 -10.8731 
-9.6285 -8.2015 -7.2555 -8.190001 -10.459 -12.3345 -9.738501 -8.4595 -6.91 -10.31 -13.1205 -10.8731 
-11.3255 -9.411 -8.190001 -11.8263 -13.4254 -13.589 -10.2615 -8.4595 -11.7017 -13.4115 -16.1466 
-4.684 -4.442 -3.06 -4.3225 -4.193 -1.7565 -2.95 
-6.7105 -7.884001 -6.1105 -9.388 -4.7225 -4.3865 
-10.2535 -9.443001 -11.7084 -10.2345 -6.829 
-11.9851 -15.5409 -12.5549 -12.2406 
-18.083 -16.3874 -14.561 
