-4.759 
n/a 
n/a 
n/a 
n/a 
-4.759 
n/a 
n/a 
n/a 
n/a 
-4.759 
n/a 
n/a 
n/a 
n/a 
-4.759 
n/a 
n/a 
n/a 
n/a 
-4.161 -2.7765 -4.7665 -6.797 -3.585 0 
-6.569 -6.413 -10.2705 -8.686001 -3.585 
-9.6415 -11.7575 -14.0385 -9.017 
-15.1206 -15.6837 -14.0385 
-18.9206 -15.6837 
-3.5965 -2.674 -6.797 -5.8865 -4.0415 0 
-7.1645 -7.6755 -11.9135 -8.533501 -4.0415 
-12.697 -13.3045 -13.089 -8.533501 
-18.516 -16.1845 -13.089 
-21.163 -16.1845 
-4.161 -2.674 -3.383 -3.9525 -5.922 0 
-6.581 -5.6065 -5.834001 -9.745501 -5.922 
-9.486501 -8.589001 -11.9418 -9.745501 
-12.4382 -14.8362 -11.9418 
-18.6854 -14.8362 
-3.5965 -4.0725 -2.9645 -1.7695 -2.674 0 
-8.029 -6.165501 -4.905 -3.8225 -2.674 
-9.981001 -9.588 -7.0495 -3.8225 
-13.7399 -11.7761 -7.0495 
-15.928 -11.7761 
