-4.759 
n/a 
n/a 
n/a 
n/a 
-4.759 
n/a 
n/a 
n/a 
n/a 
-4.759 
n/a 
n/a 
n/a 
n/a 
-4.759 
n/a 
n/a 
n/a 
n/a 
-5.309 -3.152 -4.2085 -1.7695 -4.677 
-6.841 -5.995 -5.4655 -6.900001 
-8.631001 -6.864501 -9.899001 
-9.3975 -11.4288 
-14.1082 
-7.8385 -3.627 -2.0935 -5.585 0 
-11.8555 -5.662 -8.097 -5.585 
-13.8905 -12.2421 -8.097 
-20.4706 -12.2421 
-20.4706 
-1.4985 -6.8125 -2.4945 -3.985 -1.7695 -5.585 0 
-8.209001 -8.332001 -7.666 -5.919 -7.802501 -5.585 
-9.597 -13.6847 -9.412001 -12.6812 -7.802501 
-14.9757 -15.4307 -16.6978 -12.6812 
-16.7217 -22.7165 -16.6978 
-2.0935 -5.585 -6.8175 -5.309 -8.254001 
-8.097 -13.3425 -12.8407 -14.4956 
-16.1539 -19.3657 -22.0273 
-22.1771 -28.5523 
-31.3637 
