-4.759 
n/a 
n/a 
n/a 
n/a 
-4.759 
n/a 
n/a 
n/a 
n/a 
-4.759 
n/a 
n/a 
n/a 
n/a 
-4.759 
n/a 
n/a 
n/a 
n/a 
-2.9805 -4.0585 -1.4985 -4.4525 -1.7565 -4.7615 -1.7565 -2.3615 -3.5015 -2.264 -4.5925 -1.7565 -4.39 -4.1865 -3.3035 -2.9805 -3.43 -2.664 -3.8675 -2.356 -5.6295 -7.325 -5.4175 -1.934 -3.6525 -5.5435 
-7.5375 -4.7185 -4.731 -4.6715 -6.009 -6.082 -3.523 -5.2225 -5.1645 -4.7155 -4.707 -7.255001 -8.2075 -7.119 -6.129001 -5.2875 -5.286 -5.2005 -5.006 -8.253501 -9.935501 -10.2925 -7.5185 -6.195 -8.043 
-8.2045 -6.28 -4.7575 -8.366 -8.184501 -8.262501 -6.553 -7.3725 -8.429001 -4.7185 -10.31 -11.5799 -11.891 -9.799 -8.677501 -6.932001 -7.381 -5.8335 -10.2085 -12.8071 -13.1296 -12.8867 -12.1313 -10.3285 
-9.983001 -6.3035 -8.450001 -10.586 -10.7094 -9.790001 -8.7185 -10.054 -8.432 -10.3535 -14.8719 -15.2634 -14.571 -12.3971 -10.335 -8.8415 -7.632 -10.494 -14.7621 -16.0012 -15.7238 -17.4995 -16.2648 
-10.017 -10.1715 -10.6875 -13.5549 -12.2369 -12.0687 -11.3574 -10.063 -14.3286 -14.9498 -18.5554 -17.9434 -17.1691 -14.0546 -12.2445 -8.946501 -12.4849 -15.0476 -17.9562 -18.5954 -20.3366 -21.633 
-2.9805 -4.443 -2.7455 -2.3335 -3.5015 -2.229 -4.4525 0 -1.934 -5.5435 -2.9805 -4.0875 -3.8675 -2.356 -5.6295 -5.396 -5.298 -3.325 -3.091 -4.065 -3.5435 
-5.631001 -6.554501 -4.9975 -5.909 -6.677 -6.485 -4.4525 -1.934 -6.953 -7.888 -5.359 -10.674 -5.006 -8.253501 -8.8325 -10.543 -9.4995 -5.621 -7.226 -6.1265 
-7.436 -8.216001 -7.830501 -8.823501 -9.2465 -6.485 -5.908501 -6.953 -8.1825 -10.0315 -12.2547 -11.8125 -10.2085 -9.874001 -14.3247 -14.7445 -12.0479 -10.4675 -10.2865 
-9.057501 -10.7335 -10.9234 -11.5464 -9.2465 -7.5245 -11.5013 -8.1825 -10.2035 -17.0734 -13.3932 -17.015 -11.829 -15.9658 -18.5262 -17.2929 -16.8944 -13.528 
-11.64 -13.8264 -13.6463 -11.5464 -9.3395 -13.3183 -12.7308 -10.2035 -17.2454 -18.2119 -18.5957 -18.6355 -17.9208 -20.1673 -21.0746 -22.1394 -19.9549 
-3.2615 -4.7265 -1.4985 -5.101 -4.4525 0 -1.7695 -3.519 -1.8085 -3.891 -3.6715 -1.934 -4.642 -9.196001 -2.9805 -4.492 -1.8085 -4.044 -2.356 -1.4985 -3.75 -4.1865 -3.7495 -4.0465 -11.9 -10.437 -5.298 
-7.382 -5.711 -5.9925 -8.889 -4.4525 -1.7695 -4.951 -5.0845 -5.284 -7.883501 -5.613 -6.748 -11.7575 -10.3875 -6.407001 -6.1015 -5.134501 -5.3015 -3.1615 -4.8715 -6.4385 -6.8005 -8.209001 -16.0275 -23.5856 -15.9024 
-8.1385 -9.7325 -9.656501 -8.889 -5.610001 -4.951 -5.4345 -8.858 -8.99 -9.619501 -10.966 -14.7897 -14.0417 -14.1277 -7.599501 -10.609 -5.995 -5.8715 -6.9965 -7.6835 -10.085 -11.8068 -20.9476 -27.2909 -29.051 
-12.3466 -13.4717 -9.656501 -10.0925 -9.552 -5.4345 -9.2755 -12.8364 -10.3545 -15.0513 -19.3245 -17.2725 -18.0128 -15.3726 -12.3214 -11.4695 -6.5065 -9.342001 -9.313001 -10.66 -15.0913 -24.5454 -32.0642 -32.7563 
-16.0858 -13.4717 -11.4952 -14.2189 -10.261 -9.2755 -13.3637 -14.2009 -15.7863 -23.4098 -21.4905 -21.2436 -19.2053 -20.0945 -13.1819 -11.981 -9.8795 -11.8881 -12.4625 -15.6663 -27.8299 -35.662 -37.5296 
-2.9805 -4.816 -1.4985 -5.101 -4.17 -1.7565 -2.4265 0 -1.756 -3.0415 -2.9805 -3.5745 -2.664 -3.8675 -1.934 -5.5435 -1.7695 -4.503 -1.8085 -3.8355 -3.307 -3.0365 -2.356 -5.6295 -5.396 -5.4175 -2.264 -4.5925 -1.7565 -4.065 -3.75 -3.8735 -3.3035 0 
-6.43 -5.825001 -5.9925 -8.646501 -4.606 -4.305 -2.4265 -1.756 -4.454 -5.0885 -4.8665 -5.949 -5.2005 -5.6555 -6.953 -7.885 -4.7785 -5.0985 -5.4305 -5.581 -6.650001 -5.5295 -8.253501 -8.8325 -9.248001 -7.5985 -4.7155 -4.707 -5.305501 -7.2765 -6.110001 -6.3225 -3.3035 
-7.0835 -10.4265 -10.194 -9.154501 -7.07 -4.305 -4.303 -4.454 -6.387 -6.9965 -7.238 -9.901501 -6.6995 -10.76 -8.700001 -10.523 -5.3425 -8.425 -8.192 -8.5105 -9.5465 -11.9024 -9.874001 -9.729501 -10.305 -9.726 -4.7185 -8.271501 -8.64 -7.536 -6.377501 -6.3225 
-11.8748 -14.628 -10.3545 -11.6555 -7.07 -5.5915 -6.407001 -6.387 -7.732 -9.395 -11.4651 -11.4791 -12.2806 -12.507 -10.76 -10.766 -8.554501 -11.5011 -11.6835 -11.5618 -15.9748 -13.5229 -10.111 -10.319 -10.4375 -9.73 -8.278501 -11.8708 -9.3125 -7.566 -6.377501 
-16.0763 -14.7885 -12.8555 -11.6555 -8.166 -7.6085 -8.165001 -7.732 -10.6335 -13.5777 -13.0427 -17.0602 -14.0276 -14.567 -11.003 -13.978 -11.7178 -14.9926 -14.7348 -17.9901 -17.5953 -13.7599 -10.3445 -10.4395 -10.4505 -13.3894 -11.8822 -12.5433 -9.387 -7.566 
