-4.759 
n/a 
n/a 
n/a 
n/a 
-4.759 
n/a 
n/a 
n/a 
n/a 
-4.759 
n/a 
n/a 
n/a 
n/a 
-4.759 
n/a 
n/a 
n/a 
n/a 
-2.5685 -1.4985 -4.9655 -3.7555 -4.357 0 
-3.7015 -6.188001 -8.170501 -7.517 -4.357 
-7.435 -8.753 -12.4794 -7.517 
-9.698501 -13.1209 -12.4794 
-14.1476 -13.1209 
-2.5685 -1.4985 -4.9655 -3.152 -5.534 0 
-3.7015 -6.188001 -6.691501 -6.874001 -5.534 
-7.435 -7.3915 -8.8675 -6.874001 
-8.529 -9.4525 -8.8675 
-10.2925 -9.4525 
-2.5685 -1.4985 -4.9655 -4.357 
-3.7015 -6.188001 -9.175501 
-7.435 -10.004 
-11.5532 
n/a 
-2.5685 -1.4985 -4.9655 -3.152 -5.534 0 
-3.7015 -6.188001 -6.691501 -6.874001 -5.534 
-7.435 -7.3915 -8.8675 -6.874001 
-8.529 -9.4525 -8.8675 
-10.2925 -9.4525 
