-4.759 
n/a 
n/a 
n/a 
n/a 
-4.759 
n/a 
n/a 
n/a 
n/a 
-4.759 
n/a 
n/a 
n/a 
n/a 
-4.759 
n/a 
n/a 
n/a 
n/a 
-3.4155 -4.645 -2.4945 -1.8085 -4.845 -5.1555 -4.1115 -4.7255 -3.2295 -7.494 -1.7565 -2.5685 -4.1455 -4.2485 -3.4715 -2.264 -1.4985 -4.3305 -2.264 -4.176 
-5.2885 -6.714001 -4.16 -5.485 -8.3915 -7.055 -9.286501 -6.8125 -8.996 -7.675 -3.938 -6.991 -8.435 -5.72 -5.7995 -2.9195 -5.05 -6.9855 -6.618501 
-7.673 -8.213 -7.564 -8.709001 -8.771501 -12.7514 -11.4515 -10.9035 -8.06 -7.655 -7.9505 -10.1595 -8.6175 -7.9255 -6.2515 -5.5515 -7.4315 -11.9798 
-8.738001 -10.2865 -11.486 -8.887 -14.7037 -14.9164 -14.829 -10.3545 -9.1815 -11.8944 -10.757 -10.757 -10.159 -8.290501 -8.0565 -8.142501 -12.7816 
-10.298 -14.4461 -11.664 -14.8536 -16.8687 -18.2939 -14.933 -11.279 -13.4477 -14.7517 -10.779 -12.2985 -10.492 -8.9075 -10.9551 -13.5366 
-4.7475 -3.982 -3.6615 -3.1435 -4.0445 -1.7565 -5.368 -3.6835 0 
-9.406501 -8.660501 -6.372001 -6.467 -5.758501 -6.6085 -8.0215 -3.6835 
-14.4226 -10.4185 -8.940001 -8.484501 -9.4545 -10.155 -8.0215 
-16.1806 -12.9865 -11.0945 -12.1863 -13.0898 -10.155 
-18.7486 -15.141 -14.7963 -15.8216 -13.0898 
-3.0415 -2.3335 -4.176 -3.4625 -3.147 -2.229 -4.299 -2.229 
-4.132 -6.977 -8.586 -6.8525 -4.418 -6.2785 -7.2085 
-9.075001 -11.7438 -12.7064 -7.721 -10.426 -9.4725 
-13.9194 -15.8642 -13.5749 -14.018 -14.1944 
-18.0398 -16.7327 -19.8719 -17.7864 
-3.0415 -3.982 -3.6615 -1.4985 -4.299 -3.7075 -2.229 
-8.39 -8.660501 -5.318 -5.463 -7.905001 -6.3905 
-13.4275 -10.9016 -9.623001 -8.8985 -10.7888 
-15.6686 -15.2066 -13.0585 -12.0275 
-19.9736 -18.6421 -16.1875 
