-4.759 
n/a 
n/a 
n/a 
n/a 
-4.759 
n/a 
n/a 
n/a 
n/a 
-4.759 
n/a 
n/a 
n/a 
n/a 
-4.759 
n/a 
n/a 
n/a 
n/a 
-7.068501 -3.935 -1.4985 -6.3375 -5.944 -3.9545 -4.0225 -2.5195 -1.4985 -4.7885 -3.188 0 -8.2535 -3.3435 -4.4035 -4.3195 -3.383 -3.77 
-11.6191 -5.08 -7.5865 -13.0997 -11.117 -7.942 -5.119 -3.1695 -5.282001 -6.9655 -3.188 -8.2535 -11.8064 -7.949501 -9.627501 -6.281 -5.37 
-12.7641 -11.7502 -14.9485 -18.2727 -15.1045 -8.427501 -5.74 -6.7265 -7.066 -6.9655 -12.5789 -11.8064 -16.4124 -13.5521 -11.6086 -8.6405 
-19.4343 -19.1122 -20.1215 -22.2602 -15.59 -8.739 -9.137 -7.884 -7.066 -16.9812 -16.1318 -16.4124 -22.015 -15.5332 -13.9681 
-26.7963 -24.2852 -24.109 -22.7457 -15.9015 -12.2192 -10.0855 -7.884 -17.1961 -20.5341 -20.7378 -22.015 -23.9961 -17.8927 
-4.8215 0 -1.934 -4.7885 -3.7345 -1.7565 -4.238 -3.7345 0 -3.8245 -5.253 -4.522 -3.851 -1.7695 -5.135 -4.1095 -2.9705 -4.301 -1.4985 -3.869 -4.983 -2.5195 -4.7885 -3.7345 
-4.8215 -1.934 -6.4805 -5.866 -5.555 -5.7635 -8.6155 -3.7345 -3.8245 -6.878 -8.6885 -7.595 -4.0015 -6.9525 -9.616001 -6.724501 -6.818501 -5.191 -5.109 -9.5465 -6.811501 -6.3755 -5.866 
-7.17 -6.4805 -6.7035 -8.493 -10.476 -10.2755 -8.6155 -7.691501 -6.878 -10.5975 -11.9157 -7.604001 -8.228 -11.8853 -12.312 -11.1097 -7.516001 -8.585501 -9.938 -11.4736 -8.578 -6.4365 
-12.1169 -6.7035 -9.362 -13.6772 -14.988 -10.2755 -12.9905 -11.301 -10.5975 -13.8247 -11.9247 -12.1753 -13.4532 -14.5813 -16.6972 -11.8072 -10.7175 -13.6087 -11.9167 -13.2401 -8.581 
-12.3399 -9.362 -14.6702 -18.1892 -14.988 -14.6505 -16.6 -15.0205 -13.8247 -13.8337 -16.496 -17.4005 -16.1492 -18.9665 -17.3947 -15.0087 -15.7407 -15.5874 -13.6832 -13.2431 
-3.4765 -4.392 -1.7565 -8.796 -1.7695 -4.3355 -1.756 -4.0225 -1.7695 -3.995 -3.383 -7.731501 -1.7695 -3.5185 -1.4985 -4.712 0 
-8.612 -6.9235 -10.907 -10.821 -6.515501 -5.8165 -5.6715 -4.9235 -5.497 -7.924 -10.4455 -7.3475 -4.134 -4.9765 -5.178 -4.712 
-11.4803 -16.5524 -12.932 -15.567 -8.083 -9.874001 -6.8995 -7.805 -8.51 -15.0479 -12.302 -10.0565 -5.28 -10.061 -5.178 
-21.1092 -18.5774 -17.678 -17.1345 -12.4025 -10.6915 -9.5695 -11.3076 -15.7811 -17.0804 -14.8184 -11.3134 -10.2275 -10.061 
-23.1342 -23.3234 -19.2455 -21.454 -13.22 -13.3615 -13.3009 -18.5787 -17.8136 -19.5968 -15.9389 -16.4079 -10.2275 
-2.5195 -5.135 -1.4985 -4.983 -2.9705 -2.4945 -4.0225 -2.4945 -4.7905 -1.7695 -3.995 -2.4265 -5.4285 -2.5685 -1.4985 -3.869 -4.983 -3.0415 -3.995 -2.186 -3.6605 
-7.6815 -7.323 -6.109 -7.239 -4.302 -5.396 -7.3305 -8.093 -5.9285 -5.497 -6.386 -7.799001 -7.653501 -3.7015 -5.109 -9.5465 -7.6975 -8.08 -5.7465 -6.132501 
-9.6815 -12.2665 -8.4995 -7.9275 -7.7235 -8.111 -13.6736 -9.3765 -8.954 -7.6245 -12.7009 -9.371501 -8.0885 -6.6905 -9.938 -12.3596 -13.1758 -9.321501 -9.3265 
-14.728 -14.657 -9.458501 -11.6892 -10.5635 -14.6759 -14.9571 -12.4328 -10.404 -14.0792 -14.2734 -9.7805 -11.2987 -10.4185 -12.8027 -17.8379 -14.4173 -12.9985 
-17.1185 -15.616 -13.2386 -14.5292 -17.1284 -15.9594 -18.0134 -13.8828 -17.3039 -15.6517 -14.6824 -12.9907 -15.0267 -13.5194 -18.281 -19.0794 -18.0943 
