-4.759 
n/a 
n/a 
n/a 
n/a 
-4.759 
n/a 
n/a 
n/a 
n/a 
-4.759 
n/a 
n/a 
n/a 
n/a 
-4.759 
n/a 
n/a 
n/a 
n/a 
-3.5715 -2.789 0 -9.0235 -6.794 0 -5.087 -4.3625 0 -3.002 0 
-5.682 -2.789 -9.0235 -11.136 -6.794 -5.087 -10.341 -4.3625 -3.002 -3.002 
-5.682 -11.9561 -11.136 -11.136 -9.543 -10.341 -10.341 -7.384 -3.002 
-15.9595 -14.0686 -11.136 -13.885 -15.042 -10.341 -13.3625 -7.384 
-18.072 -14.0686 -13.885 -19.384 -15.042 -13.3625 -13.3625 
-18.9855 -12.16972 0 -5.087 -4.3625 0 -3.002 
-31.75582 -12.16972 -5.087 -10.341 -4.3625 -3.002 
-31.75582 -17.25672 -10.341 -10.341 -7.384 
-36.84282 -22.51072 -10.341 -13.3625 
-42.09682 -22.51072 -13.3625 
-3.5715 -9.162001 -6.794 0 -9.764501 -4.3625 0 -3.002 0 
-12.534 -13.266 -6.794 -9.764501 -14.1554 -4.3625 -3.002 -3.002 
-17.3794 -13.376 -17.2311 -14.1554 -14.1554 -7.384 -3.002 
-17.3794 -23.8131 -21.622 -14.1554 -17.1769 -7.384 
-27.8165 -28.204 -21.622 -17.1769 -17.1769 
-3.5715 -9.162001 -7.4575 0 -5.087 -4.3625 0 -3.0015 0 
-12.534 -13.8775 -7.4575 -5.087 -10.341 -4.3625 -3.0015 -3.0015 
-17.9909 -13.9875 -13.1307 -10.341 -10.341 -8 -3.0015 
-17.9909 -19.6607 -18.3847 -10.341 -13.9785 -8 
-23.6641 -24.9147 -18.3847 -13.9785 -13.9785 
