-4.759 
n/a 
n/a 
n/a 
n/a 
-4.759 
n/a 
n/a 
n/a 
n/a 
-4.759 
n/a 
n/a 
n/a 
n/a 
-4.759 
n/a 
n/a 
n/a 
n/a 
-4.426 -1.7565 -1.4985 -3.6115 -4.7285 -4.1555 -3.147 0 
-5.47 -2.4195 -4.081 -6.5495 -8.4455 -5.77 -3.147 
-5.9535 -5.180501 -6.670501 -9.978001 -9.541501 -5.77 
-8.462501 -7.797 -10.054 -11.0524 -9.541501 
-10.2375 -11.2985 -11.1648 -11.0524 
-3.6115 -3.452 -2.4265 -4.196 -4.6525 -2.7455 -4.361 -3.772 
-6.2755 -5.648 -6.5395 -9.807 -6.5805 -6.531 -6.857 
-8.657001 -10.543 -12.4891 -12.0642 -10.151 -8.935 
-13.932 -16.4926 -14.7463 -15.6347 -13.0148 
-19.8816 -18.7498 -18.3168 -18.4985 
-3.6115 -3.7595 -3.098 -4.196 -4.164 -3.4635 -1.7695 -4.361 0 
-6.815001 -7.571501 -6.913 -6.6805 -8.477501 -4.2045 -6.1885 -4.361 
-10.3045 -11.8537 -10.348 -11.478 -9.262501 -7.303501 -6.1885 
-14.5867 -15.2887 -15.1455 -12.263 -12.3757 -7.303501 
-18.0217 -20.0862 -15.9305 -15.3762 -12.3757 
-1.934 -1.4985 -3.6115 -3.7595 0 -3.3365 -1.7565 -3.8315 -3.4635 -3.9495 
-2.6125 -4.081 -6.815001 -3.7595 -3.3365 -4.7425 -5.5375 -6.9445 -5.798 
-4.958 -6.927501 -6.815001 -7.8465 -4.7425 -8.085501 -8.0175 -10.233 
-7.4655 -6.927501 -10.647 -8.869 -8.085501 -10.9757 -11.6274 
-7.4655 -10.9139 -11.6695 -12.302 -10.9757 -14.5856 
