-4.759 
n/a 
n/a 
n/a 
n/a 
-4.759 
n/a 
n/a 
n/a 
n/a 
-4.759 
n/a 
n/a 
n/a 
n/a 
-4.759 
n/a 
n/a 
n/a 
n/a 
-2.5045 -2.3335 -2.95 -3.7925 -3.868 -4.811 -2.8645 -3.8535 -1.934 -2.3335 -4.191 
-4.744 -4.8245 -7.1575 -5.828 -10.007 -8.244 -5.189 -5.002 -4.359 -7.097501 
-5.158 -9.354501 -9.210501 -12.4556 -13.5212 -10.6735 -6.6425 -7.297 -9.05 
-9.577001 -10.234 -15.9957 -15.9698 -15.9507 -12.127 -8.951 -12.3694 
-10.4045 -17.4602 -19.5099 -18.3993 -17.4042 -14.4355 -14.1658 
-2.3335 -2.95 -3.7925 0 -1.7565 -4.1375 -4.898 -2.4945 -3.43 0 
-4.8245 -7.1575 -3.7925 -1.7565 -6.582 -9.570001 -6.7095 -4.758 -3.43 
-9.354501 -7.1575 -5.620501 -6.582 -12.3555 -11.4425 -9.1945 -4.758 
-9.354501 -8.7485 -11.1458 -12.3555 -14.228 -13.9275 -9.1945 
-10.234 -14.5214 -16.9193 -14.228 -16.713 -13.9275 

n/a 
n/a 
n/a 
n/a 
-3.7925 0 -1.7565 -4.898 -4.298 -3.321 -3.152 -4.089 -5.3115 0 
-3.7925 -1.7565 -6.701001 -7.413 -7.708 -6.5585 -6.933001 -6.488 -5.3115 
-5.620501 -6.701001 -8.8935 -11.3394 -10.7335 -10.5281 -8.8015 -6.488 
-11.2648 -8.8935 -12.8637 -14.3649 -14.7031 -12.3966 -8.8015 
-13.4573 -12.8637 -15.8892 -18.3345 -16.5716 -12.3966 
