-4.759 
n/a 
n/a 
n/a 
n/a 
-4.759 
n/a 
n/a 
n/a 
n/a 
-4.759 
n/a 
n/a 
n/a 
n/a 
-4.759 
n/a 
n/a 
n/a 
n/a 
-3.5085 -3.957 -1.7565 -1.4985 -4.3355 -2.8645 -5.0255 0 -4.4505 0 
-6.279 -5.0905 -2.4195 -5.199 -7.2825 -7.635 -4.1 -4.4505 -4.4505 
-6.556 -5.9615 -5.9315 -7.6645 -11.792 -7.213 -8.8915 -4.4505 
-7.4645 -9.014001 -8.5165 -12.317 -11.792 -13.0641 -8.8915 
-10.354 -11.7908 -13.297 -12.317 -17.6431 -13.0641 
-5.0255 0 -4.4505 -1.934 -3.5085 -4.1115 0 
-4.1 -4.4505 -6.203 -5.161 -8.085001 -4.1115 
-8.8915 -6.203 -10.27 -9.762001 -8.085001 
-10.733 -10.27 -14.871 -9.762001 
-14.9788 -14.871 -14.871 
-3.6135 -4.1115 -2.8645 -3.5085 -5.0255 0 -3.43 -1.7565 -4.4505 0 
-6.951 -6.946 -7.093 -7.5695 -4.1 -3.43 -4.9095 -5.6655 -4.4505 
-9.613501 -11.4775 -12.2335 -7.7675 -8.785001 -4.9095 -8.557 -5.6655 
-14.2414 -16.618 -12.2335 -12.8727 -9.977501 -8.557 -8.557 
-19.3819 -16.618 -17.3387 -14.0652 -13.8698 -8.557 
-4.3355 -3.5085 -4.2105 -2.186 -5.0255 0 -4.4505 0 
-8.4375 -6.647 -6.2555 -7.1235 -4.1 -4.4505 -4.4505 
-12.068 -8.278501 -10.521 -6.829 -8.8915 -4.4505 
-13.6995 -12.7304 -10.504 -10.3675 -8.8915 
-18.1514 -12.7304 -14.0425 -10.3675 
