-4.759 
n/a 
n/a 
n/a 
n/a 
-4.759 
n/a 
n/a 
n/a 
n/a 
-4.759 
n/a 
n/a 
n/a 
n/a 
-4.759 
n/a 
n/a 
n/a 
n/a 
-3.995 -4.692 -4.348 -2.8645 -3.2495 -5.0615 
-7.8005 -7.458 -7.197001 -5.3035 -7.4175 
-11.3255 -10.3345 -10.243 -9.745001 
-14.202 -13.5779 -14.6845 
-17.4454 -18.0194 
-3.5515 -1.7565 -3.995 -2.229 -4.692 -3.6445 -2.186 -3.8825 -1.7695 -3.5155 -5.2415 0 
-5.0325 -5.423 -5.324 -6.6025 -5.5985 -5.127 -5.2765 -4.5575 -5.02 -7.628 -5.2415 
-8.196 -6.4595 -6.845 -6.7895 -6.9405 -8.214001 -5.3695 -7.9045 -8.6455 -7.628 
-9.282001 -8.047501 -6.906 -7.9175 -9.654 -8.241501 -8.5635 -11.6916 -8.6455 
-11.1246 -8.120001 -8.104 -9.989 -9.7005 -12.0975 -12.4252 -11.6916 
-3.995 -2.229 -4.692 -3.6445 -5.747 -2.356 -1.4985 -5.0005 -1.7565 -1.4985 -4.692 -3.6445 
-5.324 -6.6025 -5.5985 -9.6745 -5.874 -3.1615 -5.627501 -5.7045 -2.4195 -5.687 -5.5985 
-6.845 -6.7895 -12.5547 -9.830001 -6.1575 -7.54 -5.9825 -5.968 -6.395 -6.249001 
-6.906 -14.0935 -12.7102 -10.387 -9.6785 -7.903 -6.2075 -9.777 -6.828 
-14.2524 -14.249 -13.2672 -13.908 -9.725 -8.0635 -10.071 -10.76 
-1.4985 -4.692 -3.6445 -1.7565 -3.995 -2.186 -3.8825 -1.7565 -3.2495 -4.918 
-5.687 -5.5985 -4.775001 -5.423 -5.7465 -5.2765 -7.5975 -4.5605 -7.4125 
-6.249001 -7.058001 -8.165501 -7.5575 -9.267 -8.9095 -10.597 -9.190001 
-7.403501 -8.943001 -9.727 -10.426 -12.7426 -12.1278 -15.2265 
-9.114501 -9.852501 -12.5955 -14.1282 -15.9609 -16.7573 
