-4.759 
n/a 
n/a 
n/a 
n/a 
-4.759 
n/a 
n/a 
n/a 
n/a 
-4.759 
n/a 
n/a 
n/a 
n/a 
-4.759 
n/a 
n/a 
n/a 
n/a 
-3.9115 0 -6.460001 -1.756 -4.257 -4.855 
-3.9115 -6.460001 -7.901 -6.3795 -9.236 
-11.5899 -7.901 -12.9057 -11.8075 
-13.0309 -12.9057 -18.3337 
-18.0356 -18.3337 
-4.86 0 -3.5645 -4.3065 0 -4.855 -4.795 
-4.86 -3.5645 -7.804 -4.3065 -4.855 -9.284 
-8.366 -7.804 -7.804 -8.8125 -9.284 
-12.9957 -7.804 -12.9802 -13.4713 
-12.9957 -12.9802 -17.639 
-3.9115 0 -6.385 0 -5.2365 -2.0935 -3.8275 
-3.9115 -6.385 -6.385 -5.2365 -6.3535 -5.919001 
-11.5149 -6.385 -12.5343 -6.3535 -8.660001 
-11.5149 -12.5343 -13.6513 -8.660001 
-17.6642 -13.6513 -15.9578 
-3.9115 0 -6.011 0 -4.257 -4.0655 
-3.9115 -6.011 -6.011 -4.257 -7.896 
-10.451 -6.011 -11.3006 -7.896 
-10.451 -11.3006 -14.9396 
-16.2602 -14.9396 
