-4.759 
n/a 
n/a 
n/a 
n/a 
-4.759 
n/a 
n/a 
n/a 
n/a 
-4.759 
n/a 
n/a 
n/a 
n/a 
-4.759 
n/a 
n/a 
n/a 
n/a 
-3.345 -1.756 -3.6055 -3.6885 -3.5165 -2.742 -3.213 -1.934 -3.3755 -1.7565 -4.138 -2.4285 -4.144 
-5.2935 -5.005 -6.9535 -7.373 -6.8105 -4.9835 -4.4465 -6.653 -4.5295 -6.081 -6.798 -6.675 
-5.4295 -8.5835 -11.3262 -10.4345 -9.094501 -6.231 -9.3275 -7.3605 -9.469001 -8.612 -7.2725 
-9.2145 -13.1264 -14.3877 -12.7185 -10.7748 -11.556 -10.234 -12.4318 -12.2174 -8.9125 
-13.8144 -16.1879 -16.6717 -14.3988 -16.0998 -12.4625 -15.4555 -15.1802 -12.5179 
-3.6055 -3.6885 -3.8085 -3.4915 -2.645 -2.4285 -3.689 -3.1575 -3.926 -3.766 -2.9645 0 
-6.9535 -8.8935 -8.969501 -4.402 -5.1595 -4.762 -4.168 -6.8955 -7.414001 -7.412001 -2.9645 
-12.8467 -14.4135 -9.885501 -7.607 -5.283 -5.9455 -8.5955 -10.3415 -12.13 -7.412001 
-18.3667 -15.3295 -13.2617 -8.147 -6.479001 -9.788501 -12.2749 -15.0575 -12.13 
-19.2827 -18.7057 -13.8017 -9.034 -10.9848 -13.9955 -16.9909 -15.0575 
-3.6055 -3.6065 -3.6885 -4.1395 -4.3535 -3.6065 -4.1985 0 
-7.139 -6.4655 -7.599 -8.56 -8.128 -7.028501 -4.1985 
-9.599001 -10.9826 -12.4331 -12.8311 -10.523 -7.028501 
-14.3751 -15.8167 -16.7042 -15.2261 -10.523 
-19.2092 -20.0878 -19.0992 -15.2261 
-3.6055 -3.6885 -3.932 -2.186 -3.6705 -2.645 -2.4285 -3.689 -2.356 -3.0365 -3.5205 -3.989 0 
-6.9535 -7.109 -6.7025 -5.076 -6.601501 -5.1595 -4.762 -6.389 -6.297 -6.4995 -6.3155 -3.989 
-11.0622 -9.6745 -9.992001 -7.8985 -8.274 -5.283 -6.766001 -10.7512 -7.935 -9.0535 -6.3155 
-13.6277 -13.2188 -13.0333 -9.478001 -8.311501 -7.7475 -11.5786 -12.3892 -9.986501 -9.0535 
-17.172 -16.2601 -14.6128 -9.496501 -10.3745 -12.9817 -13.2166 -14.4407 -9.986501 
