-4.759 
n/a 
n/a 
n/a 
n/a 
-4.759 
n/a 
n/a 
n/a 
n/a 
-4.759 
n/a 
n/a 
n/a 
n/a 
-4.759 
n/a 
n/a 
n/a 
n/a 
-2.4265 -2.7415 -3.7875 -5.9545 -5.7465 -3.9035 -1.756 -4.8425 -3.748 -4.1125 -4.1395 
-3.681 -5.738 -11.08 -12.4498 -9.229501 -5.1585 -7.443 -7.252501 -7.271 -8.234 
-7.5135 -13.7597 -17.5753 -15.9328 -10.8423 -10.7025 -9 -10.335 -12.1451 
-15.626 -20.255 -21.0583 -17.5456 -16.3863 -13.3141 -12.2775 -15.7547 
-22.1213 -23.738 -22.6711 -23.0896 -18.9979 -16.5916 -17.6972 
-2.4265 -4.0935 -6.0605 -4.7875 -1.756 -4.8425 -3.748 -4.1125 -4.1395 0 
-5.351 -9.950001 -10.59 -6.154 -7.443 -7.252501 -7.271 -8.234 -4.1395 
-10.798 -13.956 -11.2585 -12.731 -9 -10.335 -12.1451 -8.234 
-14.8844 -15.775 -18.7985 -14.288 -12.2775 -15.7547 -12.1451 
-16.793 -22.8044 -20.3555 -17.5655 -17.6972 -15.7547 
-5.9545 -4.5355 0 -4.8425 -3.748 -3.8005 -3.9355 -3.152 -3.0365 
-11.2388 -4.5355 -4.8425 -7.252501 -7.8425 -8.9715 -6.1915 -5.5585 
-11.2388 -10.0255 -7.252501 -11.6922 -13.3809 -11.7071 -8.752001 
-16.7288 -12.4355 -11.6922 -17.2306 -16.1165 -14.2676 
-19.1388 -16.8752 -17.2306 -19.9662 -18.677 
-2.3615 -3.951 -1.7565 -3.8805 -6.0605 -3.4715 -1.756 -4.8425 -3.748 -3.8005 -4.1395 0 
-6.144 -5.715 -5.652 -10.103 -10.314 -5.553 -7.443 -7.252501 -7.8425 -8.774501 -4.1395 
-8.547501 -10.7025 -12.1245 -15.5085 -12.653 -12.194 -9 -11.6922 -13.1839 -8.774501 
-13.558 -17.4886 -17.4431 -17.619 -19.294 -13.751 -13.6347 -17.0336 -13.1839 
-20.3441 -22.4936 -19.5536 -24.26 -20.851 -18.3857 -18.9761 -17.0336 
