-4.759 
n/a 
n/a 
n/a 
n/a 
-4.759 
n/a 
n/a 
n/a 
n/a 
-4.759 
n/a 
n/a 
n/a 
n/a 
-4.759 
n/a 
n/a 
n/a 
n/a 
-4.468 0 -9.7445 0 -5.1645 0 
-4.468 -9.7445 -9.7445 -5.1645 -5.1645 
-10.9315 -9.7445 -15.2818 -5.1645 
-10.9315 -15.2818 -15.2818 
-16.4688 -15.2818 
-4.468 -7.075 0 -5.1645 
-11.9106 -7.075 -5.1645 
-11.9106 -12.9485 
-17.7841 
n/a 
-4.468 0 -7.1885 0 -5.1645 0 
-4.468 -7.1885 -7.1885 -5.1645 -5.1645 
-10.841 -7.1885 -13.0548 -5.1645 
-10.841 -13.0548 -13.0548 
-16.7073 -13.0548 
-4.468 0 -7.1885 0 -5.1645 0 
-4.468 -7.1885 -7.1885 -5.1645 -5.1645 
-10.841 -7.1885 -13.0548 -5.1645 
-10.841 -13.0548 -13.0548 
-16.7073 -13.0548 
