-4.759 
n/a 
n/a 
n/a 
n/a 
-4.759 
n/a 
n/a 
n/a 
n/a 
-4.759 
n/a 
n/a 
n/a 
n/a 
-4.759 
n/a 
n/a 
n/a 
n/a 
-4.426 -1.7565 -1.4985 -3.0835 -4.7285 -4.1555 -5.792 -2.3335 -4.3885 -2.915 -3.7075 -4.6505 0 
-5.47 -2.4195 -3.535 -6.042 -8.4455 -8.428 -8.867001 -7.06 -6.984 -7.587501 -8.002001 -4.6505 
-5.9535 -4.6785 -6.335501 -9.523001 -11.852 -11.2705 -14.045 -10.316 -12.5081 -12.3166 -8.002001 
-8.021 -7.476501 -10.0095 -13.014 -15.686 -17.4997 -17.8362 -15.8401 -17.2372 -12.3166 
-9.983001 -11.3061 -13.6105 -16.848 -21.2712 -20.7557 -23.3603 -20.5692 -17.2372 
-3.074 -2.9805 -4.6505 -2.645 -2.7455 -1.934 -2.3335 -2.0935 -2.915 -3.307 -3.991 0 
-6.274 -5.933001 -7.0975 -4.120501 -5.529 -4.359 -4.9045 -4.646501 -5.271 -6.738501 -3.991 
-9.205501 -8.431001 -8.608001 -7.3335 -7.62 -7.351 -8.537001 -6.993501 -9.043 -6.738501 
-11.8751 -9.892 -12.1572 -10.233 -10.494 -11.1911 -10.9496 -11.3789 -9.043 
-13.3361 -13.4972 -15.0567 -13.3184 -14.9189 -13.6037 -15.335 -11.3789 
-3.818 -2.9805 -4.6505 -4.5515 -2.9195 
-6.765 -5.933001 -10.2185 -9.003 
-9.1485 -12.011 -14.67 
-15.4697 -16.4625 
-19.9212 
-3.4765 -1.7695 -4.138 -1.756 -2.915 -1.7695 -4.4295 0 
-5.5385 -6.2035 -6.2575 -4.516 -4.548 -4.984 -4.4295 
-10.2695 -8.0225 -9.9861 -6.088 -7.848001 -4.984 
-12.0885 -11.7441 -11.5581 -9.5825 -7.848001 
-15.8101 -13.3161 -15.0526 -9.5825 
