-4.759 
n/a 
n/a 
n/a 
n/a 
-4.759 
n/a 
n/a 
n/a 
n/a 
-4.759 
n/a 
n/a 
n/a 
n/a 
-4.759 
n/a 
n/a 
n/a 
n/a 
-5.4425 -6.5625 -2.7415 -4.2215 -1.934 -1.8085 -4.23 -3.3975 -1.7565 -7.627 0 -2.5045 -3.502 -6.557 -1.934 -5.029 
-7.282 -8.714001 -4.7885 -4.885 -3.2685 -5.4495 -6.992 -4.960001 -9.346001 -7.627 -2.5045 -5.995501 -9.1485 -8.4335 -6.3695 
-9.127 -10.214 -5.2365 -6.5425 -6.7415 -7.325 -8.6075 -13.0739 -9.346001 -10.4855 -5.995501 -12.201 -11.1028 -13.1826 
-10.5535 -10.5415 -6.9585 -8.476501 -8.234 -8.781 -16.9376 -13.0739 -12.3339 -13.9765 -12.201 -14.1553 -15.8519 
-10.881 -12.2635 -8.7895 -8.956 -9.635 -17.1231 -16.9376 -16.0618 -15.8249 -20.182 -14.1553 -18.9044 
-8.881001 -6.5625 -4.2215 -1.934 -3.158 -5.029 -2.5045 -10.8075 -3.2875 -7.6325 -2.5045 -2.871 -4.23 -3.3975 0 
-10.958 -10.075 -4.885 -5.7375 -7.767 -7.6575 -14.007 -14.095 -10.985 -10.2755 -4.905 -7.215 -6.992 -3.3975 
-14.4705 -10.9995 -8.121501 -10.1265 -10.575 -19.3408 -17.2945 -21.7925 -13.628 -12.757 -9.948 -9.1675 -6.992 
-15.395 -14.236 -13.1057 -13.0469 -22.2583 -22.6283 -24.992 -24.4355 -16.1095 -17.8 -11.9005 -9.1675 
-18.6315 -19.2202 -16.0261 -24.7302 -25.5458 -30.3258 -27.635 -26.917 -21.1525 -19.7525 -11.9005 
-5.4425 -6.5625 -2.7415 -4.2215 -1.934 -3.502 -6.557 0 -7.6325 -5.029 -1.7695 -3.383 -4.23 -3.3975 0 
-7.282 -8.714001 -4.7885 -4.885 -4.8155 -9.1485 -6.557 -7.6325 -13.3991 -7.266 -5.849 -5.819 -6.992 -3.3975 
-9.127 -10.214 -5.2365 -7.310501 -10.0345 -9.1485 -10.8415 -13.3991 -15.6361 -11.8961 -7.710501 -8.1455 -6.992 
-10.5535 -10.5415 -7.618501 -12.9035 -10.0345 -13.5108 -16.6081 -15.6361 -20.2662 -13.7576 -9.795 -8.1455 
-10.881 -12.9235 -13.2075 -12.9035 -14.3968 -19.2774 -18.8451 -20.2662 -22.1277 -15.8421 -9.795 
-5.4425 -6.5625 -4.2215 -1.934 -3.502 -3.8735 -2.5045 -5.029 -1.934 -7.6325 -2.0935 -4.23 -3.3975 
-7.282 -10.075 -4.885 -4.8155 -6.2275 -6.599 -8.613001 -7.0185 -8.507001 -10.2645 -6.022 -6.992 
-10.163 -10.9995 -7.310501 -6.9265 -8.679501 -13.2153 -10.7595 -13.7579 -11.7446 -14.4044 -9.479 
-11.1767 -13.425 -9.3415 -8.878501 -15.7142 -15.3618 -17.4989 -16.9955 -15.8845 -17.8614 
-13.6022 -15.456 -11.6837 -16.178 -17.8607 -22.1012 -20.7365 -21.1354 -19.3415 
