-4.759 
n/a 
n/a 
n/a 
n/a 
-4.759 
n/a 
n/a 
n/a 
n/a 
-4.759 
n/a 
n/a 
n/a 
n/a 
-4.759 
n/a 
n/a 
n/a 
n/a 
-8.2295 -4.2125 -3.1385 -3.937 -3.8315 
-12.663 -6.7555 -6.2925 -7.808001 
-16.4128 -10.586 -9.233 
-20.2433 -13.5265 
-23.1838 
-4.2125 -4.905 -2.4945 -3.937 -3.8315 0 
-7.807 -6.918 -4.9975 -7.808001 -3.8315 
-9.326 -9.202001 -9.3935 -7.808001 
-11.7898 -13.794 -9.3935 
-16.3818 -13.794 
-3.2495 -4.2125 -4.905 -3.7875 -3.8315 
-7.234 -7.807 -8.882501 -5.6245 
-9.8715 -12.2739 -10.0785 
-14.399 -13.4699 
-15.595 
-8.2295 -4.2125 -4.905 -3.152 -4.75 -1.934 -3.8315 0 
-12.663 -7.807 -7.309 -6.4525 -4.981 -6 -3.8315 
-15.5273 -10.0155 -10.9617 -6.649 -7.787 -6 
-17.7964 -13.7546 -11.1582 -9.6025 -7.787 
-21.5355 -13.9511 -14.1117 -9.6025 
