-4.759 
n/a 
n/a 
n/a 
n/a 
-4.759 
n/a 
n/a 
n/a 
n/a 
-4.759 
n/a 
n/a 
n/a 
n/a 
-4.759 
n/a 
n/a 
n/a 
n/a 
-8.533501 -7.923 -2.8645 -3.2495 -4.5315 0 
-10.985 -10.6095 -5.3035 -6.1055 -4.5315 
-13.6715 -13.0485 -7.7695 -6.1055 
-16.1105 -15.5145 -7.7695 
-18.5765 -15.5145 
-8.533501 -7.923 -3.251 -3.2495 -4.5315 
-10.985 -10.7495 -5.5775 -6.1055 
-13.8115 -13.076 -7.9445 
-16.138 -15.443 
-18.505 
-3.2495 -4.5315 -1.934 -8.533501 -7.923 0 
-6.1055 -5.978001 -10.9575 -10.985 -7.923 
-7.634 -15.8371 -13.409 -10.985 
-17.5329 -18.2886 -13.409 
-19.9844 -18.2886 
-4.121 -8.533501 -2.674 -1.8085 -3.2495 -4.5315 
-13.7317 -11.4757 -3.63 -4.84 -6.1055 
-16.6739 -12.4317 -6.7505 -9.054501 
-17.6299 -15.5522 -10.5855 
-20.7504 -19.3872 
