-4.759 
n/a 
n/a 
n/a 
n/a 
-4.759 
n/a 
n/a 
n/a 
n/a 
-4.759 
n/a 
n/a 
n/a 
n/a 
-4.759 
n/a 
n/a 
n/a 
n/a 
-3.4225 -4.0965 -2.8645 -3.6885 -3.893 -1.7565 -6.4015 -1.756 -3.9545 -3.47 
-4.2 -6.927501 -6.643 -5.689 -4.1785 -7.6225 -7.7445 -5.054 -6.8065 
-7.1495 -10.4105 -9.213 -5.7245 -9.696 -8.717501 -9.3915 -7.212501 
-10.5035 -12.9805 -9.3135 -11.517 -10.921 -10.3919 -12.3936 
-13.0735 -13.081 -15.1128 -12.742 -12.5954 -13.394 
-3.4225 -4.0965 -2.186 -3.6135 -4.6805 -4.4585 0 -4.8945 -1.756 -3.9185 -9.5895 -3.5015 0 
-4.2 -6.4115 -5.8795 -7.146501 -6.062 -4.4585 -4.8945 -6.0825 -5.631001 -14.6836 -13.216 -3.5015 
-6.851 -10.2585 -10.115 -9.818501 -6.062 -9.493 -6.0825 -8.214001 -16.8943 -18.3101 -13.216 
-10.9348 -14.6512 -12.8716 -9.818501 -10.115 -10.1915 -8.214001 -20.1715 -20.5208 -18.3101 
-15.3275 -17.4078 -12.8716 -13.9757 -10.9307 -12.5786 -20.1715 -23.798 -20.5208 
-3.4225 -4.0965 -3.251 -3.299 -3.518 -9.21 0 -4.1845 -1.756 -3.9185 -4.7095 0 
-4.2 -7.5365 -6.419001 -4.972 -10.3905 -6.064 -4.1845 -5.726501 -5.631001 -8.3435 -4.7095 
-7.8855 -10.8427 -8.337001 -11.842 -10.39 -10.3285 -5.726501 -7.311501 -9.297001 -8.3435 
-11.1977 -12.7607 -15.4718 -11.842 -14.6545 -11.3455 -7.311501 -11.4499 -9.297001 
-13.1157 -19.8955 -15.4718 -16.1065 -15.6715 -13.4767 -11.4499 -11.4499 
-3.4225 -3.326 -4.0465 -2.8645 -4.1845 -3.9545 -1.756 -4.0145 
-7.8165 -6.054 -6.5065 -7.7355 -6.4425 -5.3285 -5.456 
-11.6649 -8.584001 -10.586 -10.6379 -7.883501 -10.1357 
-14.1949 -12.8371 -13.4884 -12.0789 -12.9651 
-18.448 -15.7395 -14.9294 -17.1605 
