-4.759 
n/a 
n/a 
n/a 
n/a 
-4.759 
n/a 
n/a 
n/a 
n/a 
-4.759 
n/a 
n/a 
n/a 
n/a 
-4.759 
n/a 
n/a 
n/a 
n/a 
-2.9805 -10.0235 -6.4575 -1.756 -3.6955 -3.325 -12.16972 -1.7695 -4.3905 -1.934 -9.2205 -1.7695 -12.16972 -3.277 
-14.4064 -16.5518 -8.299001 -5.3915 -5.992001 -16.65072 -13.93922 -6.5635 -6.229 -10.4425 -11.471 -14.92142 -15.44672 
-20.9347 -18.3933 -12.2425 -8.086 -20.16352 -18.42022 -18.73322 -9.111 -15.2691 -12.9768 -24.62292 -18.19842 
-22.7762 -22.3368 -14.937 -22.44052 -21.93302 -23.21422 -21.28072 -18.2873 -17.8034 -26.12872 -27.89992 
-26.7197 -25.0313 -29.29152 -24.21002 -26.72702 -25.76172 -30.45702 -20.8216 -30.95532 -29.40572 
-2.9805 -6.785501 -1.8085 -5.2075 -4.1 0 -5.2725 -10.8475 -1.756 -4.9385 -6.999001 -1.756 -4.3155 -2.4265 -3.325 -3.091 -3.4985 0 
-9.589001 -9.094001 -6.0655 -9.617001 -4.1 -5.2725 -16.8716 -12.6035 -6.501 -10.459 -8.829 -5.709 -6.0765 -5.536 -5.621 -6.6145 -3.4985 
-12.2415 -13.3866 -10.185 -9.617001 -9.844501 -16.8716 -18.6276 -17.3485 -12.2307 -12.289 -12.954 -6.879 -8.5365 -7.564 -7.1135 -6.6145 
-16.5341 -17.5061 -10.185 -15.3859 -21.5044 -18.6276 -23.3726 -23.0782 -14.0607 -16.414 -14.124 -9.0585 -9.856001 -9.3105 -7.1135 
-20.6536 -17.5061 -15.9539 -27.0458 -23.2604 -23.3726 -29.1023 -24.9082 -18.1857 -17.584 -16.3035 -10.047 -10.546 -9.3105 
-2.9805 -4.972 -1.4985 -3.9655 -5.408 -2.264 -1.4985 -3.8405 -3.383 -9.5065 -1.756 -5.2725 -12.16972 -1.756 -4.9385 -9.315001 -1.756 -3.43 -1.8085 -3.5435 -3.0365 
-6.9385 -6.189 -4.9875 -9.141001 -7.587501 -2.9195 -4.7545 -7.907001 -11.08 -11.0145 -6.772 -18.19382 -13.92572 -6.501 -15.2843 -11.2722 -5.055 -4.6595 -5.2635 -6.592 
-7.4845 -9.7605 -10.0995 -11.4553 -7.977001 -7.014501 -9.127001 -15.9072 -12.588 -16.0305 -19.93252 -19.94982 -18.67072 -17.056 -17.2415 -14.5712 -5.9635 -9.050501 -8.448501 
-10.634 -14.8725 -12.5596 -11.8448 -12.4664 -11.5826 -17.2414 -17.4152 -17.604 -29.19102 -21.68852 -24.69482 -29.22572 -19.0132 -20.5405 -15.4797 -10.5745 -12.3445 
-15.746 -17.3326 -12.9491 -16.3342 -17.0345 -19.697 -18.7494 -22.4312 -30.76452 -30.94702 -26.43352 -35.24982 -31.18292 -22.3122 -21.449 -20.0907 -13.8685 
-2.9805 -3.251 -4.887 -1.934 -2.3335 -3.8405 -1.7565 -4.8635 -3.9655 -3.614 -1.756 -2.9805 -4.9385 -9.315001 0 -3.5015 0 -1.756 -4.3195 -3.9725 
-4.429 -7.7735 -6.9375 -4.359 -5.7085 -4.563 -6.4065 -8.8625 -6.228 -4.8565 -4.3555 -7.0725 -15.2843 -9.315001 -3.5015 -3.5015 -1.756 -5.563 -7.114 
-9.439501 -10.4944 -8.623 -6.6705 -6.6945 -10.5535 -9.452001 -10.1765 -7.3195 -7.5815 -8.585501 -17.7435 -15.2843 -13.0177 -3.5015 -5.087 -5.563 -8.433001 
-12.2672 -12.1799 -11.2903 -7.667 -13.1154 -13.599 -11.1244 -11.268 -9.867001 -12.0613 -19.5157 -17.7435 -18.987 -13.0177 -5.087 -8.783501 -8.433001 
-13.9527 -14.8472 -12.2868 -14.2873 -16.1609 -15.2714 -12.2159 -13.8155 -14.3792 -22.9915 -19.5157 -21.4462 -18.987 -14.6032 -8.783501 -11.6551 
