-4.759 
n/a 
n/a 
n/a 
n/a 
-4.759 
n/a 
n/a 
n/a 
n/a 
-4.759 
n/a 
n/a 
n/a 
n/a 
-4.759 
n/a 
n/a 
n/a 
n/a 
-2.9805 -3.9955 -3.3715 -3.9035 -3.5005 -4.36 -4.5905 0 -6.2325 -1.756 -3.4075 -3.8195 -3.9795 0 
-5.513 -6.7795 -6.651 -6.275 -7.831 -5.897 -4.5905 -6.2325 -7.8965 -5.047 -6.464001 -6.875501 -3.9795 
-8.207001 -7.2355 -7.462501 -9.4905 -9.098001 -5.897 -9.141001 -7.8965 -11.8867 -8.562 -8.151501 -6.875501 
-8.838501 -7.908 -10.621 -10.225 -9.098001 -9.151 -9.373501 -11.8867 -15.4017 -10.071 -8.151501 
-9.596001 -11.1875 -11.3555 -10.225 -12.9888 -9.376 -13.9193 -15.4017 -16.9107 -10.071 
-2.9805 -3.7555 -3.3715 -4.4695 -3.9035 -3.115 -4.36 -4.5905 -3.9795 0 -8.6975 -3.9795 0 -3.4075 -3.8195 -3.9795 0 
-5.3095 -7.0035 -6.736 -8.895 -7.5765 -7.481 -5.897 -6.8325 -3.9795 -8.6975 -13.033 -3.9795 -3.4075 -6.464001 -6.875501 -3.9795 
-8.677 -10.733 -11.8201 -12.993 -10.5535 -10.0035 -6.9965 -6.8325 -13.7512 -13.033 -13.033 -7.065001 -6.464001 -8.151501 -6.875501 
-12.5363 -15.8171 -15.9181 -15.97 -13.076 -11.1766 -6.9965 -17.49 -18.0867 -13.033 -16.1185 -9.576501 -8.151501 -8.151501 
-17.6204 -19.9151 -18.8951 -18.4925 -14.2491 -11.1766 -18.3948 -21.8255 -18.0867 -16.1185 -18.63 -10.187 -8.151501 
-2.9805 -3.9955 -4.36 -4.5905 0 -8.800501 0 -1.756 -3.4075 -3.9035 
-5.513 -7.944 -5.897 -4.5905 -8.800501 -8.800501 -1.756 -5.047 -6.542001 
-9.657001 -8.257501 -5.897 -14.42 -8.800501 -11.2597 -5.047 -7.5745 
-10.5455 -8.257501 -17.2265 -14.42 -11.2597 -14.5507 -7.5745 
-10.5455 -20.6034 -17.2265 -16.8792 -14.5507 -17.0782 
-2.9805 -2.7415 -4.6475 -2.356 -1.4985 -4.4695 -4.36 -4.5905 -3.9795 0 -6.2325 -3.9035 0 -3.4075 -3.8195 -3.9795 
-4.004 -5.5195 -6.651 -3.1615 -5.252501 -7.6705 -5.897 -6.8325 -3.9795 -6.2325 -7.1825 -3.9035 -3.4075 -6.464001 -6.875501 
-6.363 -7.363 -7.1335 -6.801001 -8.021501 -10.27 -6.9965 -6.8325 -8.581501 -7.1825 -7.1825 -6.973001 -6.464001 -8.151501 
-8.2235 -7.673501 -10.4505 -9.660501 -10.696 -11.3695 -6.9965 -10.6095 -9.5755 -7.1825 -11.0302 -9.351 -8.151501 
-8.519501 -11.1241 -13.31 -12.3842 -11.7955 -11.3695 -10.6095 -11.6035 -9.5755 -11.0302 -13.4082 -9.8725 
