-4.759 
n/a 
n/a 
n/a 
n/a 
-4.759 
n/a 
n/a 
n/a 
n/a 
-4.759 
n/a 
n/a 
n/a 
n/a 
-4.759 
n/a 
n/a 
n/a 
n/a 
-1.4985 -4.4935 -2.4945 -1.4985 -3.486 -2.5045 -2.356 -4.0535 -4.767 -4.599 0 -4.9225 
-5.5255 -6.1065 -3.9315 -3.5655 -4.737 -5.057 -5.981 -7.508 -6.3095 -4.599 -4.9225 
-6.875501 -7.652 -5.334 -4.8655 -6.978 -8.1075 -9.0725 -8.4835 -6.3095 -7.766001 
-8.189001 -8.080501 -5.9225 -7.098001 -9.437 -11.3692 -9.861501 -8.4835 -9.0865 
-8.338 -8.400001 -8.0795 -9.503501 -12.7439 -12.1582 -9.861501 -11.3503 
-4.4935 -3.1425 -2.489 -3.8825 -1.7695 -2.3335 -1.7565 -4.763 -4.9775 -4.9225 
-7.6525 -3.7875 -5.9235 -4.5575 -4.46 -4.618 -6.571001 -11.0465 -7.7335 
-8.2255 -6.7405 -6.156 -5.6335 -5.4005 -10.586 -13.2967 -13.8025 
-10.1505 -6.87 -7.14 -5.963 -11.4153 -17.3117 -16.0527 
-10.403 -7.946001 -7.4225 -11.967 -18.141 -20.0677 
-1.4985 -4.4935 -2.4945 -3.962 -4.9295 -1.7565 -4.767 -3.8225 -4.2875 -4.599 0 
-5.5255 -6.1065 -5.752 -9.1645 -7.4595 -6.278 -9.637501 -6.2075 -5.758501 -4.599 
-6.875501 -8.516001 -10.7495 -12.6263 -12.3176 -11.7365 -12.2059 -7.955 -5.758501 
-9.7025 -13.5139 -14.2113 -17.4844 -17.7761 -14.3049 -13.9534 -7.955 
-14.7302 -16.9757 -19.0694 -22.9429 -20.3445 -16.0524 -13.9534 
-4.4935 -2.4945 -4.07 -4.2875 -4.9225 -4.4935 0 
-6.1065 -5.139501 -9.1415 -7.971001 -7.6895 -4.4935 
-8.356501 -10.259 -12.953 -11.1154 -7.6895 
-13.6716 -14.4657 -16.0974 -11.1154 
-17.8783 -17.6101 -16.0974 
