-4.759 
n/a 
n/a 
n/a 
n/a 
-4.759 
n/a 
n/a 
n/a 
n/a 
-4.759 
n/a 
n/a 
n/a 
n/a 
-4.759 
n/a 
n/a 
n/a 
n/a 
-6.4925 -5.1995 -2.186 -4.1205 -2.5045 -2.664 -5.1995 -3.319 -1.934 -2.9705 -1.4985 -5.4125 -1.7565 -1.8085 -3.6765 0 -1.4985 -5.117 -3.788 -3.881 -2.0935 -3.595 -2.186 -4.8845 -1.756 -3.557 -2.9905 -1.756 -3.321 -1.4985 -6.425 -4.71 -1.4985 -4.3655 -3.881 -1.934 -1.4985 -5.117 -4.154 -2.3335 -3.6765 0 
-8.495501 -7.1215 -5.007 -5.3175 -4.074 -7.8095 -9.603001 -5.132 -4.051 -4.186 -6.5235 -7.097001 -3.2595 -4.452 -3.6765 -1.4985 -5.897 -8.7395 -6.573 -5.5525 -4.819 -5.940001 -6.7135 -6.5475 -5.094 -5.269 -4.565001 -4.0055 -4.481 -7.375 -10.119 -5.8275 -5.969501 -8.2575 -5.05 -2.6125 -5.897 -9.179001 -6.8535 -5.3345 -3.6765 
-9.9565 -9.406 -6.317 -6.448 -9.861 -10.7565 -11.758 -7.3225 -4.6815 -9.104501 -7.6685 -8.000501 -5.524 -4.452 -5.693 -5.897 -8.828501 -10.6605 -8.192 -7.7545 -6.991 -10.7579 -8.013 -7.6885 -6.485 -7.1895 -6.4315 -5.377 -9.951 -10.6465 -10.667 -10.7563 -10.172 -9.654 -5.829 -7.094 -10.0375 -11.8763 -8.819 -5.3345 
-12.536 -10.7505 -7.381001 -12.7508 -12.808 -12.9115 -13.9485 -7.803 -9.6405 -10.5235 -8.5115 -9.217001 -5.524 -6.694 -10.66 -8.828501 -11.2251 -12.2795 -10.0475 -9.910501 -11.9719 -12.0574 -10.126 -9.516001 -9.42 -8.849501 -7.793 -10.965 -13.2225 -11.1945 -15.5958 -14.9588 -10.6675 -10.1285 -9.713501 -10.7495 -12.7588 -13.8418 -8.819 
-13.8805 -11.8145 -13.7594 -15.6978 -14.963 -15.102 -14.429 -12.9862 -10.6615 -11.3665 -9.940001 -9.217001 -7.4855 -11.982 -13.5915 -11.2251 -12.8441 -14.135 -12.2345 -14.9546 -13.2714 -14.1704 -12.0845 -12.568 -11.2308 -10.27 -13.5012 -14.2365 -13.7705 -16.1233 -19.7983 -15.4543 -11.142 -14.193 -13.369 -13.4708 -14.7243 -13.8418 
-8.343 -5.1995 -2.8645 -5.0075 -3.402 -2.264 -4.825 -4.5865 -1.756 -2.925 -2.674 -4.2775 -3.9535 
-9.816501 -7.941 -9.046 -8.84 -3.793 -7.503 -7.066 -5.7455 -4.2585 -4.1785 -6.436 -7.114 
-12.558 -14.4923 -13.1883 -8.865001 -8.9275 -9.570001 -7.8205 -8.650001 -5.509 -8.0015 -9.4405 
-19.1093 -18.6346 -13.2133 -14.4911 -10.389 -10.027 -10.3885 -10.155 -9.369 -11.0926 
-23.2516 -18.6596 -18.8394 -15.9526 -10.846 -12.8734 -11.8935 -14.015 -12.4987 
-2.4265 -2.186 -4.7815 -1.7695 -2.489 -2.664 -3.319 -1.7565 -3.594 -1.756 -1.934 -2.3615 -3.319 -1.7565 -5.1995 -2.186 -3.4625 -3.264 -2.3345 -3.3425 -4.3125 -4.98 -4.923 -1.756 -3.402 -2.264 -3.788 -3.881 -4.5815 -2.7455 -2.3335 -4.015 -3.6765 -2.186 -3.4625 -3.264 -1.7695 -3.277 
-3.292 -5.5035 -5.3125 -3.1405 -4.563 -7.874 -4.165 -4.791 -4.857 -4.0205 -3.539 -4.9575 -4.165 -6.845 -7.1215 -4.4835 -5.7565 -5.9415 -4.554 -8.2635 -9.4025 -8.1025 -6.6905 -5.797 -3.793 -6.869 -6.573 -7.726001 -7.706 -4.9975 -5.5505 -6.4525 -5.1445 -4.4835 -5.7565 -4.908 -4.619 
-6.001 -5.737 -5.514 -5.011 -10.1945 -8.5975 -7.456501 -5.739 -7.402 -5.759501 -6.3415 -5.092 -8.907001 -8.273001 -9.634501 -6.745501 -7.804 -8.262501 -9.7045 -13.6657 -12.5892 -9.6145 -10.6605 -5.91 -8.210501 -9.5885 -9.83 -10.6885 -10.733 -7.231 -7.8745 -7.897 -7.3795 -6.745501 -7.7205 -6.4475 
-6.9405 -5.943 -7.318 -10.6595 -10.918 -12.114 -8.955001 -8.212 -9.064 -8.9965 -6.379 -9.786501 -10.177 -9.854 -12.3021 -8.2465 -10.494 -13.3702 -15.1147 -16.8524 -14.1012 -13.7249 -10.7735 -10.3885 -11.466 -13.2353 -12.8277 -13.7155 -12.9665 -9.389 -9.099001 -10.0965 -10.1433 -8.1385 -8.68 
-7.188 -7.7035 -13.3351 -11.383 -14.4345 -13.6125 -11.3348 -9.759501 -12.371 -9.0325 -11.3771 -10.4375 -11.758 -13.268 -13.8031 -11.0529 -15.6017 -18.7804 -18.3014 -18.3644 -18.2116 -13.8379 -15.252 -13.644 -15.1128 -16.233 -15.8547 -15.949 -15.1245 -10.7873 -11.4005 -12.8603 -11.5363 -8.8085 
-5.1995 -5.147 -4.554 -2.356 -3.6765 -2.229 -6.804 -2.186 -3.074 -4.1205 -2.3335 -3.788 -3.0365 -2.4945 -5.229 -2.7455 -3.595 -1.756 -1.4985 -6.425 -2.742 -4.4295 0 
-10.6095 -8.983001 -6.4775 -6.967501 -4.9715 -9.93 -8.376 -4.156 -6.0935 -5.9915 -5.832 -6.099 -3.688 -8.418 -7.032 -5.5125 -4.8 -3.0405 -7.375 -8.77 -5.9825 -4.4295 
-15.0845 -11.0713 -11.6694 -8.371 -11.141 -10.016 -10.0075 -6.72 -7.5915 -9.9615 -8.356501 -7.2395 -9.032001 -9.571 -8.966001 -6.4995 -6.061501 -9.004001 -9.3385 -10.622 -5.9825 
-17.1728 -16.2632 -13.0729 -13.2888 -10.569 -11.679 -12.5125 -8.599001 -11.6085 -12.486 -8.7305 -12.6405 -10.2385 -11.724 -9.925501 -7.695 -12.4338 -10.9923 -11.2361 -10.622 
-22.3647 -17.6667 -17.9907 -15.4981 -13.1173 -14.4765 -13.6505 -12.648 -14.133 -12.86 -14.4785 -13.847 -12.3915 -12.6835 -11.3158 -14.2217 -14.4221 -12.8899 -11.2361 
