-4.759 
n/a 
n/a 
n/a 
n/a 
-4.759 
n/a 
n/a 
n/a 
n/a 
-4.759 
n/a 
n/a 
n/a 
n/a 
-4.759 
n/a 
n/a 
n/a 
n/a 
-3.091 -4.121 -5.929 -2.186 -5.1845 
-5.304 -9.913501 -8.256001 -8.139501 
-11.4749 -12.4041 -14.5185 
-13.9655 -18.6666 
-20.228 
-3.091 -4.303 -3.6885 -2.186 -5.1845 0 
-6.120501 -6.045 -5.4995 -8.139501 -5.1845 
-7.6125 -7.086 -9.4165 -8.139501 
-8.956501 -9.915 -9.4165 
-11.6021 -9.915 
-3.091 -4.121 -5.0485 -2.186 -5.1845 
-5.304 -6.243001 -6.6985 -8.139501 
-7.79 -7.434501 -8.5655 
-8.507 -8.566501 
-8.8765 
-2.9805 -2.229 -4.121 -5.0485 -2.186 -5.1845 
-4.2145 -5.532001 -6.243001 -6.6985 -8.139501 
-9.3435 -7.8205 -7.434501 -8.5655 
-11.7704 -8.8015 -8.566501 
-12.7514 -9.8921 
