-4.759 
n/a 
n/a 
n/a 
n/a 
-4.759 
n/a 
n/a 
n/a 
n/a 
-4.759 
n/a 
n/a 
n/a 
n/a 
-4.759 
n/a 
n/a 
n/a 
n/a 
-3.689 -5.1195 -3.6215 
-8.198 -9.0345 
-12.5128 
n/a 
n/a 
-1.4985 -3.6215 -2.9705 -2.186 -3.76 -5.7975 0 
-4.3415 -6.446 -3.89 -6.8155 -8.691 -5.7975 
-7.231501 -7.221 -7.989 -12.1869 -8.691 
-8.189 -11.7216 -13.5928 -12.1869 
-12.8112 -17.3254 -13.5928 
-2.3615 -2.186 -1.4985 -3.76 -4.5735 -3.6445 0 
-3.5005 -3.339 -5.0205 -7.799 -8.298 -3.6445 
-4.3105 -6.229 -8.097 -11.8343 -8.298 
-7.290501 -9.085501 -12.2031 -11.8343 
-10.367 -13.3486 -12.2031 
-2.925 -2.4945 -3.383 -3.689 -1.934 -4.0145 
-3.7675 -4.732 -7.358 -5.870501 -5.904 
-5.7765 -8.540001 -8.96 -9.131001 
-9.986001 -9.8035 -10.7335 
-10.762 -11.7048 
