-4.759 
n/a 
n/a 
n/a 
n/a 
-4.759 
n/a 
n/a 
n/a 
n/a 
-4.759 
n/a 
n/a 
n/a 
n/a 
-4.759 
n/a 
n/a 
n/a 
n/a 
-1.4985 -4.285 -4.35 -1.7565 -1.4985 -3.995 -4.7175 -7.9065 -1.7565 -5.059 0 
-4.774 -6.4325 -5.3865 -2.4195 -4.712 -8.946501 -10.513 -7.9455 -6.89 -5.059 
-6.806 -7.509501 -6.2025 -5.2205 -9.462 -14.9302 -10.5585 -13.4408 -6.89 
-7.666 -7.833 -8.074501 -9.906 -15.5247 -14.9757 -16.0538 -13.4408 
-7.9335 -9.2985 -13.2724 -15.9687 -15.5702 -20.471 -16.0538 
-1.4985 -3.4715 -3.4425 -2.186 -4.7715 -4.5485 -2.3345 -1.4985 -4.3125 -4.1115 -1.7565 -1.4985 -3.188 0 
-4.574 -6.518001 -5.194 -5.6695 -8.6485 -5.4845 -3.233 -5.5105 -7.9195 -5.6415 -2.4195 -3.619 -3.188 
-8.026001 -8.316 -8.752001 -9.2215 -9.2475 -6.058 -7.1575 -8.8 -8.777 -7.222001 -4.4095 -3.619 
-9.268001 -12.1928 -12.264 -9.492001 -10.0585 -10.067 -10.621 -9.241501 -10.5447 -9.183001 -4.4095 
-13.0618 -15.7048 -12.5345 -10.2945 -14.0675 -13.5305 -11.0625 -11.2908 -12.5057 -9.183001 
-3.995 -2.229 -3.4715 -4.584 -2.186 -4.7175 -2.264 -5.059 0 
-5.324 -5.6685 -7.941501 -6.3135 -5.732 -6.0465 -7.29 -5.059 
-7.5825 -10.6215 -9.43 -9.322001 -7.620501 -11.3763 -7.29 
-13.2405 -12.11 -12.4747 -11.3037 -13.1039 -11.3763 
-14.729 -15.1547 -14.4564 -16.7871 -13.1039 
-3.995 -2.229 -3.4715 -2.186 -3.5795 -5.0895 0 
-5.324 -5.6685 -5.35 -7.236501 -9.684501 -5.0895 
-7.5825 -7.6055 -11.1187 -13.8475 -9.684501 
-8.294001 -13.7214 -17.7297 -13.8475 
-15.0895 -20.3324 -17.7297 
