-4.759 
n/a 
n/a 
n/a 
n/a 
-4.759 
n/a 
n/a 
n/a 
n/a 
-4.759 
n/a 
n/a 
n/a 
n/a 
-4.759 
n/a 
n/a 
n/a 
n/a 
-6.9185 -4.18 -5.005 -1.934 -3.225 
-12.1651 -10.9075 -7.151 -4.879 
-18.8926 -13.0535 -10.368 
-21.0386 -16.2705 
-24.2556 
-3.38 -5.4325 -3.852 -5.005 -3.225 
-9.407001 -9.987 -9.984001 -7.8085 
-14.3213 -16.4298 -13.1715 
-20.7641 -19.6173 
-23.9516 
-3.38 -5.858 -3.277 -3.225 
-10.4945 -9.497001 -6.0835 
-14.5365 -12.7549 
-17.7944 
n/a 
-3.6605 -3.7455 -3.724 -3.225 
-8.657001 -7.127 -7.0135 
-12.2395 -10.068 
-15.1805 
n/a 
