-4.759 
n/a 
n/a 
n/a 
n/a 
-4.759 
n/a 
n/a 
n/a 
n/a 
-4.759 
n/a 
n/a 
n/a 
n/a 
-4.759 
n/a 
n/a 
n/a 
n/a 
-8.395 -4.254 -2.5045 -7.045 -1.934 -12.16972 -3.5455 -3.539 -5.1635 -1.7695 -3.5715 -5.1465 0 -2.6165 -3.098 -2.3335 -4.1885 -1.934 -3.091 -3.228 -3.4795 -2.5195 -3.5715 -4.889 -1.7695 -3.531 -4.889 -2.9805 -3.693 -4.254 -2.5045 -7.045 -1.7565 -1.4985 -3.486 -3.5165 0 
-13.3562 -5.522 -8.321501 -8.193001 -15.11012 -15.71522 -6.821 -7.984501 -7.366 -5.955 -7.960501 -5.1465 -2.6165 -4.283 -5.509 -6.5165 -6.016001 -4.2105 -5.546 -5.907001 -5.3145 -5.99 -7.752501 -6.7135 -5.765 -7.634501 -7.346001 -6.634501 -7.7445 -5.522 -8.321501 -6.9165 -2.4195 -3.5655 -7.6625 -3.5165 
-14.6242 -10.4035 -10.016 -21.96882 -18.65562 -18.99072 -11.0131 -9.781501 -10.2085 -10.426 -7.960501 -7.844 -4.283 -5.9475 -9.76 -8.73 -8.184501 -6.2625 -7.3835 -8.787001 -8.4865 -10.0545 -9.5675 -10.044 -9.8915 -9.660501 -10.396 -8.951 -9.2145 -10.4035 -7.915501 -6.458 -4.824501 -7.765501 -7.6625 
-19.5792 -12.239 -23.45062 -25.70712 -21.93112 -23.18282 -12.8101 -12.624 -14.6795 -10.426 -10.8886 -10.1675 -5.9475 -10.5657 -12.3603 -10.702 -9.5445 -7.948501 -9.77 -12.0382 -13.0914 -10.4095 -13.0494 -14.3063 -11.9175 -12.6707 -12.7125 -9.7355 -14.1691 -10.8185 -8.2875 -9.8395 -9.3695 -7.765501 
-21.3412 -26.34532 -27.03232 -28.98262 -26.12322 -24.97982 -15.6526 -17.095 -14.6795 -13.3541 -13.2121 -11.832 -10.5657 -13.166 -14.3323 -12.062 -10.735 -10.2915 -13.2466 -16.6431 -13.4464 -13.8914 -17.3117 -16.3323 -14.9277 -14.9872 -13.497 -14.8887 -14.5106 -11.184 -12.4095 -15.3145 -9.3695 
-8.395 -4.254 -2.5045 -1.8085 -4.1985 -1.934 -12.16972 -2.5195 -3.539 -5.1635 -1.7695 -3.5715 -8.071501 -1.7695 -3.091 -3.498 -1.7565 -1.4985 -3.3435 -2.9805 -4.254 -2.5045 -4.269 -3.758 -2.5195 -3.5715 -4.889 -1.7695 -3.531 -4.889 0 
-13.3562 -5.522 -3.3625 -5.2985 -5.8505 -15.11012 -14.68922 -5.942 -7.984501 -7.366 -5.955 -12.2805 -10.2515 -4.458 -6.8395 -4.005 -2.4195 -4.6745 -5.746 -5.5985 -5.522 -6.1975 -8.5445 -6.6975 -5.99 -7.752501 -6.7135 -5.765 -7.634501 -4.889 
-14.6242 -5.7455 -6.094501 -6.589 -19.51062 -17.62962 -18.11172 -10.1035 -9.781501 -10.2085 -14.9766 -12.8566 -12.2815 -7.9135 -7.4595 -4.3765 -5.873001 -7.098001 -8.16 -6.3975 -7.921 -11.489 -12.0018 -9.723001 -10.0545 -9.5675 -10.044 -9.8915 -7.634501 
-14.8477 -7.517 -7.1615 -20.50072 -22.03012 -21.05212 -22.27322 -10.417 -12.624 -19.2301 -15.3221 -15.4269 -14.9328 -8.564 -7.649 -7.8065 -8.160501 -10.347 -8.900001 -8.595501 -13.3965 -14.9463 -15.0273 -13.7875 -10.4095 -13.0494 -14.3063 -9.8915 
-16.6192 -8.218 -21.16842 -23.02022 -25.45262 -25.21362 -22.58672 -13.2595 -21.6456 -19.5756 -17.8924 -17.9774 -14.9733 -8.6555 -11.7044 -10.403 -11.7489 -11.5174 -11.475 -14.1608 -16.8538 -17.9718 -19.0918 -14.1425 -13.8914 -17.3117 -14.3063 
-8.4125 -3.091 -3.956 0 -8.395 -3.213 -8.526501 -1.7565 -4.378 -11.0235 -3.458 -10.31 -1.756 -23.16322 0 
-9.46 -5.4375 -3.956 -8.395 -12.3152 -14.3375 -11.8375 -6.35 -16.5889 -14.4815 -10.335 -9.4025 -25.92782 -23.16322 
-13.2687 -5.4375 -13.4064 -12.3152 -23.4053 -15.9546 -17.3576 -19.1279 -20.0469 -21.196 -11.8685 -34.08642 -25.92782 
-13.2687 -15.3409 -17.3266 -23.4053 -25.0568 -21.4747 -30.1355 -22.5859 -26.7614 -22.892 -36.94272 -34.34922 
-23.1721 -19.2611 -28.4167 -25.0568 -30.5769 -34.2526 -33.5935 -29.3004 -28.4574 -47.96622 -36.94272 
-9.8555 -4.254 -2.5045 -4.269 -3.925 -1.934 -12.16972 -2.5195 -3.539 -5.1635 -4.732 -3.5715 -5.1465 -1.756 -3.693 -2.9805 -4.254 -2.5045 -4.269 -3.925 -2.5195 -3.5715 -4.889 -1.7695 -3.531 -4.889 -1.934 -3.091 -3.228 -3.4795 -1.7565 -3.091 -3.3435 -1.756 -4.424 0 
-14.3007 -5.522 -6.1975 -6.16 -5.362 -15.11012 -14.68922 -5.942 -7.984501 -9.7885 -7.4805 -7.960501 -6.97 -5.153501 -5.8625 -5.5985 -5.522 -6.1975 -6.16 -6.561 -5.99 -7.752501 -6.7135 -5.765 -7.634501 -6.887001 -4.2105 -5.546 -5.907001 -4.599 -4.0655 -5.029 -4.576 -5.698 -4.424 
-15.5687 -7.921 -8.1025 -8.1955 -19.87192 -17.62962 -18.11172 -10.1035 -12.9591 -12.537 -11.7931 -9.511001 -9.3225 -6.9965 -8.9585 -6.3975 -7.921 -8.1025 -9.2335 -10.3095 -10.0545 -9.5675 -10.044 -9.8915 -9.148001 -9.177501 -6.2625 -7.3835 -6.2805 -6.661 -5.5855 -5.986 -8.084001 -5.698 
-17.9677 -9.394501 -9.4265 -22.39062 -22.39142 -21.05212 -22.27322 -15.3595 -15.7076 -16.8496 -13.3436 -11.9409 -11.7817 -10.0815 -10.082 -8.595501 -9.394501 -10.0255 -12.9652 -14.374 -10.4095 -13.0494 -14.3063 -11.405 -11.4431 -11.3055 -7.948501 -8.852501 -8.079 -7.504 -6.6295 -8.564 -8.084001 
-19.4412 -10.9669 -23.60722 -24.91012 -25.81392 -25.21362 -27.52922 -18.108 -20.0202 -18.4001 -15.7735 -14.4001 -14.8667 -11.205 -12.0044 -10.199 -11.5659 -13.8712 -17.0297 -14.729 -13.8914 -17.3117 -15.8198 -13.7001 -13.5711 -12.9915 -9.380501 -10.1805 -8.305 -8.5555 -8.8335 -8.564 
