-4.759 
n/a 
n/a 
n/a 
n/a 
-4.759 
n/a 
n/a 
n/a 
n/a 
-4.759 
n/a 
n/a 
n/a 
n/a 
-4.759 
n/a 
n/a 
n/a 
n/a 
-4.088 -2.8645 -4.4715 -4.336 -4.7505 
-6.6225 -6.824 -7.319 -8.555 
-10.8762 -10.6215 -12.0184 
-14.6737 -15.3209 
-19.3731 
-4.088 -2.229 -3.8175 -3.355 -2.4945 -1.4985 -4.5155 -4.418 0 
-5.715 -5.692 -6.1305 -6.529 -3.9315 -5.738 -8.630501 -4.418 
-8.660001 -9.477 -9.5245 -7.914501 -8.504001 -9.7735 -8.630501 
-12.7178 -12.2982 -10.91 -12.567 -12.5127 -9.7735 
-15.539 -13.6837 -15.5625 -16.5757 -12.5127 
-1.934 -4.088 -3.17 -1.7565 -2.5685 -2.4945 -4.5155 -4.7505 
-4.9295 -7.137501 -4.179 -3.938 -5.3665 -6.992001 -8.8585 
-8.363 -8.26 -5.799 -7.270501 -9.814501 -11.7962 
-8.79 -10.2085 -8.461 -12.1095 -14.6463 
-11.1393 -12.8705 -13.3702 -16.9413 
-4.4285 -1.7565 -1.4985 -4.7505 -1.934 -4.088 -2.4945 -3.4765 -4.7505 0 
-4.6405 -2.4195 -5.934 -5.939 -4.9295 -6.7515 -5.654 -9.009501 -4.7505 
-5.2 -6.601001 -7.3025 -8.678 -7.312 -9.986501 -11.6874 -9.009501 
-9.0065 -7.830001 -9.7515 -10.1855 -10.4185 -16.0935 -11.6874 
-9.6675 -10.1305 -10.3985 -13.492 -16.5255 -16.0935 
