-4.759 
n/a 
n/a 
n/a 
n/a 
-4.759 
n/a 
n/a 
n/a 
n/a 
-4.759 
n/a 
n/a 
n/a 
n/a 
-4.759 
n/a 
n/a 
n/a 
n/a 
-5.0185 -4.9225 -4.493 -2.743 -4.9225 
-7.0895 -9.0965 -7.633 -8.571 
-11.9939 -12.3877 -13.9518 
-15.2851 -18.7065 
-21.6039 
-3.2615 -2.3615 -1.4985 -3.956 -4.5265 -3.433 -1.7565 -5.0185 -4.599 -2.8645 -4.492 -5.7865 -2.743 
-5.276 -4.913 -4.8985 -6.006001 -8.618 -4.1845 -6.2565 -5.1395 -7.050501 -5.881001 -9.4515 -7.755001 
-6.7585 -8.0315 -6.5175 -9.304001 -9.217501 -8.2965 -6.4125 -7.3735 -9.536501 -11.4993 -11.6822 
-10.4585 -9.6435 -9.867001 -9.719001 -13.4969 -8.3145 -8.3065 -9.903501 -15.4258 -13.73 
-12.0705 -13.1394 -10.338 -14.1272 -13.5149 -10.5975 -10.634 -15.8616 -17.6565 
-3.2615 -2.3615 -1.4985 -3.264 -1.7565 -3.1385 -4.424 -2.0935 -5.0185 -4.599 -2.8645 -4.157 -1.7695 -2.743 0 
-5.276 -4.913 -4.0935 -3.6125 -4.388 -6.278501 -6.271501 -6.7825 -5.1395 -7.050501 -5.4365 -5.6485 -5.122 -2.743 
-6.7585 -7.616 -4.178 -5.281 -7.666 -7.895 -12.1089 -6.923 -7.3735 -9.569 -6.809 -7.6105 -5.122 
-9.432 -7.733 -5.74 -8.812 -9.3065 -14.227 -12.2494 -9.3985 -9.943001 -10.206 -8.9735 -7.6105 
-9.502001 -9.045 -9.81 -10.5429 -15.9723 -14.3675 -14.7249 -12.405 -10.722 -12.7179 -8.9735 
-3.2615 -2.3615 0 -3.956 -9.962501 -5.0185 -4.599 -4.492 -1.7695 -4.2405 0 
-5.276 -2.3615 -3.956 -14.9739 -15.0748 -5.1395 -8.998001 -5.955 -5.832 -4.2405 
-5.276 -6.9845 -14.9739 -20.0862 -15.1958 -10.0445 -11.6368 -9.419001 -5.832 
-9.128 -18.3746 -20.0862 -20.2072 -20.1008 -13.1345 -15.1008 -9.419001 
-20.6173 -23.4869 -20.2072 -25.1122 -23.1908 -16.5985 -15.1008 
