-4.759 
n/a 
n/a 
n/a 
n/a 
-4.759 
n/a 
n/a 
n/a 
n/a 
-4.759 
n/a 
n/a 
n/a 
n/a 
-4.759 
n/a 
n/a 
n/a 
n/a 
-1.8085 -3.6385 -3.2495 -3.319 -1.7565 -3.6065 -3.3755 -1.934 -3.3435 0 
-4.581 -7.279 -7.117 -4.165 -4.8305 -5.843 -5.0985 -5.009501 -3.3435 
-8.412001 -11.5369 -7.6575 -8.624001 -8.8 -7.4995 -7.5465 -5.009501 
-13.0089 -12.0774 -12.2835 -12.7245 -10.7477 -10.4105 -7.5465 
-13.5494 -16.7034 -16.384 -14.6722 -13.6587 -10.4105 
-2.871 -3.6385 -2.3615 -4.7005 -4.4465 -1.7695 -3.135 -3.4795 -1.934 -2.8705 -3.3435 
-5.371 -6.169001 -8.1575 -10.459 -6.836 -4.779 -6.0235 -5.116 -4.1055 -5.8555 
-8.4655 -12.3472 -14.147 -12.8485 -8.045 -8.7045 -7.735001 -7.591001 -6.6235 
-14.7451 -18.3367 -16.5365 -14.0575 -13.4989 -10.31 -9.9355 -9.315001 
-20.7346 -20.7262 -17.7455 -19.5114 -15.1044 -12.5105 -11.7091 
-2.664 -3.6835 -3.4625 -3.3875 -4.416 -3.091 -4.6865 -1.934 -3.6065 -4.126 -1.7565 -3.3435 0 
-7.7835 -5.5035 -7.492 -7.1805 -6.638 -6.2425 -6.147 -4.9755 -7.49 -5.221001 -4.4105 -3.3435 
-9.0115 -8.101501 -11.7228 -9.22 -10.028 -7.435 -9.2285 -9.1525 -7.8665 -6.7135 -4.4105 
-11.6673 -12.3561 -13.7623 -12.7204 -11.2983 -10.8103 -13.5051 -9.379001 -9.039001 -6.7135 
-15.9219 -14.3956 -17.2627 -13.9907 -14.6736 -15.0869 -13.7316 -10.5707 -9.039001 
-3.345 -3.711 -4.1205 -2.5045 -1.934 -3.6065 -4.763 -1.7565 -4.221 -3.4625 -3.429 -3.456 
-8.271 -8.22 -5.3175 -4.5825 -4.9755 -6.2 -5.1985 -6.1875 -7.371 -7.99 -4.9975 
-13.2386 -9.6785 -7.9545 -8.213501 -7.2415 -6.3855 -10.564 -8.6405 -12.3173 -9.036 
-14.6971 -12.3111 -11.9425 -10.703 -7.343 -12.0592 -13.017 -14.0468 -13.3633 
-17.3297 -16.2991 -14.432 -10.775 -13.1653 -14.5122 -18.4233 -15.0928 
