-4.759 
n/a 
n/a 
n/a 
n/a 
-4.759 
n/a 
n/a 
n/a 
n/a 
-4.759 
n/a 
n/a 
n/a 
n/a 
-4.759 
n/a 
n/a 
n/a 
n/a 
-3.1335 -4.4605 -1.4985 -3.535 -3.9825 -1.934 -1.4985 -3.8935 
-7.745 -5.7325 -4.255 -6.876 -4.624 -2.6125 -4.9325 
-9.4235 -8.113001 -7.2465 -7.6175 -5.1565 -5.716001 
-12.1014 -8.5425 -8.0495 -8.1 -7.5775 
-12.5309 -8.841001 -8.546 -10.674 
-3.09 -2.186 -1.4985 -3.8175 -3.355 -3.432 -4.326 -3.8935 0 
-5.4045 -3.339 -4.741 -6.1305 -8.446501 -7.264501 -6.580501 -3.8935 
-6.6305 -6.228 -6.8345 -12.1538 -12.5778 -9.7845 -6.580501 
-9.148001 -8.384501 -12.9234 -16.2851 -15.0978 -9.7845 
-11.6563 -14.391 -17.0547 -18.8051 -15.0978 
-3.09 -3.519 -1.8085 -3.8175 -3.355 -1.7565 -1.4985 -4.109 -3.8935 0 
-7.1055 -5.0845 -4.55 -6.1305 -3.725 -2.4195 -5.435 -6.1445 -3.8935 
-8.531 -7.511 -6.27 -6.23 -4.0515 -6.179501 -7.554 -6.1445 
-10.304 -7.985 -6.373 -6.5655 -7.926001 -8.355 -7.554 
-10.6075 -7.9975 -6.727 -9.953501 -9.997001 -8.355 
-7.695 -3.1335 -2.186 -8.644501 -3.837 -3.93 -3.8935 
-10.2185 -4.6915 -9.657001 -12.7747 -7.665 -7.0755 
-11.7765 -13.2115 -14.0026 -16.6027 -10.9289 
-20.2965 -17.5571 -17.8306 -19.8666 
-24.6421 -21.3851 -21.0945 
