-4.759 
n/a 
n/a 
n/a 
n/a 
-4.759 
n/a 
n/a 
n/a 
n/a 
-4.759 
n/a 
n/a 
n/a 
n/a 
-4.759 
n/a 
n/a 
n/a 
n/a 
-2.872 0 -3.5485 -5.4425 -6.5625 -2.6165 -3.6955 0 
-2.872 -3.5485 -9.359 -7.282 -9.842501 -5.485001 -3.6955 
-5.6 -9.359 -11.4131 -10.5425 -12.8968 -5.485001 
-12.0353 -11.4131 -14.6736 -13.5968 -12.8968 
-14.0894 -14.6736 -17.7279 -13.5968 
-2.872 0 -8.881001 -6.5625 -3.5485 -4.567 -4.0225 0 
-2.872 -8.881001 -10.958 -10.504 -6.4235 -10.1995 -4.0225 
-13.05 -10.958 -14.8995 -13.379 -13.0046 -10.1995 
-15.127 -14.8995 -17.7745 -19.9601 -13.0046 
-19.0685 -17.7745 -24.3556 -19.9601 
-2.872 -3.5485 -5.4425 -6.5625 -2.186 -2.6165 -4.0225 0 
-5.6 -9.359 -7.282 -8.5115 -3.5105 -6.1855 -4.0225 
-12.0353 -11.4131 -8.9595 -9.814501 -6.93 -6.1855 
-14.0894 -13.0906 -10.6095 -13.2562 -6.93 
-15.7669 -14.7406 -14.0512 -13.2562 
-2.872 -3.5485 -3.5745 -5.651501 -5.4425 -6.5625 -4.5185 -1.4985 -3.7455 0 
-5.6 -5.196 -9.1155 -11.067 -7.282 -11.136 -5.231 -5.021501 -3.7455 
-7.061 -9.224501 -13.9366 -13.4345 -12.3943 -11.8485 -8.4045 -5.021501 
-10.644 -16.1098 -16.6967 -18.5468 -13.1068 -15.022 -8.4045 
-18.5114 -19.0763 -21.809 -19.2593 -16.2803 -15.022 
