-4.759 
n/a 
n/a 
n/a 
n/a 
-4.759 
n/a 
n/a 
n/a 
n/a 
-4.759 
n/a 
n/a 
n/a 
n/a 
-4.759 
n/a 
n/a 
n/a 
n/a 
-1.4985 -3.433 -2.0935 -2.3615 -3.6065 -3.7075 -2.8645 -3.1125 -3.966 -2.5045 -4.0005 -3.8405 
-5.026 -5.289 -3.854 -6.81 -6.8325 -6.146501 -3.5345 -5.925 -6.143 -6.0605 -6.443 
-6.756001 -7.644 -8.415001 -9.571 -9.6 -6.5455 -6.377 -7.958501 -10.028 -9.538 
-8.4645 -12.6168 -11.4182 -12.5139 -9.9145 -10.3155 -8.6625 -12.2507 -13.5621 
-13.5765 -15.62 -14.3611 -12.8284 -13.7639 -12.601 -12.9607 -15.7848 
-2.5045 -3.135 -4.126 -2.925 -3.966 -1.4985 -3.433 -1.7695 -4.0545 -2.3615 -5.8675 -3.8875 0 
-4.9895 -6.5745 -6.805501 -6.0515 -5.435 -5.026 -5.0945 -4.4685 -6.317 -7.246 -10.209 -3.8875 
-6.627501 -8.693001 -9.883 -7.0435 -9.502001 -6.277 -7.241 -6.5435 -9.2165 -11.8811 -10.209 
-8.696 -12.0079 -10.994 -11.3695 -10.576 -8.476001 -9.474501 -9.797001 -13.9826 -11.8811 
-12.0107 -13.1189 -15.32 -12.4435 -12.775 -10.4105 -12.8498 -14.6573 -13.9826 
-3.135 -1.7565 -6.334 0 -5.552 -2.5045 -3.3235 -2.5045 -1.4985 -7.4095 -4.547 -3.6005 -4.9755 -3.914 -1.7565 -4.9525 -5.766 -2.4285 -7.66 -5.766 0 -3.2495 -3.5775 -4.385 -1.934 -4.028 -4.1935 -2.3335 -4.523 -3.4265 -1.4985 -4.256 -4.985 -1.7565 -1.4985 -4.109 -4.6225 
-3.9195 -7.543001 -6.334 -5.552 -7.675 -3.7105 -3.8485 -3.583 -7.7045 -7.7615 -8.062 -8.6665 -7.8605 -4.677 -6.3195 -8.762001 -8.3035 -9.8505 -8.835 -5.766 -3.2495 -6.015 -6.54 -5.988 -6.377 -7.802501 -5.869 -5.8425 -7.095 -5.29 -5.953501 -7.9185 -6.9015 -2.4195 -5.435 -6.138 
-9.5415 -7.543001 -9.8125 -7.675 -8.5465 -3.8545 -4.654 -9.224501 -7.929501 -11.4487 -13.6908 -10.4345 -8.153 -8.809501 -10.0405 -10.6745 -16.0665 -10.6375 -8.835 -9.894501 -6.015 -8.188 -8.0155 -10.038 -10.4035 -10.7335 -9.4145 -8.856001 -7.571 -9.545 -9.161001 -9.742001 -7.716 -6.179501 -6.339 
-9.5415 -10.5035 -11.9947 -8.5465 -8.614 -4.6565 -10.5221 -9.266001 -11.7863 -17.0775 -15.4588 -10.5885 -10.7595 -10.76 -11.953 -18.4375 -16.8535 -10.6375 -13.2503 -12.66 -8.188 -9.591001 -12.1983 -14.5207 -13.3345 -14.279 -12.7254 -9.2205 -12.0218 -12.7731 -10.3225 -10.1575 -11.8886 -6.968 
-12.7014 -12.6857 -12.8662 -8.614 -9.455501 -10.526 -10.5636 -13.3628 -17.4151 -18.8455 -15.6128 -13.195 -10.765 -12.6725 -19.716 -19.2245 -16.8535 -15.0528 -16.0158 -14.833 -9.591001 -13.9194 -16.681 -17.4517 -16.88 -17.5899 -13.0899 -13.7251 -15.2499 -13.9346 -10.6445 -14.3301 -12.6771 
-1.4985 -3.433 -4.0995 -1.4985 -3.4265 -1.7565 -2.3615 -4.4985 -3.8875 -2.7415 -3.966 -2.5045 -3.135 -3.8405 0 
-5.026 -6.558001 -4.5135 -4.713 -4.967 -3.523 -6.198 -7.8915 -6.434 -5.8625 -6.143 -4.9895 -6.777 -3.8405 
-6.8595 -7.281 -7.293 -5.2915 -6.543 -7.3655 -8.47 -9.894001 -9.059001 -7.4575 -8.3785 -7.672 -6.777 
-7.415 -9.7735 -7.867001 -6.774 -9.601 -9.736501 -10.1305 -12.734 -10.5035 -9.393001 -11.601 -7.672 
-9.882501 -10.1405 -8.956501 -9.849501 -11.9894 -11.4942 -13.2353 -14.1785 -12.7294 -12.8827 -11.601 
