-4.759 
n/a 
n/a 
n/a 
n/a 
-4.759 
n/a 
n/a 
n/a 
n/a 
-4.759 
n/a 
n/a 
n/a 
n/a 
-4.759 
n/a 
n/a 
n/a 
n/a 
-4.566 0 -3.704 -4.577 -4.8905 -4.31 
-4.566 -3.704 -6.941 -8.66 -7.3135 
-8.311 -6.941 -9.913 -11.4264 
-11.9642 -9.913 -12.6794 
-14.9362 -12.6794 
-4.566 0 -12.16972 -9.574 0 
-4.566 -12.16972 -21.74372 -9.574 
-17.14952 -21.74372 -21.74372 
-26.72352 -21.74372 
-26.72352 
-4.566 0 -12.16972 -9.574 
-4.566 -12.16972 -21.74372 
-17.14952 -21.74372 
-26.72352 
n/a 
-14.872 -8.208 
-19.9448 
n/a 
n/a 
n/a 
