-4.759 
n/a 
n/a 
n/a 
n/a 
-4.759 
n/a 
n/a 
n/a 
n/a 
-4.759 
n/a 
n/a 
n/a 
n/a 
-4.759 
n/a 
n/a 
n/a 
n/a 
-4.0455 -2.229 -2.4945 -4.2215 -2.229 -1.934 -3.699 -4.088 -3.3155 -1.934 -3.5905 -3.853 0 
-6.483 -5.159 -7.326 -7.387001 -4.573 -6.4565 -7.144 -5.6105 -5.559 -5.709 -6.8265 -3.853 
-8.702001 -9.311501 -11.5133 -9.380001 -9.427501 -8.743501 -8.802 -8.354501 -9.2085 -9.232 -6.8265 
-12.9735 -14.262 -13.5063 -14.3983 -11.9503 -10.1425 -11.6224 -12.3196 -13.1113 -9.232 
-17.924 -16.255 -18.5246 -16.9211 -13.3493 -13.1709 -15.5875 -16.2224 -13.1113 
-4.442 -2.4945 -4.4155 -1.934 -4.5735 -3.853 -1.756 -2.4265 -2.186 -3.2955 -2.5045 -1.8085 -4.4525 -1.934 -4.2655 0 
-5.9795 -6.2805 -5.054 -5.86 -7.835 -5.1665 -3.949 -3.292 -4.348001 -4.6545 -3.3625 -5.658 -6.329 -6.2195 -4.2655 
-9.583 -6.7215 -8.4875 -9.4755 -8.804 -7.7295 -4.7355 -5.5295 -5.574 -5.021 -6.401 -7.384 -10.3285 -6.2195 
-10.0265 -9.528001 -12.5016 -10.2095 -11.5424 -8.582001 -7.163 -6.6815 -5.9525 -7.7545 -8.351 -11.7531 -10.3285 
-12.907 -13.6337 -13.2356 -13.0581 -12.3949 -11.1331 -8.2475 -6.9665 -8.502001 -9.241 -12.7435 -11.7531 
-2.5685 -1.4985 -5.1165 
-3.7015 -6.792001 
-8.315001 
n/a 
n/a 
-4.442 -3.7555 -3.699 -3.5015 -1.934 -1.4985 -4.2655 -1.756 -4.5735 -3.853 0 
-8.351001 -8.342 -6.8615 -4.704 -2.6125 -5.9775 -5.291 -6.2125 -7.835 -3.853 
-13.1767 -11.8923 -7.21 -5.1615 -7.251 -7.2185 -9.066 -9.271501 -7.835 
-16.727 -12.2408 -7.5575 -9.465 -8.397501 -11.1231 -12.3878 -9.271501 
-17.0755 -12.5883 -12.1832 -10.8273 -12.4335 -14.4449 -12.3878 
