-4.759 
n/a 
n/a 
n/a 
n/a 
-4.759 
n/a 
n/a 
n/a 
n/a 
-4.759 
n/a 
n/a 
n/a 
n/a 
-4.759 
n/a 
n/a 
n/a 
n/a 
-1.934 -3.5455 -3.6885 0 -9.237 0 -2.742 -3.803 -1.4985 -4.944 0 
-4.8495 -9.284 -3.6885 -9.237 -9.237 -2.742 -5.944 -5.3825 -5.905001 -4.944 
-10.7495 -9.284 -14.1279 -9.237 -12.3122 -5.944 -6.9145 -9.727501 -5.905001 
-10.7495 -19.8654 -14.1279 -12.3122 -15.5142 -6.9145 -11.5327 -9.727501 
-21.3309 -19.8654 -17.2031 -15.5142 -16.4847 -11.5327 -11.5327 
-6.181 -2.186 -3.074 -3.9205 -2.5045 0 -9.062 0 -1.934 -3.5455 -3.6885 0 
-8.2805 -4.156 -5.09 -4.449 -2.5045 -9.062 -9.062 -1.934 -4.8495 -9.284 -3.6885 
-10.27 -5.9775 -5.1285 -4.449 -12.4839 -9.062 -11.3032 -4.8495 -10.7495 -9.284 
-12.0915 -6.1365 -5.1285 -14.1592 -12.4839 -11.3032 -14.2187 -10.7495 -10.7495 
-12.2505 -6.1365 -15.1191 -14.1592 -14.7251 -14.2187 -20.1187 -10.7495 
-1.934 -12.16972 0 -9.237 0 -2.186 -6.01 
-15.11012 -12.16972 -9.237 -9.237 -2.186 -8.905001 
-15.11012 -21.40672 -9.237 -11.08 -8.905001 
-24.34712 -21.40672 -11.08 -17.799 
-24.34712 -23.24972 -17.799 
-1.934 -3.5455 -3.6885 -10.5565 -3.757 -4.0005 
-4.8495 -9.284 -15.4474 -14.3135 -9.109501 
-10.7495 -21.1849 -19.2044 -19.666 
-22.6504 -24.9419 -24.5569 
-26.4074 -30.2944 
