-4.759 
n/a 
n/a 
n/a 
n/a 
-4.759 
n/a 
n/a 
n/a 
n/a 
-4.759 
n/a 
n/a 
n/a 
n/a 
-4.759 
n/a 
n/a 
n/a 
n/a 
-4.442 -2.186 -3.383 -3.6135 -3.4905 -9.682501 -8.300501 0 
-6.6365 -4.438 -5.8785 -6.9235 -13.9714 -18.1412 -8.300501 
-8.675501 -7.286 -8.9125 -17.8014 -22.4301 -18.1412 
-11.5873 -10.3745 -19.919 -26.2601 -22.4301 
-14.6758 -21.381 -28.3777 -26.2601 
-4.0455 -3.757 -5.4675 -4.055 0 -2.3615 -2.186 -2.9325 -5.5255 -3.644 
-8.1525 -9.51 -10.041 -4.055 -2.3615 -3.5005 -4.589 -8.755 -10.082 
-14.2021 -14.1463 -10.041 -6.7405 -3.5005 -5.1855 -10.3897 -14.1153 
-18.8384 -14.1463 -12.8275 -7.5435 -5.1855 -11.0734 -15.75 
-18.8384 -16.9328 -13.6305 -9.475 -11.0734 -16.4337 

n/a 
n/a 
n/a 
n/a 
-1.7695 -3.6845 -4.676 -1.7565 -4.0455 0 -2.3335 -2.186 -3.6135 -3.4905 -1.756 -3.3715 -3.277 -3.8245 -4.399 
-4.2695 -8.387001 -5.184 -6.0895 -4.0455 -2.3335 -3.7085 -5.8795 -6.9235 -4.954 -4.6545 -4.9255 -6.8655 -9.278501 
-8.892 -9.222501 -9.8715 -6.0895 -6.244 -3.7085 -7.4525 -9.4925 -8.572001 -7.861 -7.248 -8.232 -13.5307 
-9.712501 -13.9558 -9.8715 -8.295501 -7.101 -7.4525 -11.3571 -10.6235 -11.6564 -10.8225 -10.5975 -15.0326 
-14.5376 -13.9558 -12.1485 -9.198501 -10.5745 -11.3571 -12.4881 -13.7079 -14.6179 -14.172 -17.3981 
