-4.759 
n/a 
n/a 
n/a 
n/a 
-4.759 
n/a 
n/a 
n/a 
n/a 
-4.759 
n/a 
n/a 
n/a 
n/a 
-4.759 
n/a 
n/a 
n/a 
n/a 
-3.17 -1.7565 -8.27 -4.221 -1.934 -12.16972 -3.2875 0 
-4.179 -9.440001 -12.9178 -5.1325 -15.11012 -15.45722 -3.2875 
-13.1867 -14.1464 -13.8293 -18.91422 -18.39762 -15.45722 
-17.8931 -15.0579 -27.61102 -22.20172 -18.39762 
-18.8046 -28.83962 -30.89852 -22.20172 
-3.17 -1.7565 -1.4985 -5.1845 -3.1385 -3.511 0 -4.733 0 -1.934 -12.16972 -3.2875 
-4.179 -2.4195 -6.5205 -7.4095 -5.979 -3.511 -4.733 -4.733 -1.934 -15.11012 -15.45722 
-4.497 -7.2335 -7.6315 -9.967001 -5.979 -8.974501 -4.733 -6.3385 -15.11012 -18.39762 
-9.278501 -8.087501 -10.5745 -9.967001 -12.5135 -8.974501 -6.3385 -20.15242 -18.39762 
-10.355 -11.0841 -10.5745 -16.5389 -12.5135 -10.7374 -20.15242 -23.43992 
-3.17 -1.7565 -1.4985 -9.6365 -2.4945 -3.8245 -1.934 -12.16972 -3.2875 0 
-4.179 -2.4195 -11.1415 -10.9575 -5.751 -4.7245 -15.11012 -15.45722 -3.2875 
-4.497 -12.2533 -12.4625 -14.214 -6.158 -18.66842 -18.39762 -15.45722 
-14.8668 -13.5743 -15.719 -14.621 -20.57952 -21.95592 -18.39762 
-16.1878 -16.8308 -16.126 -29.04252 -23.86702 -21.95592 
-4.4285 -1.7565 -1.4985 -5.1845 -3.1385 -4.221 -1.934 -1.4985 -3.2875 -1.7565 -4.3705 
-4.6405 -2.4195 -6.5205 -7.4095 -7.665501 -5.1325 -2.6125 -4.127 -4.3315 -5.4795 
-5.2 -7.2335 -7.6315 -12.3129 -8.482 -5.923 -4.9865 -4.75 -6.4315 
-9.359 -8.087501 -12.6941 -13.1294 -9.246501 -7.7345 -5.6 -6.743501 
-10.1005 -13.2037 -13.5106 -13.8939 -11.1786 -8.2755 -7.547501 
