-4.759 
n/a 
n/a 
n/a 
n/a 
-4.759 
n/a 
n/a 
n/a 
n/a 
-4.759 
n/a 
n/a 
n/a 
n/a 
-4.759 
n/a 
n/a 
n/a 
n/a 
-10.939 -3.193 -3.2955 -1.7695 -3.429 -12.16972 0 -3.301 -2.0935 -5.6135 0 
-14.132 -7.519 -3.9425 -4.032 -17.03492 -12.16972 -3.301 -4.815 -6.890501 -5.6135 
-18.458 -8.158501 -6.4375 -17.91932 -17.03492 -15.47072 -4.815 -7.0885 -6.890501 
-19.0975 -10.1675 -20.39862 -17.91932 -20.33592 -16.98472 -7.0885 -7.0885 
-21.1065 -24.32442 -20.39862 -21.22032 -21.84992 -19.25822 -7.0885 
-2.0935 -9.782001 -4.6425 -5.375 0 -2.0935 -3.77 -5.6135 0 -2.186 -4.77 
-12.8665 -14.5091 -9.293501 -5.375 -2.0935 -5.287 -8.212501 -5.6135 -2.186 -7.468 
-17.5936 -19.1601 -9.293501 -7.309501 -5.287 -8.455 -8.212501 -7.382 -7.468 
-22.2446 -19.1601 -11.4476 -11.09 -8.455 -8.455 -10.4945 -13.0532 
-22.2446 -21.3142 -15.2281 -14.258 -8.455 -10.674 -16.1657 
-4.5625 -1.7565 -7.219 -9.851501 0 -3.301 -2.0935 -5.6135 0 -2.186 -3.074 -4.77 0 
-5.4585 -8.623 -10.647 -9.851501 -3.301 -4.815 -6.890501 -5.6135 -2.186 -4.156 -8.802 -4.77 
-13.2048 -12.3762 -10.647 -13.2845 -4.815 -7.0885 -6.890501 -7.382 -4.156 -9.168501 -8.802 
-16.958 -12.3762 -14.08 -14.7985 -7.0885 -7.0885 -9.407501 -9.341001 -9.168501 -9.168501 
-16.958 -15.8092 -15.594 -17.072 -7.0885 -10.609 -11.4225 -14.4321 -9.168501 
-8.497001 -10.4135 0 -5.931 -2.0935 0 -1.7695 -3.9675 0 
-19.3531 -10.4135 -5.931 -8.1775 -2.0935 -1.7695 -6.521501 -3.9675 
-19.3531 -16.3445 -8.1775 -8.1775 -5.7445 -6.521501 -6.521501 
-25.2841 -18.591 -8.1775 -12.1455 -10.9275 -6.521501 
-27.5306 -18.591 -12.1455 -17.3285 -10.9275 
