-4.759 
n/a 
n/a 
n/a 
n/a 
-4.759 
n/a 
n/a 
n/a 
n/a 
-4.759 
n/a 
n/a 
n/a 
n/a 
-4.759 
n/a 
n/a 
n/a 
n/a 
-4.5485 -2.186 -3.5455 -3.6885 -3.594 
-6.1145 -6.533501 -9.284 -6.782001 
-10.8464 -12.836 -12.5195 
-17.1489 -16.0715 
-20.3844 
-10.9935 -5.3285 -3.452 -1.934 -5.92 
-16.322 -9.569 -5.2935 -6.953 
-20.5625 -11.7867 -9.5675 
-22.7802 -16.0607 
-27.0542 
0 -5.9885 0 -3.757 -3.452 -1.934 -5.92 0 
-5.9885 -5.9885 -3.757 -8.48 -5.2935 -6.953 -5.92 
-5.9885 -9.2025 -8.48 -9.903501 -9.5675 -6.953 
-9.2025 -14.2407 -9.903501 -14.3593 -9.5675 
-14.2407 -15.6642 -14.3593 -14.3593 
-10.9935 -2.186 -3.5455 -4.2915 -3.452 0 
-13.1795 -6.533501 -9.5345 -7.54 -3.452 
-17.527 -13.0865 -13.0304 -7.54 
-24.08 -16.5824 -13.0304 
-27.5759 -16.5824 
