-4.759 
n/a 
n/a 
n/a 
n/a 
-4.759 
n/a 
n/a 
n/a 
n/a 
-4.759 
n/a 
n/a 
n/a 
n/a 
-4.759 
n/a 
n/a 
n/a 
n/a 
-6.699 0 -1.4985 -4.126 -3.034 -1.4985 -6.8075 -4.6135 -5.095 -3.6215 -2.1715 -4.653 -1.756 -3.1435 -4.752 -4.2715 -1.8085 -5.0485 -1.7565 -2.743 -6.0215 0 
-6.699 -1.4985 -5.0885 -6.614 -3.947 -8.479 -8.619 -8.154 -7.9165 -5.9125 -6.417 -6.2355 -4.1365 -7.615001 -9.1805 -6.461 -6.295 -5.682 -5.021 -8.049 -6.0215 
-8.727 -5.0885 -7.315001 -7.294001 -10.688 -9.508 -12.4119 -11.3389 -10.348 -9.120501 -7.955501 -8.607 -8.908501 -12.1499 -11.6462 -10.1675 -6.49 -8.425 -9.8125 -8.049 
-12.4232 -7.315001 -7.9775 -14.1926 -11.717 -13.3689 -15.5968 -13.7704 -13.556 -10.135 -10.4505 -13.5536 -13.4768 -14.6156 -15.3527 -10.2205 -8.913501 -13.9253 -9.8125 
-14.6497 -7.9775 -14.9683 -15.2216 -15.5779 -16.5538 -18.0283 -16.9784 -14.5705 -12.8146 -15.3971 -18.1219 -15.9425 -18.3221 -15.4057 -12.9834 -14.6454 -13.9253 
-6.699 -4.8385 -4.052 -2.1715 -4.653 -1.756 -2.4265 -4.142 -2.743 -4.3225 -3.4905 0 
-10.8215 -8.1305 -7.6575 -6.417 -6.2355 -3.949 -8.347501 -6.7405 -6.219 -7.2755 -3.4905 
-14.1135 -13.2608 -12.13 -7.955501 -8.279 -10.4035 -10.7495 -8.4655 -9.176001 -7.2755 
-19.2438 -17.7333 -13.6685 -10.0155 -14.8647 -12.8055 -12.4745 -12.0043 -9.176001 
-23.7163 -19.2718 -15.7285 -16.647 -17.2667 -14.5305 -16.0133 -12.0043 
-6.699 0 -4.055 -4.4035 -2.0935 -2.1715 -5.5875 -4.142 -1.756 -3.9785 -6.5845 -4.783 -1.7565 -4.752 0 
-6.699 -4.055 -7.5245 -6.7435 -4.8875 -6.869 -8.558001 -5.7175 -5.5765 -12.0318 -8.5985 -5.727 -6.2485 -4.752 
-10.0255 -7.5245 -10.071 -9.149 -9.142 -9.710501 -9.935 -9.986001 -14.2684 -14.0458 -10.504 -9.254001 -6.2485 
-13.5794 -10.071 -12.5959 -14.0429 -12.0447 -11.1293 -14.2035 -18.9053 -16.2824 -15.9513 -14.031 -9.254001 
-16.1259 -12.5959 -17.4898 -16.9456 -13.4635 -15.3978 -23.1228 -20.9193 -18.1879 -19.4783 -14.031 
-6.699 0 -1.4985 -4.126 -3.3155 -1.4985 -5.922 -5.095 -2.1715 -4.653 -4.7565 -1.756 -3.1435 -5.8075 -4.993 -2.925 -1.7695 -2.743 -6.0215 -5.8815 0 
-6.699 -1.4985 -5.0885 -6.441 -4.1745 -7.4895 -9.5205 -7.777 -6.417 -7.612 -5.928 -4.1365 -8.2145 -10.1035 -7.38 -3.71 -5.122 -8.049 -10.2385 -5.8815 
-8.727 -5.0885 -6.8425 -7.2535 -10.0375 -9.986501 -12.3281 -12.6833 -8.6995 -8.880501 -8.797501 -9.611 -12.9691 -12.5961 -7.5775 -6.093 -9.182501 -12.566 -10.2385 
-12.4232 -6.8425 -7.7 -13.2613 -12.7125 -12.7941 -17.2344 -14.9658 -9.625 -11.8866 -14.3848 -14.4852 -15.4617 -12.7936 -9.8415 -9.9505 -13.8785 -12.566 
-14.1772 -7.7 -13.7816 -15.9363 -15.5201 -17.7004 -19.5169 -15.8913 -12.6311 -17.4739 -19.259 -16.9778 -15.6592 -15.0576 -13.7348 -14.7877 -13.8785 
