-4.759 
n/a 
n/a 
n/a 
n/a 
-4.759 
n/a 
n/a 
n/a 
n/a 
-4.759 
n/a 
n/a 
n/a 
n/a 
-4.759 
n/a 
n/a 
n/a 
n/a 
-7.093 -2.8645 -3.845 -1.7565 -4.0945 
-9.7635 -7.5775 -4.13 -6.772501 
-14.4181 -7.776 -8.7185 
-14.6166 -12.5051 
-19.3457 
-3.845 -1.7565 -5.4425 -5.279 -2.0935 -6.6565 0 
-4.13 -6.6675 -9.0535 -6.462 -9.292 -6.6565 
-9.2945 -9.772 -10.2781 -13.5205 -9.292 
-12.6464 -11.0454 -17.3366 -13.5205 
-13.9198 -18.1039 -17.3366 
-3.0365 -2.186 -3.3715 -4.664 -2.0935 -7.093 
-3.66 -6.375501 -7.848001 -6.183 -9.8655 
-7.303 -11.2744 -9.723001 -14.3186 
-12.3929 -13.1494 -18.0468 
-14.2679 -21.4732 
-3.0365 -2.4945 -3.3715 -4.676 -3.594 -5.4575 -8.252501 -6.178 
-3.688 -4.846 -9.172501 -9.423 -10.3165 -14.0374 -9.246501 
-4.8765 -10.543 -14.1699 -16.4721 -18.8964 -15.0314 
-10.564 -15.5404 -21.219 -25.052 -19.8904 
-15.5614 -22.5895 -29.7989 -26.046 
