-4.759 
n/a 
n/a 
n/a 
n/a 
-4.759 
n/a 
n/a 
n/a 
n/a 
-4.759 
n/a 
n/a 
n/a 
n/a 
-4.759 
n/a 
n/a 
n/a 
n/a 
-2.4265 -2.882 -4.3185 -2.871 -2.4285 -3.2495 -3.9355 -2.9705 -2.882 -4.4295 -2.7455 -1.4985 -3.4605 -2.4285 -3.1435 -3.535 -5.5855 -1.4985 -3.4605 -4.0465 -2.882 -3.465 -1.7695 -4.7475 
-4.4545 -5.103001 -6.379 -4.4275 -4.8145 -5.9285 -6.2495 -4.7675 -6.296 -7.097 -3.637 -4.652 -5.2625 -4.736 -5.8575 -7.7655 -7.3025 -4.652 -6.5575 -6.381001 -5.154 -3.665 -7.3395 
-6.705 -7.02 -6.6775 -5.255 -7.507501 -8.1505 -7.7005 -7.0955 -9.783001 -7.635 -6.381001 -6.183 -6.979 -8.699501 -9.59 -9.7135 -10.7082 -6.7865 -8.618501 -8.5185 -5.1825 -8.657001 
-8.642 -7.141 -8.1715 -7.542 -9.632 -10.199 -10.5975 -11.0267 -10.4375 -10.4956 -7.864501 -7.568501 -12.0995 -12.6342 -11.6508 -13.1192 -12.8427 -8.712 -10.688 -8.599 -10.513 
-8.7425 -8.8175 -10.1995 -9.669001 -11.7057 -12.706 -14.5287 -11.6812 -13.5723 -11.9791 -9.119 -13.8144 -16.0342 -14.695 -15.0565 -15.2537 -14.7682 -11.0985 -10.784 -14.0345 
-4.5005 -7.942 -3.858 -3.091 -3.308 -2.4285 -1.4985 -4.764 -1.7565 -3.091 -3.308 
-13.8697 -12.563 -6.951 -5.8635 -5.5885 -4.002501 -6.0035 -5.9445 -4.0655 -5.8635 
-18.4907 -15.656 -10.316 -8.124001 -7.7225 -9.057501 -6.22 -8.6145 -7.535501 
-21.5837 -19.021 -10.6705 -9.854501 -13.1413 -9.277 -8.8645 -12.2719 
-24.9487 -19.3755 -12.401 -15.2733 -13.3608 -10.4195 -12.5529 
-12.16972 0 -4.4295 -3.091 -8.972 0 -3.1435 -4.764 -2.3345 -2.871 -2.4285 -3.2495 
-12.16972 -4.4295 -6.621 -13.3488 -8.972 -3.1435 -6.824 -7.667001 -4.9425 -4.4275 -4.8145 
-16.59922 -6.621 -17.4104 -13.3488 -12.5725 -6.824 -8.665501 -10.6652 -5.8335 -5.255 
-18.79072 -17.4104 -17.4104 -16.9493 -16.253 -8.665501 -11.7687 -11.5562 -7.011 
-29.58012 -17.4104 -21.0109 -20.6298 -18.0945 -11.7687 -12.6597 -12.7337 
-4.5005 0 -4.7595 -1.7695 -2.985 -3.16 -3.7205 0 -1.756 -2.3335 -5.581 0 
-4.5005 -4.7595 -6.6885 -4.281 -5.567 -6.832 -3.7205 -1.756 -4.016 -8.4405 -5.581 
-8.775001 -6.6885 -9.63 -6.8405 -10.233 -6.832 -5.295 -4.016 -10.3545 -8.4405 
-11.0312 -9.63 -12.4029 -11.7427 -10.233 -8.4285 -8.336 -10.3545 -10.3545 
-13.9727 -12.4029 -17.3051 -11.7427 -11.8295 -11.7767 -14.7995 -10.3545 
