-4.759 
n/a 
n/a 
n/a 
n/a 
-4.759 
n/a 
n/a 
n/a 
n/a 
-4.759 
n/a 
n/a 
n/a 
n/a 
-4.759 
n/a 
n/a 
n/a 
n/a 
-1.4985 -3.6055 -2.871 -3.828 -4.6505 -3.135 -4.126 0 
-6.5345 -5.363 -7.116 -9.851 -7.372001 -6.5745 -4.126 
-8.795501 -10.4425 -13.7626 -12.5755 -11.2981 -6.5745 
-13.9282 -17.0891 -16.4871 -16.5016 -11.2981 
-20.5748 -19.8136 -20.4132 -16.5016 
-1.934 -3.345 -2.8645 -12.16972 
-4.618 -6.1105 -16.63722 
-9.02 -20.37222 
-23.32552 
n/a 
-3.345 -8.506001 -2.8645 -3.1125 -4.794 -3.355 0 
-12.9848 -10.862 -3.5345 -6.713 -8.367001 -3.355 
-15.3408 -11.532 -7.339 -11.17 -8.367001 
-16.0108 -15.3365 -12.1126 -11.17 
-19.8153 -20.1101 -12.1126 
-3.6055 -10.4975 -2.674 -3.135 -3.776 -4.96 0 
-15.4346 -13.1715 -4.7595 -6.128 -8.203501 -4.96 
-18.1086 -15.257 -7.6265 -10.9243 -8.203501 
-20.1941 -18.124 -12.7144 -10.9243 
-23.0611 -23.2119 -12.7144 
