-4.759 
n/a 
n/a 
n/a 
n/a 
-4.759 
n/a 
n/a 
n/a 
n/a 
-4.759 
n/a 
n/a 
n/a 
n/a 
-4.759 
n/a 
n/a 
n/a 
n/a 
-2.664 -4.1805 -3.326 -4.4175 -2.264 -4.617 -3.6605 -4.7425 -1.756 -3.9075 -2.4945 -5.412 -4.9805 0 
-5.2955 -6.988 -7.2515 -6.5865 -6.2155 -7.2 -4.8735 -6.0065 -5.14 -5.690001 -6.704 -7.741 -4.9805 
-8.603001 -10.6735 -9.5755 -11.2108 -8.6155 -7.489 -6.103001 -10.621 -6.9685 -9.235001 -8.387001 -7.741 
-12.6601 -12.9975 -14.624 -13.6108 -9.035001 -8.7065 -10.66 -12.4495 -10.597 -11.251 -8.387001 
-14.9841 -18.046 -17.024 -14.0303 -10.071 -13.5105 -12.4885 -16.078 -12.613 -11.251 
-4.426 -1.7565 -1.4985 -3.6115 -4.7285 -4.1555 -7.142 -4.593 -4.2065 -3.709 -3.518 -1.7565 -4.0745 -3.778 -4.129 -4.896 -2.4945 -3.958 0 
-5.47 -2.4195 -4.081 -6.5495 -8.4455 -10.537 -12.88 -9.0065 -6.5345 -7.478001 -4.302 -7.1705 -8.364 -8.3735 -10.2135 -6.527501 -5.478001 -3.958 
-5.9535 -5.180501 -6.670501 -9.978001 -14.133 -15.7331 -18.0563 -11.5699 -11.0309 -8.476501 -10.375 -10.586 -13.5943 -14.9454 -11.845 -10.451 -5.478001 
-8.462501 -7.797 -10.054 -15.6439 -19.5046 -20.5038 -20.6197 -16.0663 -12.0294 -14.7289 -13.7905 -15.8163 -20.1662 -16.5769 -15.7685 -10.451 
-10.2375 -11.2985 -15.7563 -21.0155 -24.2753 -23.0672 -25.1161 -17.0648 -18.2818 -18.1444 -19.0208 -22.3882 -21.7977 -20.5004 -15.7685 
-4.7425 -3.851 -1.7695 -4.3905 -4.033 -1.7565 -4.94 -5.173 -2.186 -2.6165 -2.664 -4.9985 -1.7565 -1.4985 -4.008 0 -4.018 0 -2.4265 -2.186 -2.664 -3.498 -3.777 -2.5195 -1.4985 -4.4725 -1.7565 -4.94 -5.173 -2.356 -6.043 -4.0415 -1.756 -2.8965 -4.033 -4.2645 
-7.663 -4.0015 -6.022 -6.7225 -4.5795 -5.953001 -5.667 -7.1955 -3.5105 -4.827 -6.2745 -5.870501 -2.4195 -5.641001 -4.008 -4.018 -4.018 -2.4265 -3.292 -3.8555 -5.1155 -5.7755 -5.4085 -3.1695 -5.4835 -5.704 -5.953001 -5.667 -7.3345 -8.208501 -6.754 -5.6595 -3.751 -6.3385 -6.6145 
-7.6725 -6.9965 -7.936501 -6.7405 -7.6835 -6.231 -7.617 -8.5205 -5.13 -8.149 -7.1 -6.697001 -6.3455 -5.641001 -7.6245 -4.018 -5.827 -3.292 -5.11 -6.808001 -7.5695 -8.461 -6.0085 -7.0905 -6.0035 -10.111 -6.231 -8.0655 -10.31 -8.823501 -8.1975 -7.727 -6.9135 -8.5895 
-9.3055 -8.9615 -7.9465 -8.708 -7.867 -8.052001 -8.775001 -10.3745 -8.439 -9.0745 -8.063 -9.830001 -6.3455 -9.048501 -7.6245 -5.827 -6.257 -5.11 -8.028001 -8.9445 -9.9505 -9.045 -8.228001 -7.382 -10.163 -10.3165 -8.555 -10.3285 -10.657 -10.1905 -10.071 -10.1465 -9.1505 
-10.4425 -8.97 -9.2585 -8.752501 -9.8695 -9.361501 -10.451 -10.633 -9.235001 -9.493 -10.418 -9.830001 -9.558001 -9.048501 -9.303501 -6.257 -7.453001 -8.028001 -9.8155 -10.4265 -10.345 -10.634 -8.3675 -10.6215 -10.361 -10.451 -10.374 -10.6575 -10.679 -10.655 -10.5285 -10.5705 
-3.188 -4.2485 -4.7075 -1.4985 -3.709 -1.756 -3.383 -3.6885 -3.518 
-8.014 -7.89 -5.6415 -4.5055 -5.214 -5.029 -5.3195 -7.597 
-12.1059 -9.216001 -7.476001 -6.054501 -8.3325 -7.1285 -9.2235 
-13.4319 -11.1499 -8.322001 -10.028 -10.7575 -11.1729 
-15.3658 -11.9959 -13.1399 -12.453 -14.8019 
