-4.759 
n/a 
n/a 
n/a 
n/a 
-4.759 
n/a 
n/a 
n/a 
n/a 
-4.759 
n/a 
n/a 
n/a 
n/a 
-4.759 
n/a 
n/a 
n/a 
n/a 
-4.5235 -1.934 -3.7075 -3.5795 -1.4985 -4.96 -1.7565 -4.972 0 
-5.894001 -6.1845 -8.431001 -4.5845 -6.503 -6.5585 -8.205 -4.972 
-10.434 -11.5988 -9.848001 -9.0425 -7.505501 -13.5966 -8.205 
-15.8483 -13.0158 -14.375 -10.5045 -15.0582 -13.5966 
-17.2653 -17.5428 -15.837 -18.1532 -15.0582 
-3.047 -3.7075 -4.622 -4.4385 -2.186 -3.2955 -2.264 -2.3615 -3.319 -1.934 -4.873 
-7.2425 -8.421 -8.039001 -6.318501 -4.348001 -5.16 -3.8255 -4.9575 -5.132 -8.437501 
-12.4678 -12.8078 -10.025 -8.337001 -6.309 -6.0615 -6.8875 -7.2185 -12.2371 
-16.8546 -14.7938 -12.0435 -10.287 -7.384501 -9.1815 -9.977 -14.6352 
-18.8406 -16.8123 -13.9935 -11.5879 -10.5125 -12.4266 -17.4627 
-4.873 -2.9645 -3.7075 -2.229 -4.622 -3.4905 -1.7695 -3.0415 -2.3615 -3.319 -1.7565 -4.8515 
-8.525001 -7.237 -5.5255 -6.1075 -8.003 -5.599501 -5.716001 -5.189 -4.9575 -4.165 -6.329 
-13.0039 -8.1055 -9.072001 -10.468 -10.645 -9.956 -7.9635 -7.9205 -5.092 -8.806001 
-13.8724 -12.077 -13.9663 -13.11 -15.0015 -12.3805 -10.8094 -7.9445 -9.687 
-17.8439 -16.9713 -16.6083 -17.4665 -17.426 -15.2264 -10.8334 -12.6607 
-4.5235 -1.7695 -3.3785 -1.4985 -4.622 -4.0395 -1.7565 -1.4985 -4.4515 -4.078 -1.4985 -3.486 -4.613 
-6.015 -4.1685 -4.6165 -5.221 -7.4425 -4.862 -2.4195 -5.0235 -8.874001 -4.947 -3.5655 -6.8345 
-8.77 -5.3175 -8.065001 -7.754001 -7.795001 -5.2685 -5.680501 -9.665 -9.805 -6.1485 -6.900001 
-9.788 -8.509501 -10.3215 -7.9005 -8.1355 -8.7755 -10.172 -10.6244 -11.0065 -8.383 
-12.98 -10.749 -10.3705 -8.208 -10.733 -13.5086 -11.225 -11.8259 -13.241 
