-4.759 
n/a 
n/a 
n/a 
n/a 
-4.759 
n/a 
n/a 
n/a 
n/a 
-4.759 
n/a 
n/a 
n/a 
n/a 
-4.759 
n/a 
n/a 
n/a 
n/a 
-10.245 -9.228001 -3.7905 -3.0835 -3.9725 -1.934 -1.4985 -3.158 -5.668 
-19.7184 -13.2163 -7.1285 -7.106501 -6.144 -2.6125 -4.178 -9.669001 
-23.7067 -16.5543 -10.5035 -8.904 -6.831 -5.265 -10.044 
-27.0447 -19.9293 -12.9716 -9.4595 -9.174001 -10.4265 
-30.4197 -22.3974 -13.5271 -11.9549 -14.3477 
-1.934 -1.4985 -3.158 -5.668 -3.0835 -11.0555 -3.7905 -1.4985 -3.9725 -3.2615 -6.509501 -8.164001 
-2.6125 -4.178 -9.669001 -8.8655 -15.3492 -14.846 -4.969 -4.88 -7.3585 -10.1035 -10.1185 
-5.265 -10.044 -12.9221 -21.9242 -19.1397 -16.0245 -7.7925 -7.948 -14.5371 -13.7469 
-10.4265 -13.2971 -25.9808 -25.7147 -20.3182 -18.848 -10.647 -15.2756 -18.1805 
-13.6796 -26.3558 -29.7713 -26.8932 -23.1417 -21.7025 -17.9746 -18.919 
-3.2615 -6.509501 -9.228001 0 -11.0555 -2.3085 -4.3195 -1.4985 -5.3865 -1.934 -5.668 0 
-10.1035 -10.6215 -9.228001 -11.0555 -13.364 -5.7225 -5.1515 -6.874001 -7.366 -8.477 -5.668 
-14.2499 -10.6215 -20.4813 -13.364 -16.778 -7.0455 -11.276 -9.3505 -14.2458 -8.477 
-14.2499 -21.8748 -22.7898 -16.778 -18.101 -13.3754 -13.7525 -16.2287 -14.2458 
-25.5032 -24.1833 -26.2038 -18.101 -24.4309 -15.8519 -20.6307 -16.2287 
-3.2615 -6.509501 -9.196501 -1.934 -5.668 -6.845 -2.3085 -7.671 -2.5045 -3.9725 0 
-10.1035 -10.862 -11.4639 -8.477 -13.0134 -9.733001 -10.784 -9.501501 -6.4545 -3.9725 
-14.4904 -13.1294 -18.0069 -16.0524 -15.9014 -18.3665 -12.6145 -10.2825 -6.4545 
-16.7578 -19.6724 -25.5823 -18.9404 -24.5349 -20.197 -13.3955 -10.2825 
-23.3008 -27.2478 -28.4703 -27.5739 -26.3654 -20.978 -13.3955 
