-4.759 
n/a 
n/a 
n/a 
n/a 
-4.759 
n/a 
n/a 
n/a 
n/a 
-4.759 
n/a 
n/a 
n/a 
n/a 
-4.759 
n/a 
n/a 
n/a 
n/a 
-4.426 -1.7565 -1.4985 -3.0835 -4.7285 -4.1555 -3.147 -2.3615 -2.8645 -1.7695 -2.489 -3.8535 -3.4945 -2.9995 -4.8855 0 -4.9475 0 -5.549 -1.756 -5.8435 -1.934 -1.8085 -3.301 -4.412 0 
-5.47 -2.4195 -3.535 -6.042 -8.4455 -5.77 -5.445 -4.878 -4.4755 -3.1405 -4.6325 -6.144 -4.9185 -8.008 -4.8855 -4.9475 -4.9475 -5.549 -6.8565 -7.3475 -7.2745 -3.2685 -4.019 -7.903 -4.412 
-5.9535 -4.6785 -6.335501 -9.523001 -9.541501 -8.02 -7.8365 -6.149 -4.9335 -5.198 -6.562 -7.463 -10.5035 -8.008 -10.674 -4.9475 -8.593 -6.8565 -13.1052 -8.6675 -8.927 -5.798 -8.202 -7.903 
-8.021 -7.476501 -10.0095 -10.7035 -11.7915 -10.2755 -8.97 -6.3295 -6.2935 -7.687 -7.9535 -13.2324 -10.5035 -14.2623 -10.674 -8.593 -9.3905 -13.1052 -14.4252 -10.316 -11.5767 -8.368501 -8.202 
-9.983001 -11.3061 -11.3 -12.9535 -14.047 -10.452 -9.0745 -7.336 -8.6635 -8.969001 -13.8807 -13.2324 -16.7578 -14.2623 -14.3195 -9.3905 -15.7376 -14.4252 -16.0737 -12.9657 -14.1472 -8.368501 
-2.3615 -4.6495 0 -2.4285 -6.35 0 -5.004 0 -2.4945 -5.425 -1.756 -5.895 -1.756 -3.013 -6.383 
-6.822001 -4.6495 -2.4285 -7.8125 -6.35 -5.004 -5.004 -2.4945 -7.507 -6.973001 -7.1715 -7.1055 -4.674 -6.415 
-6.822001 -6.661 -7.8125 -7.8125 -12.2018 -5.004 -7.587501 -7.507 -9.713501 -12.8491 -8.5625 -9.618501 -9.5865 
-9.1175 -12.9758 -7.8125 -13.9211 -12.2018 -7.587501 -12.9096 -9.713501 -15.7682 -14.2401 -11.2305 -14.8009 
-15.5647 -12.9758 -13.9211 -13.9211 -14.7853 -12.9096 -15.1161 -15.7682 -17.1592 -16.9081 -16.4129 
-2.4265 -2.8645 -2.847 -4.6495 0 -2.847 -8.3575 0 -2.847 -5.004 -2.4285 -2.847 -10.2775 0 -2.847 -9.351001 0 -3.992 -3.3875 -3.3165 -4.062 0 
-4.1435 -4.6285 -6.3945 -4.6495 -2.847 -10.802 -8.3575 -2.847 -7.668 -6.7375 -4.9945 -13.7313 -10.2775 -2.847 -12.8048 -9.351001 -3.992 -6.7585 -5.6825 -7.695 -4.062 
-5.843 -7.2945 -6.3945 -7.566 -10.802 -10.802 -12.0465 -7.668 -8.697001 -10.1075 -16.4768 -13.7313 -13.3923 -12.8048 -12.8048 -13.6512 -6.7585 -7.1745 -10.5975 -7.695 
-8.783501 -7.2945 -8.7565 -15.8952 -10.802 -14.491 -16.8675 -8.697001 -12.278 -21.7 -16.4768 -16.8461 -23.3501 -12.8048 -17.105 -16.4177 -7.1745 -12.1139 -10.5975 
-8.783501 -10.434 -17.3245 -15.8952 -14.491 -19.312 -17.8965 -12.278 -23.8705 -21.7 -19.5916 -26.8039 -23.3501 -17.105 -19.8715 -16.8337 -12.1139 -12.1139 
-3.4945 -5.268 0 -3.4945 -4.9475 0 -3.4945 -4.5515 -4.0215 -4.221 -3.3235 
-9.826 -5.268 -3.4945 -9.351501 -4.9475 -3.4945 -6.7585 -8.918501 -7.455501 -7.5185 
-9.826 -9.874001 -9.351501 -9.351501 -8.418 -6.7585 -11.8957 -12.6071 -10.1105 
-14.432 -15.9156 -9.351501 -12.899 -12.0308 -11.8957 -15.5843 -15.2621 
-20.4736 -15.9156 -12.899 -16.5118 -17.168 -15.5843 -18.2393 
