-4.759 
n/a 
n/a 
n/a 
n/a 
-4.759 
n/a 
n/a 
n/a 
n/a 
-4.759 
n/a 
n/a 
n/a 
n/a 
-4.759 
n/a 
n/a 
n/a 
n/a 
-3.995 -2.229 -4.692 -3.6445 -4.8505 -3.1435 -4.6985 -2.5195 -3.4625 -5.3765 -3.8515 -2.3345 -1.4985 -4.365 -4.238 -5.26 -1.756 -4.8 -3.013 -2.6165 -2.674 -4.692 -4.134 0 -1.756 -2.5045 -1.8085 -3.777 0 -1.4985 -4.365 -4.238 -4.4125 -2.985 -6.117 -1.7695 -5.1585 -5.616 -3.8515 -3.222 -3.7345 0 
-5.324 -6.6025 -5.5985 -8.415501 -7.7845 -7.23 -6.9245 -5.0975 -7.2025 -7.0025 -5.754 -3.233 -5.4465 -6.107 -9.397001 -6.526 -6.4675 -8.3335 -3.724 -4.2165 -7.9285 -5.985001 -4.134 -1.756 -4.4965 -3.3625 -4.3955 -3.777 -1.4985 -5.4465 -6.107 -8.2805 -7.535501 -8.117001 -8.032001 -6.542 -9.5425 -8.5565 -6.526501 -6.0775 -3.7345 
-6.845 -6.7895 -10.041 -10.7595 -12.2 -9.0535 -8.6995 -8.359 -8.168 -8.21 -6.332 -7.233 -6.6835 -9.548 -10.144 -7.266 -9.573 -9.035501 -4.6215 -9.304 -8.688001 -5.985001 -5.514 -4.4965 -5.1815 -4.4445 -4.3955 -5.3765 -5.4465 -6.6835 -9.646501 -10.3965 -10.476 -9.683001 -10.553 -9.747001 -10.3835 -9.981 -8.5425 -6.0775 
-6.906 -10.4425 -12.4744 -15.175 -14.0235 -10.634 -8.756001 -8.738 -9.213 -8.669001 -9.2235 -7.951 -9.799001 -10.1875 -10.1935 -10.0605 -9.7685 -9.46 -9.561001 -9.841001 -8.688001 -7.132 -8.1415 -5.1815 -5.705 -4.4445 -5.523 -9.456 -6.6835 -9.774 -10.5455 -10.566 -10.4905 -10.5555 -10.5705 -10.4135 -10.5565 -10.401 -8.5425 
-10.4765 -12.8759 -16.8899 -16.9985 -15.604 -10.7705 -8.757501 -10.3105 -9.627001 -9.9125 -9.2515 -10.717 -10.6005 -10.195 -10.613 -10.1955 -10.2225 -10.5245 -9.912001 -9.841001 -9.767 -9.98 -8.777 -5.705 -5.705 -5.527 -9.526001 -10.1235 -9.774 -10.5455 -10.573 -10.5835 -10.5825 -10.573 -10.588 -10.558 -10.5735 -10.401 
-3.6705 0 -3.9345 -1.7695 -3.634 -3.833 0 -3.2615 -3.8255 -2.9905 -1.7565 -1.4985 -4.0325 -1.7565 -4.6225 -3.851 -1.7695 -1.4985 -4.0045 -1.7565 -4.828 0 -1.4985 -3.995 -2.882 -3.717 -1.4985 -5.0405 -1.7565 -1.4985 -3.7075 -1.756 -3.0465 -4.9345 -4.3315 
-3.6705 -3.9345 -3.94 -5.943501 -5.9805 -3.833 -3.2615 -5.910501 -5.744 -3.6185 -2.4195 -4.933001 -5.3175 -6.338 -8.497001 -4.0015 -2.7955 -4.6965 -4.606501 -6.5055 -4.828 -1.4985 -4.712 -7.0965 -5.873 -4.4985 -6.252001 -6.302 -2.4195 -4.6235 -5.318 -4.477 -7.356501 -8.1555 
-6.594 -3.94 -6.7475 -7.6635 -5.9805 -7.2045 -5.910501 -7.5925 -5.9855 -4.3385 -6.1675 -5.612 -9.029 -10.199 -8.582001 -4.5775 -6.369 -4.8345 -8.913001 -6.5055 -6.4925 -4.712 -7.533501 -10.204 -6.7565 -8.884501 -6.6625 -6.8855 -5.468501 -5.845 -8.374001 -8.943501 -10.5325 
-6.5975 -6.7475 -7.7665 -7.6635 -9.7685 -9.989 -7.5925 -7.6825 -6.5965 -7.6645 -7.268001 -9.157001 -13.0002 -10.3 -8.989501 -7.116 -6.517 -9.081 -8.913001 -7.759501 -9.526501 -7.533501 -10.328 -11.4129 -11.3791 -9.9144 -7.3915 -8.755501 -6.535 -8.525001 -13.1037 -12.2297 
-8.935 -7.7665 -7.7665 -11.5317 -12.8496 -11.7118 -7.6825 -8.0085 -9.765 -7.783501 -11.0108 -13.1566 -13.1012 -10.7075 -11.6346 -7.186 -10.434 -9.081 -10.335 -11.2619 -12.5632 -10.328 -11.7389 -16.0355 -12.409 -10.6434 -9.165001 -9.124001 -9.718 -13.3071 -16.3899 
-3.4765 -3.929 0 -3.634 -3.326 -5.2485 -2.3335 -5.5995 -2.5195 -1.4985 -4.983 -2.4945 0 -3.995 -3.768 -4.644 -2.5195 -3.1435 -5.5085 -4.0325 -1.756 -3.717 -3.222 -1.4985 -3.7075 -2.229 -3.892 -2.9705 -2.186 -4.4665 -3.704 -3.757 -1.756 -2.4265 -2.882 -5.6935 
-4.589 -3.929 -3.634 -5.944 -8.079 -6.3255 -7.978001 -7.5455 -3.1695 -6.109 -6.5395 -2.4945 -3.995 -7.6705 -7.531 -5.5865 -4.948 -7.4715 -10.143 -5.667 -5.358 -5.268001 -3.7835 -4.6235 -5.5255 -6.5715 -6.314 -3.89 -7.133 -8.2075 -6.422 -5.793 -3.949 -4.4545 -10.0285 
-4.589 -7.6995 -5.944 -9.894001 -9.009501 -12.3682 -10.1145 -8.3325 -8.024 -7.305501 -6.5395 -7.486001 -7.6705 -10.575 -8.5865 -8.138 -9.005 -12.7722 -11.9085 -8.561501 -6.736 -6.162001 -6.796 -5.9985 -10.3745 -9.346001 -6.952001 -9.314 -11.6078 -10.5325 -8.193001 -7.928 -5.951 -12.5532 
-8.399 -9.028 -9.894001 -10.3855 -15.0092 -14.5047 -10.9015 -13.4346 -10.2035 -7.305501 -12.1388 -11.6709 -10.575 -11.6305 -10.5975 -12.3908 -14.5771 -14.5377 -14.803 -10.6215 -7.488 -9.969001 -8.479 -10.702 -13.4838 -10.02 -12.6722 -13.822 -13.9328 -13.5201 -10.2865 -10.155 -14.2673 
-9.616 -13.3544 -10.3855 -16.3852 -17.1457 -15.2917 -16.0036 -15.6141 -10.2035 -13.3466 -16.3237 -14.5754 -11.6305 -13.6415 -14.8503 -17.9629 -16.3426 -17.4322 -16.863 -11.3735 -11.4798 -11.733 -13.5293 -14.2363 -14.1578 -15.7402 -17.1802 -16.147 -16.9204 -15.6136 -12.5135 -18.5029 
-4.0775 -3.326 -3.74 0 -3.995 -3.183 -4.0555 -4.0435 -1.7565 -1.4985 -3.7075 -4.0325 
-7.945001 -6.3135 -3.74 -3.995 -7.264 -6.002501 -7.7065 -4.7605 -2.4195 -4.6235 -7.486 
-11.6463 -6.3135 -8.619 -7.264 -10.485 -10.089 -9.0895 -5.139 -5.468501 -8.700001 
-11.6463 -11.9305 -12.315 -10.485 -14.5715 -11.472 -9.365001 -8.989 -9.5165 
-17.2633 -15.6265 -15.536 -14.5715 -15.9545 -11.7475 -13.2562 -13.2404 
