-4.759 
n/a 
n/a 
n/a 
n/a 
-4.759 
n/a 
n/a 
n/a 
n/a 
-4.759 
n/a 
n/a 
n/a 
n/a 
-4.759 
n/a 
n/a 
n/a 
n/a 
-2.0935 -3.668 -3.9455 0 -4.851 
-3.995 -8.183001 -3.9455 -4.851 
-8.477 -8.183001 -9.365001 
-8.477 -13.7703 
-14.1263 
-2.0935 -3.668 -4.851 -3.7345 
-3.995 -8.742001 -8.1225 
-8.853001 -12.1829 
-12.3389 
n/a 
-1.4985 -3.9825 -1.7565 -1.4985 -4.3 -4.4605 -2.7415 -1.4985 -3.4265 -1.7565 -3.1495 -4.3 -4.2335 -1.756 -4.2645 0 
-4.6215 -4.571 -2.4195 -5.4455 -6.786 -7.158501 -4.063 -4.713 -4.967 -3.914 -7.365001 -6.8945 -5.316 -5.412 -4.2645 
-4.7215 -5.2245 -6.198 -8.227 -9.242001 -8.587501 -7.51 -5.2915 -7.1065 -7.9835 -9.658001 -7.7455 -8.429501 -5.412 
-5.3685 -8.791 -9.262 -10.494 -10.9014 -12.2209 -7.910501 -7.333 -11.5316 -10.2275 -10.6115 -10.3745 -8.429501 
-8.957001 -10.208 -11.669 -12.1534 -14.5348 -12.6214 -10.3155 -11.8643 -13.7756 -11.181 -13.2405 -10.3745 
-2.0935 -3.668 -4.514 -5.3605 0 -4.851 -5.02 -2.7765 -2.489 -4.1205 0 
-3.995 -9.145 -7.956 -5.3605 -4.851 -6.955 -7.348001 -3.495 -4.6245 -4.1205 
-9.344001 -12.6428 -7.956 -8.545 -6.955 -9.347501 -7.638501 -5.811501 -4.6245 
-12.867 -12.6428 -8.8295 -8.826 -9.347501 -9.825001 -10.3285 -5.811501 
-12.867 -13.5163 -8.830501 -12.8395 -9.825001 -12.5722 -10.3285 
