-4.759 
n/a 
n/a 
n/a 
n/a 
-4.759 
n/a 
n/a 
n/a 
n/a 
-4.759 
n/a 
n/a 
n/a 
n/a 
-4.759 
n/a 
n/a 
n/a 
n/a 
-2.5045 -2.3615 -2.95 -4.4755 -3.7905 -3.539 -1.934 -3.579 -4.126 0 
-4.3105 -4.4645 -8.351501 -8.783501 -8.638 -5.0485 -5.5785 -8.881001 -4.126 
-4.89 -9.498501 -13.0191 -13.8898 -10.304 -9.264501 -11.6801 -8.881001 
-9.884501 -14.2855 -18.1254 -15.5558 -14.52 -15.5589 -11.6801 
-14.7887 -19.3918 -19.7914 -19.7718 -20.8144 -15.5589 
-2.5045 -2.3335 -2.95 -4.4755 -1.934 -4.821 
-4.744 -4.8245 -8.351501 -6.417 -6.623 
-5.158 -9.68 -10.2285 -11.793 
-9.901 -11.7842 -15.9019 
-12.1148 -17.4576 
-2.264 -2.3335 -2.95 0 -4.4755 -2.7415 -4.686 -5.4075 -4.602 0 
-4.6785 -4.8245 -2.95 -4.4755 -7.002501 -6.5575 -9.706501 -9.293501 -4.602 
-7.7465 -4.8245 -8.351501 -7.002501 -10.382 -12.1936 -13.8203 -9.293501 
-7.7465 -9.68 -9.7345 -10.382 -16.1613 -16.3074 -13.8203 
-12.8394 -10.384 -13.114 -16.1613 -20.2751 -16.3074 
-4.426 -1.7565 -1.4985 -3.6115 -4.7285 -4.1555 -3.147 -2.3615 -2.186 -1.8085 -2.95 -1.7565 -5.9565 -3.8565 -1.7565 -6.207 0 
-5.47 -2.4195 -4.081 -6.5495 -8.4455 -5.77 -5.445 -3.5005 -3.164 -4.4675 -4.3785 -7.6685 -11.08 -7.705501 -7.850501 -6.207 
-5.9535 -5.180501 -6.670501 -9.978001 -9.541501 -8.02 -6.151 -4.179 -5.9375 -5.5635 -11.2185 -13.1366 -14.929 -14.0413 -7.850501 
-8.462501 -7.797 -10.054 -11.0524 -11.7915 -8.458501 -6.8065 -6.704 -6.754001 -12.9969 -16.6866 -16.9856 -21.2648 -14.0413 
-10.2375 -11.2985 -11.1648 -13.3024 -12.23 -9.295 -9.516001 -7.394 -14.7002 -18.465 -20.5356 -23.3214 -21.2648 
