-4.759 
n/a 
n/a 
n/a 
n/a 
-4.759 
n/a 
n/a 
n/a 
n/a 
-4.759 
n/a 
n/a 
n/a 
n/a 
-4.759 
n/a 
n/a 
n/a 
n/a 
-2.7455 -6.4125 -5.495 -3.152 -4.4015 -1.7695 -2.489 -4.164 -1.934 -6.04 
-8.9135 -12.5329 -7.742001 -7.0045 -4.6435 -3.1405 -5.190001 -5.572 -6.503 
-15.1737 -14.7799 -11.9417 -8.387 -6.8005 -5.9325 -6.448501 -9.857 
-17.4207 -18.9796 -13.3242 -8.7755 -10.459 -7.1225 -11.283 
-21.6204 -20.3621 -13.7127 -12.6038 -11.649 -11.8078 
-6.04 -3.8405 -7.243001 -4.269 -4.532 -2.0935 -4.58 
-9.299001 -9.1975 -8.347501 -9.4215 -5.504 -6.515 
-14.5524 -12.5875 -13.9192 -10.7505 -10.513 
-18.0434 -18.3624 -15.3558 -15.7595 
-23.7447 -19.6914 -20.3648 
-5.6735 -3.1495 -3.4795 -7.243001 -4.9225 -2.4945 -4.06 
-8.903 -5.004 -8.841001 -10.467 -6.9525 -5.1305 
-11.34 -11.463 -14.323 -12.026 -9.969501 
-18.0708 -16.7074 -16.4649 -15.043 
-23.3152 -18.6109 -19.4819 
-1.934 -6.04 -1.4985 -3.5085 -4.9225 -2.7415 -7.243001 
-6.503 -6.989 -4.4755 -9.492001 -7.802 -8.291 
-8.5205 -9.802501 -10.757 -12.7583 -13.2692 
-9.423 -15.3242 -14.0233 -18.2255 
-15.7303 -18.5671 -19.4905 
