-4.759 
n/a 
n/a 
n/a 
n/a 
-4.759 
n/a 
n/a 
n/a 
n/a 
-4.759 
n/a 
n/a 
n/a 
n/a 
-4.759 
n/a 
n/a 
n/a 
n/a 
-3.2615 -3.859 -8.035001 -3.859 -6.845 -2.489 -1.4985 -3.9725 -1.934 -4.0305 -5.8015 
-7.286 -13.1568 -12.7516 -11.9668 -10.1834 -3.9675 -4.88 -6.144 -6.235 -10.4425 
-17.0896 -17.8734 -20.8594 -15.3052 -11.6619 -6.97 -6.7745 -10.8992 -13.3838 
-21.8062 -25.9812 -24.1978 -16.7837 -14.6644 -9.0295 -11.8925 -18.048 
-29.914 -29.3196 -25.6763 -19.7862 -16.7239 -14.3291 -19.0413 
-1.934 -11.776 -3.2615 -3.859 -8.035001 0 -3.859 -6.845 -4.3195 -1.4985 -3.9725 
-15.0342 -15.6518 -7.286 -13.1568 -8.035001 -3.859 -11.9668 -12.0139 -5.1515 -4.88 
-18.5922 -19.6588 -17.0896 -13.1568 -12.7516 -11.9668 -17.1357 -12.8459 -7.9445 
-22.5992 -29.4624 -17.0896 -17.8734 -20.8594 -17.1357 -17.9677 -15.6389 
-32.4028 -29.4624 -21.8062 -25.9812 -26.0283 -17.9677 -20.7607 
-1.934 -5.8015 -4.747 -12.16972 -4.3195 -3.4185 -3.2615 -3.859 -8.035001 
-8.309001 -11.194 -16.84132 -16.48922 -7.918 -7.146501 -7.286 -13.1568 
-11.9105 -22.98562 -21.58062 -20.08772 -10.76 -11.554 -17.0896 
-24.62562 -27.30512 -25.17912 -22.92972 -15.1675 -21.3576 
-28.94512 -30.90362 -28.02112 -27.33722 -24.9711 
-3.859 -5.847 -6.2405 -3.2615 -6.28 -5.8015 -3.859 -5.847 -6.2405 -3.9725 0 
-10.044 -9.229 -10.3165 -9.696501 -10.667 -10.1995 -10.044 -9.229 -9.7425 -3.9725 
-13.8662 -13.4322 -16.7825 -15.458 -15.5836 -16.7861 -13.8662 -12.8582 -9.7425 
-18.0694 -19.8982 -22.7852 -20.2658 -22.1702 -20.6083 -17.4954 -12.8582 
-24.5354 -25.9009 -27.3208 -26.8524 -25.9924 -24.2375 -17.4954 
