-4.759 
n/a 
n/a 
n/a 
n/a 
-4.759 
n/a 
n/a 
n/a 
n/a 
-4.759 
n/a 
n/a 
n/a 
n/a 
-4.759 
n/a 
n/a 
n/a 
n/a 
-3.485 -4.5065 0 -1.4985 -3.228 -3.957 -1.7565 -3.6075 -4.153 -2.4265 -4.5485 -3.2615 -1.4985 -4.712 -2.5195 -1.4985 -3.4225 -7.2335 
-9.004 -4.5065 -1.4985 -3.9575 -6.342 -4.676 -5.634 -7.321 -6.195001 -7 -6.9235 -4.032 -5.918 -6.1875 -3.1695 -3.9655 -7.572001 
-9.004 -6.5525 -3.9575 -6.402 -6.683 -8.837501 -9.5375 -8.947001 -9.458501 -9.5135 -7.3805 -7.989501 -8.236501 -6.741001 -5.643 -8.5365 
-11.673 -9.426001 -6.402 -6.734 -11.4793 -13.0464 -11.1935 -12.2251 -12.4248 -9.9575 -10.1945 -9.528501 -8.8245 -7.953001 -9.995 
-14.5465 -12.0279 -6.734 -11.6331 -15.6882 -14.7024 -14.4716 -15.1914 -12.8688 -12.7715 -12.3357 -9.843 -10.0891 -13.0996 
-4.5065 -2.7415 -1.8085 -4.2775 -3.59 -3.2615 -3.8255 -4.712 -2.5195 -3.4225 -4.0965 0 
-7.459001 -3.891 -4.8285 -7.607 -6.5515 -5.910501 -9.1435 -6.1875 -5.8945 -4.2 -4.0965 
-8.8155 -7.259 -7.7015 -10.348 -9.293 -9.920501 -9.933001 -9.2495 -6.604 -4.2 
-12.2427 -9.352 -10.4025 -13.0895 -13.46 -10.7375 -13.0078 -9.392 -6.604 
-14.3357 -12.2186 -13.144 -17.2565 -14.277 -13.8123 -13.1503 -9.392 
-1.4985 -3.8825 -4.5065 -2.7415 -4.5485 -3.2615 -1.4985 -4.712 -2.5195 -1.4985 -3.4225 -3.5435 -4.33 -1.4985 -3.498 -1.7565 -1.4985 -3.228 -4.153 0 
-4.569 -9.159 -7.459001 -5.5565 -6.9235 -4.032 -5.918 -6.1875 -3.1695 -3.9655 -8.1395 -7.574 -4.900001 -4.0295 -4.005 -2.4195 -3.9575 -6.1045 -4.153 
-10.341 -12.3785 -8.8975 -7.6455 -7.3805 -7.989501 -8.236501 -6.741001 -5.643 -9.0565 -12.6554 -8.0915 -5.89 -4.188 -4.3765 -5.160501 -6.1835 -6.1045 
-13.5605 -13.817 -11.2977 -8.015 -10.1945 -9.528501 -8.8245 -7.953001 -10.8884 -13.6256 -13.1729 -9.305501 -5.996 -4.4925 -6.6455 -6.548501 -6.1835 
-14.999 -16.2172 -11.6672 -10.942 -12.3357 -9.843 -10.0891 -13.993 -15.4575 -14.1431 -14.3869 -9.326501 -6.254001 -6.6645 -7.6825 -6.548501 
-1.934 -3.228 -4.153 0 -2.3615 -4.5065 -3.7555 -4.015 -2.5195 -3.4225 -4.0965 -1.756 -4.5485 
-5.4695 -6.1045 -4.153 -2.3615 -8.532001 -8.99 -8.8905 -6.272 -5.8945 -4.2 -5.706 -6.2885 
-8.62 -6.1045 -6.436501 -8.532001 -13.4325 -14.246 -10.1515 -10.0445 -6.604 -5.86 -10.0925 
-8.62 -8.012501 -12.8892 -13.4325 -18.6885 -15.507 -13.924 -10.5485 -8.4845 -10.6605 
-10.733 -14.581 -17.7897 -18.6885 -19.9495 -19.2795 -14.428 -12.429 -13.6888 
