-4.759 
n/a 
n/a 
n/a 
n/a 
-4.759 
n/a 
n/a 
n/a 
n/a 
-4.759 
n/a 
n/a 
n/a 
n/a 
-4.759 
n/a 
n/a 
n/a 
n/a 
-3.5155 -1.4985 -3.7575 -3.6845 -3.2015 -1.7695 -5.878 -1.756 -5.192 -9.841001 -3.8275 
-4.496 -4.9525 -7.998 -6.845 -4.977 -7.758501 -6.964 -6.48 -16.3366 -13.7575 
-8.113 -9.1245 -11.4357 -7.224 -11.375 -8.829 -12.3118 -18.0014 -20.2531 
-12.5348 -12.7798 -11.8147 -14.0434 -12.4455 -14.3052 -23.8332 -21.9179 
-16.1901 -13.1588 -18.6341 -15.1139 -17.9217 -25.8266 -27.7497 
-3.5155 -1.4985 -3.1385 -3.251 -4.168 -5.878 -1.756 -3.074 -4.077 -1.934 -9.841001 -4.5165 0 
-4.496 -4.2575 -5.812 -6.988501 -9.495001 -6.964 -4.566 -6.143001 -4.43 -12.7814 -14.4465 -4.5165 
-7.559 -6.9525 -9.134001 -12.6347 -10.769 -9.9835 -8.264501 -6.342 -16.034 -17.3869 -14.4465 
-10.8192 -10.3035 -15.2818 -13.9087 -13.7885 -13.682 -8.731501 -18.1402 -20.6395 -17.3869 
-14.1702 -16.7557 -16.5558 -16.9282 -17.487 -14.149 -20.5317 -22.7457 -20.6395 
-3.2495 -4.6525 -4.1965 -4.7995 -1.4985 -9.764501 0 
-5.752 -9.365 -8.9135 -5.6675 -10.821 -9.764501 
-10.5745 -14.3002 -10.151 -15.6034 -10.821 
-15.5097 -15.5377 -20.0869 -15.6034 
-16.7472 -25.4736 -20.0869 
-1.756 -5.037 -1.934 -4.2105 -4.5165 
-6.375 -5.1315 -6.373 -9.528501 
-6.432001 -10.3665 -12.6586 
-11.8304 -16.6521 
-18.116 
