-4.759 
n/a 
n/a 
n/a 
n/a 
-4.759 
n/a 
n/a 
n/a 
n/a 
-4.759 
n/a 
n/a 
n/a 
n/a 
-4.759 
n/a 
n/a 
n/a 
n/a 
-3.147 -3.4155 -4.2245 -8.445001 -2.229 -3.957 -3.4905 -5.2915 -2.186 -4.2995 
-6.898 -6.626 -13.5253 -10.958 -6.2235 -6.7165 -7.9095 -6.972 -5.4415 
-10.4563 -16.4522 -16.0383 -14.9525 -9.194 -11.6455 -9.575001 -9.992001 
-20.2825 -18.9652 -20.0328 -17.923 -14.4122 -13.311 -13.0174 
-22.7955 -22.9597 -23.0033 -23.1412 -16.0777 -16.7534 
-3.147 -4.4725 -1.8085 -4.799 -3.518 -5.2915 -1.7565 -3.4155 -4.2245 -7.5605 0 
-8.557 -6.137001 -6.396 -7.798 -10.195 -5.807 -5.0175 -6.626 -10.543 -7.5605 
-9.978001 -10.442 -9.4415 -14.713 -10.6295 -9.4235 -8.8395 -13.4699 -10.543 
-14.4752 -13.4875 -16.6889 -15.1475 -14.246 -13.4335 -16.0274 -13.4699 
-17.5207 -20.7349 -17.1234 -18.764 -18.256 -20.6214 -16.0274 
-3.147 -4.4725 -1.8085 -4.799 -3.518 -5.2915 -1.7565 -3.4155 -4.2245 -7.5605 
-8.557 -6.137001 -6.396 -7.798 -10.195 -5.807 -5.0175 -6.626 -10.543 
-9.978001 -10.442 -9.4415 -14.713 -10.6295 -9.4235 -8.8395 -13.4699 
-14.4752 -13.4875 -16.6889 -15.1475 -14.246 -13.4335 -16.0274 
-17.5207 -20.7349 -17.1234 -18.764 -18.256 -20.6214 
-3.147 -1.4985 -3.957 -3.4905 -5.2915 -1.7565 -8.445001 -2.7415 -4.0745 
-4.88 -5.4345 -6.7165 -7.9095 -5.807 -10.2485 -11.117 -6.1165 
-9.0245 -8.344 -11.6455 -8.192 -15.306 -12.9119 -14.492 
-11.9978 -13.3746 -11.928 -17.632 -17.9694 -16.2869 
-17.0284 -13.6571 -21.368 -20.2954 -21.3444 
