-4.759 
n/a 
n/a 
n/a 
n/a 
-4.759 
n/a 
n/a 
n/a 
n/a 
-4.759 
n/a 
n/a 
n/a 
n/a 
-4.759 
n/a 
n/a 
n/a 
n/a 
-1.4985 -4.7995 -3.115 -7.027 0 -8.7875 0 -7.400001 -1.756 -5.608 -2.3335 -4.79 -3.3255 -1.4985 -6.384501 -4.418 -3.4405 -2.6165 -4.081 -3.4915 -4.7905 -1.7565 -5.4175 0 
-6.0515 -7.781001 -10.259 -7.027 -8.7875 -8.7875 -7.400001 -8.910001 -7.319 -8.514 -6.4855 -6.283501 -3.8945 -7.231 -9.633501 -8.143001 -3.7415 -6.062 -7.052001 -7.472 -5.5195 -6.9795 -5.4175 
-9.146501 -10.6335 -10.259 -16.5371 -8.7875 -16.8363 -8.910001 -10.419 -9.964001 -12.8468 -7.215001 -6.6555 -9.4575 -10.341 -13.4777 -8.3955 -6.785501 -8.361 -11.7845 -8.1315 -9.1825 -6.9795 
-11.7456 -10.6335 -19.7691 -16.5371 -16.8363 -18.3463 -10.419 -13.064 -14.2968 -13.5763 -7.629001 -12.6555 -12.7403 -14.1852 -13.7302 -11.5657 -8.931001 -12.9583 -12.444 -12.0861 -9.1825 
-11.7456 -20.1436 -19.7691 -24.5859 -18.3463 -19.8553 -13.064 -17.3968 -15.0263 -13.9903 -13.7494 -15.9383 -16.5845 -14.4377 -16.9004 -13.7112 -13.6361 -13.6178 -16.3986 -12.0861 
-4.7995 -3.115 -7.027 0 -8.7875 0 -7.235 0 -5.608 -2.9705 -2.4945 -5.272 -1.934 -1.4985 -5.0465 -2.4945 -1.934 -1.4985 -3.8195 -1.7565 -3.3715 -5.3645 0 -1.4985 -4.7905 -1.7565 -5.4175 -2.4945 -4.8045 0 
-7.781001 -10.259 -7.027 -8.7875 -8.7875 -7.235 -7.235 -5.608 -8.757501 -4.302 -7.135 -6.5715 -2.6125 -5.9725 -7.67 -4.2645 -2.6125 -5.146501 -4.542 -4.845 -8.660501 -5.3645 -1.4985 -5.632501 -5.5195 -6.9795 -7.28 -6.5825 -4.8045 
-10.6335 -10.259 -16.5371 -8.7875 -16.6713 -7.235 -10.195 -8.757501 -10.1385 -9.110001 -8.160501 -7.0985 -7.3595 -8.3855 -9.382501 -4.935 -5.451 -5.399 -8.2065 -10.259 -8.660501 -6.8695 -5.632501 -6.022 -9.1825 -9.068501 -11.9084 -6.5825 
-10.6335 -19.7691 -16.5371 -16.6713 -16.6713 -10.195 -13.5611 -10.1385 -14.9465 -10.2235 -8.9305 -12.2915 -9.526001 -10.31 -9.797001 -7.3335 -5.5295 -9.8585 -14.0539 -10.259 -10.2755 -10.2645 -6.022 -9.506001 -11.2875 -13.7135 -11.9084 
-20.1436 -19.7691 -24.4209 -16.6713 -19.6313 -13.5611 -14.9421 -14.9465 -16.06 -10.9935 -14.2293 -14.458 -11.4755 -10.7245 -12.4653 -7.355 -10.3605 -15.7687 -14.0539 -11.874 -13.6705 -11.0108 -9.506001 -11.6688 -15.9325 -13.7135 
-12.16972 -4.7225 -2.186 -5.4825 -3.644 -1.934 -1.4985 -3.502 -3.892 -3.433 -1.4985 -4.7995 -7.027 0 -7.847001 0 -7.235 -1.756 -5.608 -2.4945 -4.79 -1.934 -4.246 -5.0335 -3.892 
-16.89222 -7.101001 -6.889501 -7.4675 -5.686501 -2.6125 -4.5955 -6.717 -7.113 -4.3795 -6.0515 -9.7995 -7.027 -7.847001 -7.847001 -7.235 -8.901 -7.319 -8.4375 -7.669001 -6.0635 -6.2625 -11.046 -8.1855 
-19.27072 -12.1839 -8.762501 -8.814 -6.394001 -5.258 -7.564 -10.259 -7.992001 -8.915 -10.304 -9.7995 -10.051 -7.847001 -15.7418 -8.901 -10.3285 -8.909 -13.7712 -9.453501 -9.732501 -13.4201 -14.198 
-24.35362 -14.0569 -9.771001 -9.488501 -8.718 -7.887001 -10.5745 -11.138 -12.5965 -13.3433 -10.304 -13.1961 -10.051 -15.7418 -17.4078 -10.3285 -11.9185 -14.2807 -15.5557 -13.3707 -17.0067 -16.5721 
-26.22662 -15.0654 -10.4455 -11.9189 -11.5248 -10.717 -11.4535 -15.7425 -17.0248 -13.3433 -13.95 -13.1961 -18.3296 -17.4078 -18.8353 -11.9185 -17.2902 -16.0652 -19.4729 -20.6449 -20.1587 
-5.608 -3.1495 -2.4945 -4.7995 -3.539 -3.7575 -4.088 -3.0415 -2.3615 -3.9075 -3.2345 -4.7225 -4.7905 -2.4945 -4.144 -3.518 
-9.380501 -4.459 -8.008501 -8.5445 -6.5305 -8.689501 -6.778501 -5.189 -6.7325 -7.909 -8.455501 -8.4385 -7.7015 -6.735 -6.396 
-9.990001 -9.691501 -12.1903 -12.1274 -12.0481 -11.5986 -8.7285 -9.995001 -10.19 -13.6356 -12.7687 -11.5653 -12.2112 -10.1035 
-15.2591 -13.9175 -15.7732 -17.645 -14.9572 -13.5486 -13.7273 -13.6407 -15.9166 -17.9488 -15.8955 -16.075 -15.5797 
-19.4851 -17.5004 -21.2908 -20.5541 -16.9072 -18.5474 -17.373 -19.3673 -20.2298 -21.0756 -20.4052 -19.4435 
