-4.759 
n/a 
n/a 
n/a 
n/a 
-4.759 
n/a 
n/a 
n/a 
n/a 
-4.759 
n/a 
n/a 
n/a 
n/a 
-4.759 
n/a 
n/a 
n/a 
n/a 
-3.851 -1.7695 -2.3615 -5.123 -4.3905 
-4.0015 -3.736 -8.1895 -10.7025 
-6.14 -9.89 -14.2418 
-12.3996 -15.9423 
-18.4519 
-3.851 -1.7695 -2.3615 -3.3715 -4.6395 -2.674 -3.1125 -4.3905 0 
-4.0015 -3.736 -6.2255 -7.6555 -6.923 -3.6315 -5.939 -4.3905 
-6.14 -7.7 -10.1145 -9.901001 -7.337 -6.461 -5.939 
-8.6905 -11.7156 -12.5952 -10.5365 -9.070001 -6.461 
-12.8075 -14.1963 -13.2307 -12.2695 -9.070001 
-2.3615 -4.3905 -1.4985 -3.931 
-6.9205 -5.618 -5.055 
-7.562 -8.5905 
-10.513 
n/a 
-3.0415 0 -2.4265 -4.3905 -1.4985 -3.931 0 
-3.0415 -2.4265 -7.068 -5.618 -5.055 -3.931 
-4.551 -7.068 -7.544 -8.5905 -5.055 
-9.432501 -7.544 -10.7595 -8.5905 
-9.772 -10.7595 -10.7595 
