-4.759 
n/a 
n/a 
n/a 
n/a 
-4.759 
n/a 
n/a 
n/a 
n/a 
-4.759 
n/a 
n/a 
n/a 
n/a 
-4.759 
n/a 
n/a 
n/a 
n/a 
-4.3345 -4.1145 -3.757 -4.1145 -2.9705 -4.0935 -1.4985 -4.031 -1.756 -4.7055 -5.4085 
-10.204 -8.040501 -9.6675 -7.2135 -5.492001 -4.916 -4.937 -5.759 -6.3085 -11.136 
-14.6602 -15.0648 -12.8889 -9.321501 -6.133501 -7.8545 -6.4845 -11.2631 -13.0654 
-21.6845 -18.2862 -14.9969 -10.311 -9.056001 -9.9505 -12.6852 -18.02 
-24.9059 -20.3942 -15.9864 -13.2335 -11.1176 -16.2776 -19.4421 
-4.42 -4.1145 -3.757 0 -2.9705 -5.066 -1.4985 -4.5585 -1.7565 -1.4985 -4.015 -4.1145 
-10.4035 -8.040501 -3.757 -2.9705 -6.9165 -5.978001 -5.7615 -5.0825 -2.4195 -5.216001 -8.248501 
-14.3295 -8.040501 -6.538 -6.9165 -7.818501 -10.0315 -5.9945 -5.548 -6.036 -9.6665 
-14.3295 -11.9353 -9.491501 -7.818501 -12.0392 -10.58 -6.577 -9.144501 -10.66 
-18.2243 -14.8888 -10.4435 -12.0392 -12.5877 -11.1625 -10.0155 -13.9205 
-1.4985 -4.1145 -4.3285 -2.3335 -1.4985 -4.433 -2.9705 -4.9185 -2.915 -2.356 -5.279 
-5.3525 -9.1355 -6.1405 -3.3515 -5.362 -7.484 -7.983001 -6.088 -5.3015 -7.651501 
-11.6115 -11.0843 -6.8365 -6.7685 -8.312 -12.8471 -8.948001 -8.763 -11.545 
-13.5603 -11.7803 -10.3963 -10.621 -13.7267 -13.8121 -11.9302 -15.2383 
-14.2563 -15.3401 -14.2488 -16.0357 -14.6917 -16.7943 -18.4055 
-5.675 -1.934 -1.4985 -3.383 -4.375 -3.681 -3.6765 0 
-8.1565 -2.6125 -4.554501 -7.985001 -8.505501 -8.8015 -3.6765 
-9.078 -5.789001 -9.684001 -10.4185 -14.021 -8.8015 
-12.3435 -11.2493 -12.1977 -16.3902 -14.021 
-17.8038 -13.763 -18.1694 -16.3902 
