-4.759 
n/a 
n/a 
n/a 
n/a 
-4.759 
n/a 
n/a 
n/a 
n/a 
-4.759 
n/a 
n/a 
n/a 
n/a 
-4.759 
n/a 
n/a 
n/a 
n/a 
-12.2035 -6.165 -4.129 -2.5195 -6.039001 -5.611 -1.756 -5.3915 -1.934 -1.4985 -3.75 -4.732 -6.5885 -5.447 -2.186 -1.4985 -4.1355 -1.7565 -3.8735 0 
-18.1998 -10.1115 -5.397 -7.932 -6.579501 -6.9595 -6.618001 -7.4265 -2.6125 -4.8715 -8.5205 -12.1941 -6.666501 -7.5455 -3.339 -5.2415 -6.009501 -5.112 -3.8735 
-22.1463 -10.3415 -11.6041 -9.031501 -8.331 -12.4633 -8.443501 -8.0235 -5.621 -9.153001 -16.3008 -12.2721 -8.364501 -8.527 -7.6425 -6.321001 -8.690001 -5.112 
-22.3763 -16.8914 -12.7036 -9.913501 -14.0906 -14.2888 -9.116501 -11.288 -9.7615 -16.9303 -16.3788 -13.9701 -9.550501 -13.2021 -8.369 -8.916 -8.690001 
-28.9262 -17.9909 -13.5856 -15.7275 -15.9161 -14.9618 -12.4284 -15.4285 -17.597 -17.0083 -18.0768 -15.1561 -14.3936 -13.9286 -11.2284 -8.916 
-6.111 -4.147 -3.787 -3.958 -2.5195 -6.039001 -5.611 -3.7875 -3.949 -4.732 -6.5885 -5.447 -1.934 -3.75 -2.186 -1.4985 -4.8015 -1.7565 -3.8735 0 
-8.312 -6.203 -8.22 -6.0155 -7.932 -6.579501 -9.4405 -8.189 -9.0745 -12.1941 -6.666501 -7.3845 -5.3465 -6.250501 -3.339 -5.5485 -5.884501 -5.112 -3.8735 
-9.0825 -8.845501 -9.108001 -11.9498 -9.031501 -11.086 -13.885 -13.7835 -16.6778 -12.2721 -8.554001 -10.5325 -8.994 -7.277501 -7.437 -6.235 -9.372001 -5.112 
-11.8304 -9.792001 -15.1167 -13.0493 -13.7678 -15.5305 -19.4795 -21.3868 -16.7558 -14.1596 -11.8974 -14.18 -10.287 -10.494 -7.943 -10.022 -9.372001 
-12.7769 -16.0127 -16.2162 -17.7856 -18.2123 -21.125 -27.0828 -21.4648 -18.6433 -17.503 -15.5449 -15.473 -13.8389 -11 -11.8706 -10.022 
-16.8895 -1.7565 -6.165 -2.5195 -6.039001 0 -5.611 -1.7695 -6.5885 -5.447 -1.934 -3.75 -2.186 -1.4985 -4.644 -4.4785 -1.7565 -3.8735 
-17.8463 -7.977001 -8.234501 -7.932 -6.039001 -5.611 -7.5865 -8.3695 -6.666501 -7.3845 -5.3465 -6.250501 -3.339 -5.9055 -7.4295 -5.3945 -5.112 
-21.8533 -9.920001 -13.9544 -7.932 -6.579501 -7.5865 -9.517 -8.481001 -8.554001 -10.5325 -8.994 -7.277501 -7.6905 -8.297 -8.2335 -9.479501 
-23.8567 -15.6303 -13.9544 -9.031501 -8.951 -9.517 -9.9735 -9.6295 -11.8974 -14.18 -10.287 -11.864 -10.4014 -8.4315 -12.9051 
-29.567 -15.6303 -15.0539 -10.287 -11.1441 -9.9735 -10.465 -13.2585 -15.5449 -15.473 -15.2089 -14.5749 -10.5359 -13.2539 
-4.98 0 -7.2235 0 -6.039001 -5.611 -3.584 -3.75 -7.75 -5.447 -4.1555 -3.498 -3.949 -6.165 -6.0205 -1.7565 -3.8735 0 
-4.98 -7.2235 -7.2235 -6.039001 -6.579501 -10.2385 -8.4065 -12.6874 -10.181 -9.9305 -8.681001 -7.3735 -11.0002 -12.9723 -8.002501 -5.112 -3.8735 
-10.575 -7.2235 -14.7223 -6.579501 -11.884 -15.061 -17.5661 -15.1184 -14.6645 -14.7564 -13.2255 -14.8971 -17.8075 -14.9543 -10.575 -5.112 
-10.575 -14.7223 -15.2628 -11.884 -16.7065 -24.2206 -19.9971 -19.6019 -19.4904 -19.3009 -20.7491 -21.7044 -19.7895 -17.5268 -10.575 
-18.0738 -15.2628 -20.5673 -16.7065 -25.8661 -26.6516 -24.4806 -24.4278 -24.0349 -26.8245 -27.5564 -23.6864 -22.362 -17.5268 
