-4.759 
n/a 
n/a 
n/a 
n/a 
-4.759 
n/a 
n/a 
n/a 
n/a 
-4.759 
n/a 
n/a 
n/a 
n/a 
-4.759 
n/a 
n/a 
n/a 
n/a 
-1.934 -3.5455 -3.676 -1.4985 -3.1385 -3.0695 -4.657 -1.934 -3.814 -3.3155 -7.58 -5.0925 -2.8645 -3.135 -4.9595 -4.613 0 
-4.8495 -4.521501 -5.338 -4.2575 -4.286 -5.7825 -5.156 -5.544 -6.982 -11.8633 -13.2529 -7.7685 -5.203 -8.394001 -8.254001 -4.613 
-5.2535 -6.202001 -7.861 -5.1225 -6.626 -6.165 -8.9775 -9.5275 -15.6994 -17.5362 -15.9289 -9.894501 -10.5225 -11.9343 -8.254001 
-6.5705 -9.224501 -8.953 -7.231501 -6.8715 -9.961 -13.6674 -18.3397 -21.3723 -20.2122 -18.0549 -15.251 -14.0628 -11.9343 
-9.7755 -10.2755 -11.1298 -7.773001 -10.6735 -14.8769 -22.4796 -24.0126 -24.0483 -22.3382 -23.4114 -18.7913 -14.0628 
-3.502 -3.676 -2.229 -7.58 -5.0925 -4.9225 -3.718 0 
-4.945 -4.593 -9.6845 -13.2529 -8.184 -9.2445 -3.718 
-7.045 -13.4229 -15.8756 -16.3444 -13.2338 -9.2445 
-16.5085 -19.614 -18.9671 -21.3942 -13.2338 
-22.6996 -22.7055 -24.0169 -21.3942 
-14.4975 -1.4985 -5.022 -3.7075 -1.7565 -4.5735 -5.0925 -3.1385 -1.7565 -3.502 -3.676 
-16.347 -5.946 -7.111 -4.51 -5.6355 -6.999001 -8.047001 -4.861 -4.9855 -4.945 
-16.0135 -7.8435 -8.4875 -9.7335 -7.5855 -9.420501 -8.9305 -7.0245 -6.2905 
-17.148 -9.038501 -14.054 -11.6835 -11.032 -10.2765 -11.8446 -8.018001 
-18.343 -14.744 -16.004 -15.13 -11.888 -13.6614 -12.8381 
-14.4975 -5.022 -3.991 -2.0935 -6.8885 -1.934 -3.502 -3.676 
-19.7238 -6.251 -4.9945 -8.4975 -8.036 -4.8155 -4.945 
-17.4198 -6.9315 -12.2327 -9.493501 -10.0475 -6.049 
-18.1417 -15.1653 -13.2287 -11.5342 -11.6182 
-26.3755 -16.1613 -15.2694 -13.1049 
