-4.759 
n/a 
n/a 
n/a 
n/a 
-4.759 
n/a 
n/a 
n/a 
n/a 
-4.759 
n/a 
n/a 
n/a 
n/a 
-4.759 
n/a 
n/a 
n/a 
n/a 
-7.641 -4.101 -3.873 -6.3045 -2.3345 -6.3045 -12.16972 
-12.304 -8.887001 -11.2479 -9.0525 -8.4495 -19.08262 
-17.09 -16.4921 -13.9959 -15.3165 -21.73302 
-24.6951 -19.2401 -20.2599 -28.60002 
-27.4431 -25.5041 -33.54342 
-7.641 -2.229 -4.4315 -5.2195 -2.742 -4.7755 -2.985 -4.3705 -5.398 -1.756 -4.1675 -2.645 -4.1495 0 
-9.778 -6.2995 -7.733001 -7.891 -6.387 -6.706501 -6.325 -8.1045 -6.1765 -5.766 -6.234 -6.1495 -4.1495 
-14.1919 -9.9615 -10.2485 -11.9644 -8.343 -10.8855 -10.316 -8.8405 -11.0195 -7.8485 -8.494 -6.1495 
-17.8539 -12.477 -14.3313 -13.9204 -12.6684 -14.8765 -11.052 -13.8797 -13.102 -9.8935 -8.494 
-20.3694 -16.5598 -16.2873 -18.2458 -16.6594 -15.6125 -16.0912 -15.9622 -15.147 -9.8935 
-1.4985 -4.4315 -4.501 -1.7565 -5.7105 -5.9185 -4.1985 -3.9135 -4.1715 -4.1955 -4.9575 -4.16 
-5.1515 -7.709001 -4.963 -7.305 -6.078 -10.7495 -8.602501 -5.828 -6.750501 -8.1955 -7.199501 
-8.099001 -8.515501 -12.3987 -7.6915 -10.7575 -15.1535 -9.7215 -8.047501 -10.674 -9.816 
-8.717001 -16.1454 -12.7852 -12.8256 -15.1615 -16.2725 -11.986 -12.165 -12.2945 
-16.7273 -16.5319 -17.9193 -17.2296 -16.2805 -18.537 -16.1035 -13.7855 
-5.7105 -5.9185 -2.229 -4.4315 -4.8345 -3.074 -5.0235 -3.9675 -1.756 -6.289001 
-6.078 -8.189501 -6.2995 -6.741501 -8.488001 -6.859 -8.733001 -4.9775 -7.2465 
-8.4135 -12.4856 -9.113501 -9.799001 -12.4568 -10.6793 -9.201 -10.304 
-12.7962 -15.2996 -12.3296 -13.806 -16.2771 -11.1473 -15.0385 
-15.6102 -18.5157 -16.3366 -17.6263 -16.7451 -16.9848 
