-4.759 
n/a 
n/a 
n/a 
n/a 
-4.759 
n/a 
n/a 
n/a 
n/a 
-4.759 
n/a 
n/a 
n/a 
n/a 
-4.759 
n/a 
n/a 
n/a 
n/a 
-6.3665 -4.2905 -8.200001 -4.23 -1.7565 -3.757 -1.7565 -3.8225 -9.819 0 
-7.368501 -13.6361 -12.8464 -5.617 -5.584 -4.5665 -5.8615 -14.6891 -9.819 
-16.4457 -18.2825 -14.2334 -10.4137 -6.9095 -9.263 -17.2399 -14.6891 
-21.5705 -19.6695 -19.0301 -11.7392 -12.0962 -20.6998 -17.2399 
-22.9575 -24.4662 -20.3556 -16.9259 -23.533 -20.6998 
-4.502 -3.325 -1.4985 -4.132 -1.7565 -10.657 -1.756 -6.8175 -3.8275 -3.325 -1.4985 -4.132 -1.7565 -3.757 -3.8225 -4.5325 -2.742 -4.503 -3.277 -2.5045 -1.8085 -4.518 -3.519 0 
-7.029 -3.898 -5.351501 -5.653 -9.733001 -8.690001 -8.573 -8.927 -7.201 -3.898 -5.351501 -5.653 -5.584 -6.1355 -5.4575 -6.8625 -6.145 -7.519 -4.9585 -3.3625 -6.277 -6.934 -3.519 
-7.878001 -6.183 -5.876 -12.2145 -10.007 -15.5054 -10.3965 -12.5927 -7.6585 -6.183 -5.876 -7.621 -7.739 -6.233 -7.759501 -10.7901 -8.993 -8.145 -5.8995 -7.5565 -8.495001 -6.934 
-10.6335 -6.194 -14.0322 -14.8412 -19.2046 -17.5016 -14.2994 -13.0502 -9.114 -6.194 -7.7295 -10.028 -7.752 -8.1975 -11.9985 -13.6381 -9.68 -8.911 -10.4345 -9.972501 -8.495001 
-10.681 -13.9979 -14.4174 -22.9496 -20.8659 -21.7613 -14.7569 -14.5057 -9.117001 -7.8345 -10.122 -10.195 -10.4585 -12.7871 -14.8465 -14.3251 -10.256 -13.6218 -12.7791 -9.972501 
-1.4985 -3.9685 -4.7815 -2.3335 -2.4265 -3.1425 -2.674 -3.6005 -3.6245 -3.4915 -5.1105 -1.7695 -4.241 -3.7015 -1.4985 -3.6205 -8.613001 -4.7855 0 -4.9185 -4.617 -1.4985 -4.525 -2.229 -6.5955 
-4.987 -9.0385 -5.3995 -3.913 -4.211 -4.2225 -6.226501 -7.648 -4.5955 -8.512 -7.175 -4.518 -5.628 -4.3435 -4.05 -9.909 -11.94 -4.7855 -4.9185 -6.335001 -5.18 -5.528501 -6.776 -8.4385 
-9.1145 -9.4315 -6.850501 -5.238 -5.3215 -6.598001 -8.966001 -8.0205 -9.423 -10.1765 -8.318501 -5.921 -6.6315 -7.1385 -10.294 -13.6845 -10.1725 -9.168 -6.335001 -6.651501 -9.828501 -7.3275 -10.674 
-9.495 -10.9493 -7.68 -6.498 -7.7115 -9.065001 -9.0675 -13.1708 -11.2021 -11.32 -9.387501 -6.8065 -8.585001 -12.6885 -13.8951 -13.7601 -14.561 -10.348 -6.651501 -11.4954 -10.4545 -11.5619 
-11.0262 -11.7788 -8.939501 -8.927501 -9.799001 -9.174001 -14.3794 -14.9499 -12.3456 -12.389 -10.317 -8.947001 -15.1696 -16.7344 -13.9373 -18.1486 -15.741 -10.685 -11.4954 -12.1214 -14.6889 
-3.5155 -1.4985 -4.401 -1.7565 -10.657 -1.756 -1.4985 -5.189 -3.8275 -4.005 -3.325 -1.4985 -4.886 -1.7565 -3.8225 -4.5325 -4.523 -1.7695 -4.3455 -2.4265 -2.5045 -4.0385 -3.519 -3.59 0 
-4.496 -5.646501 -5.5075 -9.733001 -8.690001 -3.0405 -7.907001 -8.4935 -8.038 -6.353 -3.898 -5.750501 -5.495 -5.8615 -5.4575 -8.300501 -5.5405 -4.706 -6.353 -4.6185 -6.807 -6.646 -8.263 -3.59 
-8.7695 -5.8205 -12.3495 -10.007 -8.614 -9.5885 -9.259001 -13.2426 -10.4675 -6.8225 -5.914 -5.839 -9.532001 -6.7305 -8.7215 -9.521501 -7.8555 -6.6475 -7.8495 -8.974001 -9.424001 -9.371 -8.263 
-9.318 -14.3229 -15.1934 -11.9305 -15.6504 -11.1485 -14.4085 -15.6721 -10.937 -8.815001 -5.945 -9.628 -10.401 -10.7585 -10.0255 -11.8477 -10.089 -8.109 -12.616 -11.6498 -12.2058 -9.371 
-18.0984 -14.9225 -15.9974 -19.1664 -17.7189 -16.298 -16.838 -16.1416 -12.9295 -8.837 -9.638 -10.497 -14.429 -12.0625 -12.3517 -14.0812 -11.5505 -12.9919 -15.2918 -14.4316 -12.2058 
