-4.759 
n/a 
n/a 
n/a 
n/a 
-4.759 
n/a 
n/a 
n/a 
n/a 
-4.759 
n/a 
n/a 
n/a 
n/a 
-4.759 
n/a 
n/a 
n/a 
n/a 
-3.147 0 -3.9075 -6.911 -3.768 -2.674 -3.1125 -3.4905 -2.5045 -2.871 -1.7565 -1.4985 -4.7995 -1.7565 -1.4985 -4.7045 0 
-3.147 -3.9075 -7.985001 -11.4556 -4.7755 -3.6315 -4.9055 -5.912001 -4.7085 -3.5385 -2.4195 -6.0515 -6.253 -2.4195 -6.462 -4.7045 
-8.236 -7.985001 -12.9084 -12.4631 -5.424 -5.6705 -6.9115 -8.3435 -4.9525 -3.7675 -6.8455 -6.887501 -6.974501 -7.230501 -6.462 
-12.6221 -12.9084 -13.9159 -13.1116 -7.7235 -7.3545 -9.243501 -8.4995 -5.1005 -8.383 -8.014 -7.73 -12.6383 -7.230501 
-17.5455 -13.9159 -14.5644 -15.4111 -10.064 -10.467 -9.277 -8.6625 -10.1105 -9.1745 -8.7025 -13.6696 -12.6383 
-3.147 -6.911 -3.9075 -2.186 -3.264 -1.7695 -2.489 -4.7045 -2.229 -3.9075 -4.0395 -2.5045 -2.4265 -2.186 -4.0925 0 
-10.533 -7.8485 -5.9785 -5.316 -4.908 -3.1405 -7.432 -6.059 -6.3555 -8.659 -6.103001 -4.228 -3.292 -5.4975 -4.0925 
-11.4705 -9.58 -8.796 -5.572 -5.5165 -8.4025 -9.0305 -9.297501 -11.7192 -10.8197 -7.611501 -4.900001 -6.542 -5.4975 
-13.202 -12.5089 -8.808001 -5.9005 -10.2805 -9.6525 -12.4362 -14.8964 -13.8799 -12.3282 -8.150001 -7.725 -6.542 
-16.1309 -12.5209 -8.960501 -10.564 -11.5305 -13.0868 -18.0351 -17.0571 -15.3884 -12.8667 -11.2334 -7.725 
-3.147 0 -3.9075 -6.911 -3.1425 -2.674 -3.1125 -3.4905 -1.934 -1.4985 -4.858 -4.2425 -2.4265 -2.5045 -1.8085 -3.9075 -1.7565 -4.7045 0 
-3.147 -3.9075 -7.985001 -10.2435 -4.2225 -3.6315 -4.9055 -5.506001 -2.6125 -6.9075 -8.9995 -5.976 -4.6185 -3.3625 -5.714 -5.9855 -5.546 -4.7045 
-8.236 -7.985001 -11.6963 -11.4769 -4.8755 -5.6705 -6.923 -6.1415 -7.6105 -11.608 -11.2226 -8.862 -5.1695 -6.9915 -6.765 -8.585501 -5.546 
-12.6221 -11.6963 -12.9297 -12.1299 -8.119 -7.2885 -7.402501 -11.5963 -12.7826 -13.8311 -14.1086 -9.5065 -9.276501 -7.130001 -9.755 -8.585501 
-16.3334 -12.9297 -13.5827 -15.3734 -9.453001 -7.727 -13.0063 -16.7684 -15.0057 -16.7171 -14.7531 -13.6447 -9.830001 -11.6306 -9.755 
-3.147 -2.925 -2.882 -3.9285 -6.911 -3.9075 -2.5045 -1.8085 -3.355 -1.7565 -2.543 -4.7995 -1.7695 -4.7045 0 
-5.7825 -4.7805 -8.109501 -11.7141 -7.8485 -6.4995 -3.3625 -4.6195 -3.725 -4.693 -7.9715 -6.752501 -5.698 -4.7045 
-7.8525 -10.281 -15.9025 -12.6516 -9.998 -7.278 -5.6285 -4.725 -7.73 -9.7795 -10.4765 -11.1936 -5.698 
-13.6624 -18.074 -16.84 -14.8011 -10.738 -9.3955 -5.6725 -8.865001 -13.2229 -12.3701 -14.9176 -11.1936 
-21.4554 -19.0115 -18.9895 -15.5411 -12.8555 -9.403001 -9.824 -14.5453 -15.8135 -16.8112 -14.9176 
