-4.759 
n/a 
n/a 
n/a 
n/a 
-4.759 
n/a 
n/a 
n/a 
n/a 
-4.759 
n/a 
n/a 
n/a 
n/a 
-4.759 
n/a 
n/a 
n/a 
n/a 

n/a 
n/a 
n/a 
n/a 
-2.9805 -6.3705 -1.7695 -3.9475 -2.264 -4.802 -3.508 -4.652 
-7.633501 -6.454 -5.9525 -6.658 -6.2945 -6.712 -7.320001 
-7.718 -8.0105 -8.368501 -11.287 -10.8825 -11.1385 
-9.0985 -8.984 -13.4189 -13.587 -12.6027 
-10.068 -14.3672 -15.6889 -17.2876 
-2.9805 -4.424 -9.026001 -3.508 -4.652 -3.851 -1.7695 -3.9475 
-5.500501 -14.9924 -12.5615 -7.320001 -8.7985 -4.0015 -5.9525 
-16.3481 -18.2015 -16.1181 -11.7733 -8.864 -7.314 
-19.5572 -21.7655 -20.6514 -11.8388 -12.2745 
-23.1212 -26.2988 -20.7169 -15.2493 
-4.424 -1.934 -4.802 -4.652 -3.508 -3.851 -1.7695 -3.9475 
-5.195 -6.08 -8.160501 -8.064001 -7.801001 -4.0015 -5.9525 
-10.04 -11.243 -11.788 -12.93 -7.9675 -7.314 
-16.1898 -15.331 -16.8612 -13.0965 -11.5528 
-19.535 -20.197 -17.0277 -16.6818 
