-4.759 
n/a 
n/a 
n/a 
n/a 
-4.759 
n/a 
n/a 
n/a 
n/a 
-4.759 
n/a 
n/a 
n/a 
n/a 
-4.759 
n/a 
n/a 
n/a 
n/a 
-3.7855 0 -3.772 -1.7565 -3.1335 -2.915 
-3.7855 -3.772 -5.153 -4.0965 -5.8655 
-8.6665 -5.153 -8.647 -7.3125 
-10.4425 -8.647 -12.2742 
-13.9365 -12.2742 
-3.845 0 -3.1335 -2.915 -3.433 
-3.845 -3.1335 -5.8655 -4.682 
-6.255 -5.8655 -7.526 
-11.3 -7.526 
-12.9605 
-4.4675 0 -3.1335 -2.915 -3.772 
-4.4675 -3.1335 -5.8655 -6.7935 
-7.9715 -5.8655 -10.733 
-11.2171 -10.733 
-16.0846 
-3.717 0 -3.8015 -3.1335 -3.772 
-3.717 -3.8015 -6.9575 -6.351 
-6.8135 -6.9575 -10.793 
-11.2991 -10.793 
-15.1346 
