-4.759 
n/a 
n/a 
n/a 
n/a 
-4.759 
n/a 
n/a 
n/a 
n/a 
-4.759 
n/a 
n/a 
n/a 
n/a 
-4.759 
n/a 
n/a 
n/a 
n/a 
-1.4985 -4.2485 -3.9875 -1.4985 -3.995 -2.186 -3.8755 -2.3345 -4.0225 -3.894 -1.7565 -5.2365 0 -2.7455 -2.9965 0 0 -1.756 -4.3415 -4.6925 0 -2.7455 -3.769 0 0 
-5.307 -7.193001 -4.653 -4.712 -5.7465 -5.2415 -4.4955 -6.5885 -6.0635 -6.471001 -6.6165 -5.2365 -2.7455 -5.403501 -2.9965 0 -1.756 -5.852 -9.007 -4.6925 -2.7455 -5.944 -3.769 0 
-7.4115 -7.418001 -7.506001 -6.1195 -8.967501 -5.98 -9.910501 -7.8935 -7.141 -11.8124 -6.6165 -8.256001 -5.403501 -5.403501 -2.9965 -1.756 -5.852 -10.9847 -9.007 -8.497 -5.944 -5.944 -3.769 
-7.624001 -10.146 -9.203 -9.4385 -9.726001 -12.3262 -10.7635 -10.367 -12.6512 -11.8124 -9.76 -11.5546 -5.403501 -5.403501 -5.393001 -5.852 -10.9847 -10.9847 -13.1699 -12.0835 -5.944 -5.944 
-10.41 -11.843 -12.6136 -10.239 -16.2766 -13.1792 -13.237 -15.8772 -12.6512 -14.9559 -13.3566 -11.5546 -5.403501 -7.533501 -9.793501 -10.9847 -10.9847 -15.1476 -16.7564 -12.0835 -5.944 
-1.934 -3.995 -1.4985 -4.622 -4.2485 -2.186 -4.5485 -3.433 -1.7565 -4.4155 0 -4.1595 -1.7565 -1.4985 -4.2485 -2.9965 0 -1.756 -2.3345 -1.4985 -5.1495 -1.7565 -5.2955 -3.1435 -3.8755 0 
-6.139 -5.7605 -5.221 -8.333 -5.843 -5.5785 -7.6215 -4.1845 -6.592501 -4.4155 -4.1595 -4.432 -2.4195 -5.307 -6.529 -2.9965 -1.756 -4.614 -3.233 -6.190001 -6.638 -6.2815 -9.038501 -8.0795 -3.8755 
-8.413501 -9.0835 -8.678 -9.606501 -9.846001 -8.708 -8.106 -9.533 -6.592501 -9.923 -4.432 -4.6925 -6.574 -9.097501 -6.529 -5.393001 -4.614 -5.34 -7.7365 -7.071 -9.212001 -9.975 -14.0551 -8.0795 
-12.0525 -12.7955 -9.765501 -13.7101 -13.0153 -9.2445 -13.5015 -9.533 -12.6072 -10.692 -4.6925 -9.920001 -10.4035 -9.097501 -9.834001 -8.141001 -5.34 -10.2865 -8.127 -9.740001 -13.1961 -15.056 -14.0551 
-15.7645 -13.883 -13.9137 -16.8794 -13.5518 -14.6664 -13.5015 -15.6873 -13.3762 -10.9525 -9.920001 -13.9349 -10.4035 -12.5243 -12.582 -8.89 -10.2865 -10.712 -10.1715 -13.9721 -18.2771 -15.056 
-4.3055 -5.744 -4.3215 -2.3335 -2.6165 -2.645 -3.1575 -3.454 -3.748 -3.277 -3.423 -2.674 -4.349 -3.5065 -1.4985 -3.995 -6.3955 -3.433 -1.7565 -5.744 -2.229 -5.097 -5.413 -1.756 -3.299 -4.475 -2.5045 -2.664 -4.0735 -1.934 -3.5855 0 -7.9075 -6.169 -3.152 -4.625 -5.6985 -2.3345 -2.3615 -3.777 -1.8085 -3.469 -5.1005 -4.3895 
-7.287 -10.674 -5.1075 -5.2615 -5.3005 -3.72 -5.563001 -5.8255 -5.8405 -6.877501 -4.6435 -5.693 -6.3225 -4.358 -4.712 -9.978001 -9.625 -4.1845 -7.716501 -7.5115 -6.926 -8.646501 -6.6685 -4.873 -7.356501 -6.5965 -4.074 -6.0395 -5.631001 -5.251 -3.5855 -7.9075 -9.3655 -8.362 -6.8865 -8.648001 -6.551 -4.499 -5.6625 -6.0375 -4.362 -8.378 -8.648001 
-12.8736 -11.46 -8.702001 -7.31 -5.4465 -5.6775 -6.960001 -7.871 -8.795 -8.068001 -7.6305 -6.608 -6.708 -7.734 -10.1225 -13.2075 -10.145 -10.564 -8.859501 -12.6333 -10.115 -9.3205 -8.986 -8.697001 -8.8865 -7.7755 -7.0635 -7.311 -9.123 -5.251 -11.1165 -9.3655 -11.6571 -12.2813 -10.1265 -9.386001 -7.921 -8.1905 -8.208 -8.917001 -8.922501 -10.647 
-13.6596 -15.0545 -11.4085 -7.371 -7.6915 -6.981501 -9.057501 -11.0075 -9.568501 -9.852 -9.9425 -6.9675 -9.519 -13.8667 -13.352 -13.7275 -16.5459 -11.707 -14.0629 -15.8223 -10.764 -11.7392 -10.647 -9.762 -9.998001 -9.995001 -7.900001 -10.3745 -9.123 -13.4318 -12.5745 -11.6571 -15.5764 -15.5213 -10.6665 -10.5875 -11.9249 -10.334 -11.1991 -13.4655 -10.66 
-17.2541 -17.761 -11.4695 -9.685 -9.1885 -9.1315 -12.3834 -11.781 -11.4441 -10.5565 -10.5075 -9.578 -16.1423 -17.0962 -13.872 -20.1284 -17.6889 -16.9104 -17.2519 -16.4713 -13.1827 -13.4002 -11.712 -11.0855 -12.2589 -10.7225 -11.1865 -10.3745 -17.4064 -14.8898 -14.8661 -15.5764 -18.8164 -16.0613 -11.868 -14.5914 -14.0684 -13.3251 -15.7476 -15.203 
-3.995 -2.229 -4.101 -4.237 -2.186 -3.851 -1.7695 -5.186 -4.237 -3.433 -1.7565 -4.3305 -2.229 -4.39 0 -2.9965 0 0 -1.756 -6.043 -5.2635 0 -3.769 0 0 0 
-5.324 -5.734 -7.2375 -6.133 -5.0955 -4.0015 -7.2885 -7.486501 -7.619 -4.1845 -6.461501 -6.0085 -7.02 -4.39 -2.9965 -2.9965 0 -1.756 -7.2675 -7.853 -5.2635 -3.769 -3.769 0 0 
-8.156501 -8.393001 -9.1155 -9.235001 -5.314 -7.926 -9.6485 -11.6063 -8.2675 -9.803 -8.5305 -11.7311 -7.02 -8.427501 -2.9965 -2.9965 -1.756 -7.2675 -9.3555 -7.853 -9.5495 -3.769 -3.769 0 
-8.6595 -9.840501 -12.3545 -9.3135 -9.2545 -9.945001 -13.8501 -12.2548 -14.1034 -11.9964 -14.3981 -11.7311 -11.4263 -8.427501 -2.9965 -5.393001 -7.2675 -9.3555 -9.3555 -12.6 -9.5495 -3.769 -3.769 
-9.894001 -13.0795 -12.433 -13.3556 -11.2587 -14.1868 -14.4986 -18.0907 -16.2968 -17.864 -14.3981 -16.1374 -11.4263 -8.427501 -5.393001 -11.5091 -9.3555 -9.3555 -14.1959 -12.6 -9.5495 -3.769 
