-4.759 
n/a 
n/a 
n/a 
n/a 
-4.759 
n/a 
n/a 
n/a 
n/a 
-4.759 
n/a 
n/a 
n/a 
n/a 
-4.759 
n/a 
n/a 
n/a 
n/a 
-1.4985 -12.16972 -3.6825 -2.186 -3.486 -3.115 -2.3335 -1.4985 -4.121 -3.6825 0 
-14.76202 -15.85222 -5.5565 -6.475 -7.0495 -4.7415 -3.3515 -5.189 -8.724001 -3.6825 
-18.44452 -17.72622 -10.382 -8.625 -8.844 -6.3625 -6.8675 -9.324501 -8.724001 
-20.31852 -22.55172 -12.4966 -10.259 -10.822 -9.6575 -11.3278 -9.324501 
-25.14402 -24.66632 -14.1306 -12.237 -14.117 -14.184 -11.3278 
-3.4765 -3.929 -2.9805 -3.251 -3.9535 -1.8085 -4.2775 -3.6825 0 -3.091 -3.6825 -2.229 -4.002 -3.152 -4.4715 -3.402 -2.264 -1.4985 -4.102 -3.6825 -6.9985 -3.6825 0 
-4.589 -5.378 -4.429 -6.0795 -5.581 -4.8285 -8.136001 -3.6825 -3.091 -6.0125 -5.3925 -5.875 -6.633501 -6.2925 -7.102 -3.793 -2.9195 -5.0765 -8.336 -11.778 -9.712 -3.6825 
-5.891 -6.5335 -7.24 -7.363 -8.5115 -8.2965 -8.136001 -7.349 -6.0125 -6.7565 -7.887 -7.9125 -9.636001 -8.528501 -7.179 -4.34 -6.837 -9.0555 -16.6601 -14.4915 -9.712 
-7.042 -9.5295 -8.5035 -10.2485 -12.3109 -8.2965 -12.1629 -9.2705 -6.7565 -8.826501 -9.892 -11.0624 -11.966 -8.596001 -7.838 -8.0115 -11.1412 -17.553 -19.3736 -14.4915 
-9.9315 -10.897 -11.4644 -14.0479 -12.3109 -12.489 -14.0844 -10.554 -8.826501 -10.564 -13.0419 -13.3924 -12.0335 -9.340501 -11.6181 -12.7079 -19.6387 -20.2665 -19.3736 
-3.9535 -4.2775 -3.6825 0 -2.872 -1.4985 -4.385 -3.152 -4.5905 -1.7695 -1.4985 -4.121 -3.6825 -6.824 -3.6825 
-9.193001 -8.136001 -3.6825 -2.872 -4.035 -5.214 -6.9425 -7.865001 -5.6085 -2.7955 -5.189 -8.724001 -10.8625 -11.3035 
-13.0733 -8.136001 -6.2295 -4.035 -7.538501 -7.943501 -12.2373 -8.2665 -5.867001 -6.499001 -9.324501 -16.0504 -15.342 
-13.0733 -10.1115 -7.373 -7.538501 -9.656 -13.4093 -12.6388 -8.4895 -9.958501 -10.4675 -16.7313 -20.5299 
-15.0488 -11.3664 -10.7495 -9.656 -15.233 -13.8108 -12.8618 -12.7306 -14.0896 -17.8743 -21.2108 
-3.4765 -3.034 -3.9535 -1.8085 -4.2775 -3.6825 -3.091 -4.085 -4.385 -3.152 -1.4985 -6.336 -2.356 -1.4985 -4.121 -7.539001 -3.6825 
-5.035501 -6.9215 -5.581 -4.8285 -8.136001 -7.349 -7.999001 -9.1625 -6.9425 -4.764 -8.4505 -8.607 -3.1615 -5.189 -12.7372 -10.404 
-9.083501 -8.925 -8.5115 -8.2965 -12.1629 -9.7955 -13.2499 -11.888 -8.621 -12.1428 -10.6767 -9.326 -6.8545 -14.3858 -15.6022 
-11.4804 -12.2941 -12.3109 -12.489 -14.6094 -16.6392 -15.9754 -13.5665 -16.192 -14.369 -11.3957 -13.233 -16.2389 -17.2508 
-14.8495 -16.0935 -16.5034 -14.9355 -21.4531 -19.3647 -17.6539 -21.1375 -18.4182 -15.088 -15.3027 -22.6174 -19.1039 
