-4.759 
n/a 
n/a 
n/a 
n/a 
-4.759 
n/a 
n/a 
n/a 
n/a 
-4.759 
n/a 
n/a 
n/a 
n/a 
-4.759 
n/a 
n/a 
n/a 
n/a 
-3.4155 -4.559 -5.5855 -1.4985 -3.188 -2.229 -3.2825 -3.2495 -4.641 0 
-5.0845 -9.502501 -6.3305 -3.619 -4.279 -4.672 -6.93 -7.061 -4.641 
-9.928 -10.405 -8.597 -4.3695 -5.635 -8.192 -11.2295 -7.061 
-10.8391 -12.6715 -8.6495 -5.772 -9.398001 -12.8385 -11.2295 
-13.1056 -12.724 -10.322 -9.624001 -14.2673 -12.8385 
-10.6255 -9.952001 -2.674 -3.2495 -4.834 -3.2825 -3.35 
-20.5775 -12.7164 -5.2115 -5.951 -6.4275 -7.460001 
-23.3419 -15.2539 -9.2025 -10.0375 -10.733 
-25.8794 -19.2449 -13.5346 -14.343 
-29.8704 -23.577 -17.8401 
-9.2135 -4.7755 -3.251 -3.2495 -3.188 -3.383 -4.4695 -1.756 -3.6975 -4.641 0 
-14.615 -8.689 -5.5775 -6.4605 -7.2295 -6.6995 -6.175 -5.734 -8.49 -4.641 
-18.5285 -11.0199 -9.0755 -11.7186 -10.435 -7.8595 -7.7825 -9.975 -8.49 
-20.8594 -14.5179 -14.6234 -14.9241 -11.595 -9.084001 -12.3407 -9.975 
-24.3574 -20.0658 -17.8289 -16.0841 -12.8195 -13.7388 -12.3407 
-3.4225 -4.0965 -2.5045 -3.188 -4.6365 -3.2495 -3.35 
-4.2 -6.3005 -6.2815 -8.454 -8.150001 -7.1435 
-6.366 -10.6215 -12.4527 -12.2003 -12.5044 
-10.7495 -16.7927 -16.199 -16.5547 
-16.9207 -20.539 -20.5534 
