-4.759 
n/a 
n/a 
n/a 
n/a 
-4.759 
n/a 
n/a 
n/a 
n/a 
-4.759 
n/a 
n/a 
n/a 
n/a 
-4.759 
n/a 
n/a 
n/a 
n/a 
-5.565 -2.645 -3.9755 0 
-8.755 -6.614501 -3.9755 
-12.8613 -6.614501 
-12.8613 
n/a 
-3.0365 -2.4945 -3.849 -3.9755 -1.934 -1.4985 -5.565 
-3.688 -5.189 -6.0895 -5.829 -2.6125 -7.404 
-5.231 -6.613 -8.863001 -6.409 -8.783001 
-6.617001 -9.732 -9.4405 -12.9167 
-9.743001 -10.289 -16.1026 
-5.565 -2.4945 -1.7565 -3.6065 -3.9755 
-8.8785 -5.101 -4.8305 -5.153 
-11.5672 -7.150001 -6.1105 
-13.6162 -8.033 
-14.4992 
-5.565 -2.186 -1.7565 -3.6065 -3.9755 
-7.856 -4.858 -4.8305 -5.153 
-10.8322 -8.154501 -6.1105 
-14.1287 -9.409 
-15.3832 
