-4.759 
n/a 
n/a 
n/a 
n/a 
-4.759 
n/a 
n/a 
n/a 
n/a 
-4.759 
n/a 
n/a 
n/a 
n/a 
-4.759 
n/a 
n/a 
n/a 
n/a 
-3.4625 -1.934 -4.2485 -2.4285 -4.7825 -2.229 -4.153 -4.1755 -2.186 -3.699 -1.7695 -3.4985 -1.4985 -4.237 
-4.565 -6.183 -6.514 -6.798501 -7.673 -6.7735 -7.02 -5.500501 -4.636 -4.585 -4.8425 -4.9685 -5.154 
-7.204 -7.7885 -10.513 -9.876501 -12.5573 -10.254 -8.354 -8.038 -4.967 -7.3545 -5.436 -8.072001 
-8.584001 -12.1519 -13.591 -14.9188 -16.0378 -11.588 -11.1623 -9.006001 -7.8635 -8.1685 -8.378 
-13.0718 -15.2299 -18.6333 -18.3993 -17.3718 -14.3963 -12.1303 -12.1269 -8.500501 -10.733 
-4.237 -3.355 -2.186 -6.702 -2.4285 -9.936501 -2.4285 -4.7825 -1.7695 -4.153 -3.6065 0 
-8.156 -5.3935 -9.05 -9.783501 -13.3232 -12.4026 -6.798501 -7.275001 -6.1115 -8.515 -3.6065 
-10.4345 -12.6533 -12.5433 -20.7604 -15.7893 -16.7726 -9.008 -12.0018 -10.3475 -8.515 
-17.6943 -16.1466 -23.5202 -23.2265 -20.1593 -18.9821 -13.8784 -16.2378 -10.3475 
-21.1876 -27.1235 -25.9863 -27.5965 -22.3688 -23.8525 -18.1144 -16.2378 
-5.749 -2.186 -1.4985 -3.585 -1.7565 -4.237 -8.635 -3.433 -1.7565 -1.4985 -4.153 -1.7565 -3.9545 0 -4.7825 -2.4285 -5.4535 
-7.469 -3.339 -4.369 -4.6385 -5.66 -14.0986 -12.383 -4.1845 -2.4195 -5.274 -5.717 -5.505 -3.9545 -4.7825 -6.9185 -7.218501 
-8.4985 -5.9755 -4.812 -8.502501 -16.0992 -17.8466 -13.1345 -4.6515 -6.4395 -6.134 -8.2665 -5.505 -7.5695 -6.9185 -12.5961 
-9.859 -6.2275 -8.843 -19.4035 -19.8472 -18.5981 -13.6015 -7.5925 -7.644 -8.651501 -8.2665 -9.224501 -9.411501 -12.5961 
-10.463 -9.877501 -19.6822 -23.1515 -20.5987 -19.0651 -16.5425 -8.262 -9.9325 -8.651501 -12.2742 -11.1983 -15.2153 
-3.7685 -4.9425 -2.186 -3.599 -2.4285 -3.4715 -2.4285 -4.7825 -2.186 -3.8125 -1.756 -3.135 -4.153 -1.7695 -4.2065 -3.7685 -4.9425 
-9.615001 -6.827 -6.7325 -6.065001 -5.8135 -5.6255 -6.798501 -6.914001 -7.472501 -5.3335 -4.5755 -6.8575 -5.5495 -4.563 -7.643 -9.615001 
-11.7137 -11.7413 -8.898001 -7.054501 -7.493501 -10.1145 -8.720501 -12.5837 -9.0655 -7.8365 -8.7095 -7.8595 -7.212501 -7.844501 -15.0197 
-16.628 -13.9068 -9.7705 -8.578 -12.2309 -10.766 -14.53 -14.1767 -11.7963 -12.2525 -10.134 -9.9835 -10.9654 -15.4326 
-18.7935 -14.7793 -11.3296 -13.4924 -12.8824 -16.5755 -16.123 -16.9075 -16.2123 -13.677 -12.258 -13.7874 -18.5535 
