-4.759 
n/a 
n/a 
n/a 
n/a 
-4.759 
n/a 
n/a 
n/a 
n/a 
-4.759 
n/a 
n/a 
n/a 
n/a 
-4.759 
n/a 
n/a 
n/a 
n/a 
-2.5195 -2.3615 -4.1175 0 -2.925 -4.1205 -2.3335 -12.16972 -10.1915 -4.928 -1.934 -1.4985 -9.467 -2.3615 -1.4985 -3.8405 -1.7565 -11.0905 -2.7415 -2.7455 -4.7065 -3.277 -2.186 -5.3075 -2.3345 -1.4985 -3.9005 -3.518 -1.7565 -4.129 -3.7515 -1.7565 -7.044 -3.8405 0 
-4.4095 -6.37 -4.1175 -2.925 -6.4975 -5.9915 -15.69402 -22.36122 -15.5207 -6.160001 -2.6125 -10.904 -11.669 -4.913 -4.7545 -4.563 -13.7962 -13.832 -5.186501 -7.067 -7.0375 -5.6775 -7.413 -6.2735 -3.233 -4.797 -6.2745 -4.302 -5.993001 -7.724501 -4.6045 -9.0725 -11.4123 -3.8405 
-8.300501 -6.37 -6.738501 -6.4975 -7.676001 -19.71502 -25.88552 -27.69042 -16.7527 -7.139 -12.0402 -13.1961 -13.2699 -8.870501 -5.365 -17.7639 -16.5377 -16.277 -8.962001 -8.3225 -9.2645 -11.2969 -8.049001 -7.080501 -7.1835 -7.139 -6.7755 -9.224501 -9.582001 -8.684501 -12.9891 -13.5874 -11.4123 
-8.300501 -8.328501 -10.1425 -7.676001 -21.50932 -29.90652 -31.21472 -28.92242 -17.7317 -17.3843 -14.3641 -14.6786 -17.0644 -9.278 -18.6091 -20.5054 -18.9827 -20.0525 -10.316 -10.8873 -14.9957 -11.9329 -9.0865 -11.4494 -9.945001 -7.6615 -12.2766 -12.8907 -10.0555 -17.2669 -17.504 -13.5874 
-10.194 -10.76 -10.5105 -21.50932 -31.70082 -35.23572 -32.44672 -29.90142 -27.977 -19.5172 -15.8466 -18.4731 -17.4719 -22.5437 -21.3506 -22.9504 -22.7582 -21.4065 -13.192 -16.6185 -15.6317 -12.9704 -13.5524 -14.2109 -10.3715 -13.1366 -15.9428 -13.3642 -19.4051 -21.7818 -17.504 
-2.3345 -4.5275 -1.4985 -10.7225 -1.934 -12.16972 -10.1915 -7.708 -2.925 -3.557 -2.9905 -2.3335 -2.4265 -3.768 -2.489 -3.881 -1.934 -10.695 
-5.1955 -4.9485 -13.3148 -12.6565 -15.11012 -22.36122 -18.3007 -11 -5.51 -5.269 -4.803 -3.913 -4.862 -4.333 -5.4125 -5.05 -12.8889 
-5.226 -17.5802 -15.2488 -25.83262 -25.30162 -30.47042 -21.5927 -13.585 -6.777 -5.8175 -6.196 -5.9855 -5.2105 -7.5745 -6.1895 -16.9123 
-19.0743 -19.5142 -28.42492 -36.02412 -33.41082 -33.76242 -24.1777 -14.852 -7.3585 -7.0605 -8.3035 -6.3535 -8.187 -8.4205 -18.5906 
-21.0083 -32.69032 -38.61642 -44.13332 -36.70282 -36.34742 -25.4447 -15.4335 -8.694 -9.252501 -8.610001 -10.057 -9.587 -21.0288 
-1.934 -2.3615 -4.1175 0 -1.4985 -3.452 -1.7565 -12.16972 -10.1915 -7.8295 -1.4985 -3.8405 -4.033 -4.1175 -1.756 -8.998501 -3.8755 -2.5045 -6.142 -4.7065 0 
-3.539 -6.37 -4.1175 -1.4985 -4.4485 -4.8515 -14.87542 -22.36122 -18.4222 -8.578 -4.7545 -8.495 -9.2985 -5.4385 -11.08 -13.1508 -5.907001 -8.4235 -10.045 -4.7065 
-8.138 -6.37 -5.5765 -4.4485 -5.398 -19.01802 -25.06692 -30.59192 -19.1707 -12.2174 -10.243 -13.9407 -10.7633 -15.7675 -15.2323 -15.1823 -12.496 -13.9778 -10.5688 
-8.138 -7.148 -8.706501 -5.398 -20.30592 -29.20952 -33.29762 -31.34042 -22.8101 -17.7059 -15.7431 -15.4055 -21.0923 -19.9198 -17.2638 -21.7713 -18.0533 -14.1438 
-8.748001 -9.998 -10.1 -20.30592 -30.49742 -37.44022 -34.04612 -34.97982 -28.2986 -23.206 -17.2079 -25.7345 -25.2446 -21.9513 -23.8528 -27.3286 -18.0533 
-3.402 -2.264 -2.3615 -3.909 -1.756 -3.074 -1.4985 -3.8405 -1.7565 -3.9235 -1.7565 -3.7515 -6.933001 -4.1585 -1.934 -1.4985 -9.993501 -10.1915 0 -4.1785 0 -2.4265 -2.186 -4.554 -2.3335 -11.0905 0 -2.186 -3.881 -1.934 -4.7065 -5.804 0 
-3.793 -3.8255 -5.6025 -5.7885 -4.566 -4.6505 -4.7545 -4.563 -5.8545 -5.24 -6.2335 -11.117 -11.7071 -6.16 -2.6125 -10.821 -20.641 -10.1915 -4.1785 -4.1785 -2.4265 -3.292 -5.002501 -6.607 -14.6148 -11.0905 -2.186 -5.3 -5.05 -7.609 -8.762 -4.165 
-5.686501 -7.4655 -6.934 -8.468 -5.66 -7.960001 -5.365 -9.25 -7.365 -10.494 -13.8692 -15.8911 -13.7086 -6.7925 -12.3292 -21.4685 -20.641 -14.7712 -4.1785 -6.5165 -3.292 -6.818501 -7.9195 -19.3191 -14.6148 -13.2765 -5.3 -5.9715 -10.228 -9.992001 -8.0625 
-8.088501 -8.556001 -8.991501 -9.5765 -9.2185 -8.47 -9.5965 -10.234 -12.8824 -18.1297 -18.6433 -17.8926 -14.3411 -16.9158 -22.9767 -21.4685 -25.2207 -14.7712 -6.5165 -7.279 -6.818501 -8.056001 -20.7396 -19.3191 -16.8008 -16.3905 -5.9715 -11.5763 -12.841 -9.592 
-9.18 -10.8057 -10.007 -13.2708 -9.6665 -12.8989 -10.534 -16.1242 -20.5181 -22.9038 -20.6448 -18.5251 -24.4644 -27.5633 -22.9767 -26.0482 -25.2207 -17.1092 -7.279 -11.3243 -8.056001 -21.1209 -20.7396 -21.5051 -19.9148 -17.062 -11.5763 -14.1893 -12.841 
