-4.759 
n/a 
n/a 
n/a 
n/a 
-4.759 
n/a 
n/a 
n/a 
n/a 
-4.759 
n/a 
n/a 
n/a 
n/a 
-4.759 
n/a 
n/a 
n/a 
n/a 
-3.1015 -2.925 -2.4945 -3.074 -3.849 -2.5045 -5.7985 
-5.38 -3.7675 -4.4205 -5.417 -6.305 -8.8035 
-6.04 -5.576 -6.794001 -7.559 -12.7076 
-8.2865 -7.6215 -8.6125 -13.9216 
-10.4514 -9.416 -14.9857 
-3.1015 -1.7695 -3.5395 -3.277 0 -3.135 -2.9645 -6.421 
-4.9955 -4.7845 -5.6815 -3.277 -3.135 -6.4265 -10.4747 
-8.105 -6.381001 -5.6815 -5.956 -6.4265 -14.3287 
-9.2545 -6.381001 -8.748001 -9.224501 -14.3287 
-9.2545 -9.245001 -12.3325 -17.2217 
-3.1015 -2.925 -2.4945 -4.379 -2.5045 -6.421 0 
-5.38 -3.7675 -5.974501 -7.0765 -8.797001 -6.421 
-6.04 -7.022501 -8.901501 -13.8608 -8.797001 
-8.7105 -9.820001 -15.9178 -13.8608 
-11.7818 -17.0301 -15.9178 
-2.0935 -4.379 -3.1495 -4.9225 -2.925 -3.2955 -10.0425 -3.115 -3.869 -3.9355 -1.934 -2.3335 -2.95 0 
-6.165 -7.2545 -7.203501 -7.6405 -5.588 -14.4778 -13.4125 -6.3625 -6.9125 -5.415 -4.359 -4.8245 -2.95 
-8.745501 -11.5761 -9.6955 -10.2805 -17.0071 -17.8478 -16.66 -9.4895 -8.160501 -7.592 -6.2115 -4.8245 
-13.1421 -14.0681 -12.3941 -21.6996 -20.3771 -21.0953 -19.787 -10.555 -10.621 -9.903 -6.2115 
-15.6341 -16.7667 -23.8132 -25.0696 -23.6246 -24.2223 -20.8525 -13.0155 -12.932 -9.903 
