-4.759 
n/a 
n/a 
n/a 
n/a 
-4.759 
n/a 
n/a 
n/a 
n/a 
-4.759 
n/a 
n/a 
n/a 
n/a 
-4.759 
n/a 
n/a 
n/a 
n/a 
-3.3365 -1.756 -4.196 -4.4295 -1.7695 -3.8315 -2.7455 -3.992 
-5.4995 -5.6505 -6.9905 -5.6705 -6.101501 -7.5565 -7.64 
-9.156 -8.500501 -8.629001 -11.2335 -9.903501 -12.8136 
-12.0808 -9.9175 -14.088 -15.0355 -15.1606 
-13.4978 -15.5427 -17.89 -20.2926 
-2.3615 -3.355 -4.7595 -4.361 -5.279 
-5.107 -7.8125 -9.3295 -8.726 
-8.352 -12.8251 -13.8311 
-13.7342 -17.3267 
-18.2358 
-2.3615 -3.7595 -2.186 -4.3305 -4.196 -2.0935 -1.4985 -4.361 -3.4635 -4.6945 0 
-5.0065 -5.991 -5.2645 -8.369 -7.212 -2.9725 -5.8175 -8.3275 -6.251 -4.6945 
-6.3795 -7.939001 -9.878 -12.0944 -7.8295 -7.351501 -10.218 -11.4028 -6.251 
-8.681001 -12.7455 -14.4592 -12.7119 -12.3973 -12.0484 -13.2933 -11.4028 
-13.3393 -17.3267 -15.0767 -17.2797 -17.0942 -15.1237 -13.2933 
-4.196 -3.8315 -4.619 -4.3955 -4.6505 -2.3615 -3.32 -3.098 0 
-9.447001 -8.078501 -8.515501 -8.727 -6.739 -4.3375 -6.406 -3.098 
-13.7966 -12.339 -13.2844 -11.2739 -9.174001 -6.793 -6.406 
-18.0571 -17.1079 -15.8313 -13.7089 -11.9265 -6.793 
-22.826 -19.6548 -18.2663 -16.4614 -11.9265 
