-4.759 
n/a 
n/a 
n/a 
n/a 
-4.759 
n/a 
n/a 
n/a 
n/a 
-4.759 
n/a 
n/a 
n/a 
n/a 
-4.759 
n/a 
n/a 
n/a 
n/a 
-2.8965 -4.269 -3.013 -5.651501 -4.267 -2.9995 -3.89 0 
-5.807 -7.234 -8.529501 -9.934 -8.599001 -6.01 -3.89 
-8.948 -12.5393 -12.992 -14.6725 -11.7631 -6.01 
-14.2215 -18.0052 -17.8094 -17.8366 -11.7631 
-19.6874 -22.5922 -20.9735 -17.8366 
-3.769 -3.013 -2.6165 -4.2675 -4.011 
-6.09 -3.724 -5.4155 -7.021501 
-6.482 -5.9385 -7.896 
-9.048 -8.522501 
-11.861 
-3.769 -3.013 -5.651501 -3.5795 -2.9995 -3.991 0 
-6.09 -8.529501 -8.0235 -5.410501 -7.161 -3.991 
-11.261 -12.164 -10.4895 -9.407001 -7.161 
-14.192 -11.9947 -14.1317 -9.407001 
-15.4992 -15.5617 -14.1317 
-2.6165 -4.2175 
-5.104 
n/a 
n/a 
n/a 
