-4.759 
n/a 
n/a 
n/a 
n/a 
-4.759 
n/a 
n/a 
n/a 
n/a 
-4.759 
n/a 
n/a 
n/a 
n/a 
-4.759 
n/a 
n/a 
n/a 
n/a 
-7.4885 -5.362 -2.7415 -3.9205 -2.0935 -3.1435 -5.1845 -4.6065 
-13.4777 -7.367001 -5.733 -5.033 -4.568 -8.783 -8.8135 
-15.4827 -9.801001 -6.5975 -5.739 -10.1995 -12.6344 
-17.9167 -10.262 -7.568501 -11.9931 -14.0509 
-18.3777 -11.233 -13.9384 -15.8445 
-1.4985 -6.864 -3.8405 -2.7415 -3.383 -4.4695 -1.756 -4.5735 -2.0935 -5.1845 -4.245 
-7.8675 -8.532001 -6.0775 -4.8365 -6.6995 -6.175 -6.045 -6.3135 -7.298 -7.991 
-9.044001 -10.733 -8.3625 -8.35 -7.8595 -9.038 -7.886 -12.0576 -10.1385 
-11.3768 -13.018 -12.1836 -9.346001 -10.6735 -11.0346 -13.8793 -14.8981 
-13.6618 -16.8391 -13.1796 -12.2326 -12.6701 -17.0279 -16.7198 
-6.864 -2.229 -3.8405 -2.7415 -5.3905 -3.8405 -1.7695 -5.1845 -4.245 
-8.205501 -6.798501 -6.0775 -7.4615 -8.356501 -5.658 -7.4505 -7.991 
-13.6572 -8.8575 -11.2333 -11.0787 -10.6698 -12.143 -9.7335 
-15.7162 -14.2259 -14.8505 -13.392 -17.1548 -14.426 
-21.0846 -17.8431 -17.1638 -19.877 -19.4378 
-5.1845 -4.245 -2.186 -2.645 -4.4695 -1.934 -6.864 -3.8405 0 
-7.991 -6.276501 -4.528 -6.47 -6.4835 -9.2825 -8.532001 -3.8405 
-9.797501 -8.565001 -7.8695 -8.247001 -14.4306 -11.1387 -8.532001 
-12.086 -11.9473 -9.2655 -16.4351 -16.2868 -11.1387 
-15.4683 -13.3433 -17.4198 -18.2913 -16.2868 
