-4.759 
n/a 
n/a 
n/a 
n/a 
-4.759 
n/a 
n/a 
n/a 
n/a 
-4.759 
n/a 
n/a 
n/a 
n/a 
-4.759 
n/a 
n/a 
n/a 
n/a 
-1.4985 -4.4095 -1.7565 -3.8735 -2.186 -3.1435 -3.6835 -3.47 -1.756 -3.8665 -3.47 -1.756 -3.1435 -3.72 
-5.283 -5.1885 -5.112 -5.949 -5.462 -6.6075 -4.658 -4.7915 -5.108 -4.8725 -4.7915 -4.1365 -6.646 
-5.4395 -8.911501 -7.035501 -8.965 -8.619501 -7.4375 -5.997001 -7.939501 -5.707 -5.8885 -7.4425 -7.8655 
-9.2205 -10.107 -9.679501 -12.1759 -9.385 -8.113501 -9.298 -8.637001 -7.1195 -8.267 -11.4989 
-10.4685 -12.8936 -12.9588 -12.9414 -10.4775 -11.8953 -9.390501 -9.880501 -9.356 -12.531 
-3.8665 -4.678 0 -3.6835 -4.678 -1.756 -4.092 -3.873 -1.7695 -3.511 -1.934 -2.4945 -3.7375 -5.0705 -1.7565 -3.8735 
-7.5195 -4.678 -3.6835 -9.512501 -6.040501 -5.451 -8.2155 -5.7395 -4.633 -4.582 -6.2235 -5.764501 -8.784 -6.008 -5.112 
-7.5195 -8.608001 -9.512501 -10.9228 -10.757 -9.368 -9.972501 -8.297501 -5.375 -7.976501 -9.882501 -11.0862 -9.8245 -9.502501 
-11.6267 -15.3832 -10.9228 -15.6393 -14.674 -11.4082 -12.5305 -8.983001 -8.820001 -11.7673 -15.3118 -12.1267 -13.3234 
-18.4019 -16.7935 -15.6393 -19.5563 -16.7142 -13.9662 -13.216 -12.4358 -12.7596 -17.1966 -16.3523 -15.6256 
-3.8665 -3.47 0 -3.1385 -3.519 -1.756 -3.873 -6.32 -5.175 -2.0935 -3.441 -2.4945 -3.135 -1.7565 -1.4985 -3.699 -5.0705 -1.7565 -3.8735 0 
-4.8725 -3.47 -3.1385 -6.636001 -4.9065 -5.383 -7.683001 -12.1052 -5.599 -5.3855 -6.405001 -4.575 -3.9195 -2.4195 -5.264 -8.047501 -6.008 -5.112 -3.8735 
-4.8725 -6.8805 -6.636001 -7.973001 -8.5425 -9.1295 -13.7916 -12.5292 -9.356001 -8.317 -9.0555 -5.097 -4.168 -6.063 -9.3985 -8.846001 -9.502501 -5.112 
-8.378 -10.058 -7.973001 -11.9776 -12.5352 -15.2953 -14.2156 -16.2862 -12.4095 -11.2427 -9.125001 -5.465 -6.844501 -9.611 -9.592 -12.5477 -9.502501 
-12.0939 -10.581 -11.9776 -15.9703 -18.701 -15.7193 -17.9726 -19.3397 -15.3352 -11.3122 -9.165001 -7.883501 -10.6095 -9.705 -13.2907 -12.5477 
-3.8665 -3.47 0 -3.6835 -3.47 -1.756 -4.092 -3.873 -2.4945 -3.135 -1.7565 -1.4985 -3.699 -4.9065 -1.7565 -3.8735 -2.229 
-4.8725 -3.47 -3.6835 -4.658 -4.7915 -5.451 -8.2155 -6.6425 -4.575 -3.9195 -2.4195 -5.264 -9.755 -7.6595 -5.112 -5.3655 
-4.8725 -6.473001 -4.658 -5.997001 -8.9545 -9.368 -11.4498 -9.363501 -5.097 -4.168 -6.063 -11.859 -12.5528 -11.4662 -6.120501 
-8.120501 -6.8715 -5.997001 -10.759 -13.2353 -12.8855 -14.1708 -9.5415 -5.465 -6.844501 -12.692 -14.6568 -16.3595 -12.4747 
-8.578 -8.538501 -10.759 -15.0398 -16.7528 -15.6065 -14.3488 -9.5895 -7.883501 -13.8001 -15.4898 -18.4635 -17.368 
