-4.759 
n/a 
n/a 
n/a 
n/a 
-4.759 
n/a 
n/a 
n/a 
n/a 
-4.759 
n/a 
n/a 
n/a 
n/a 
-4.759 
n/a 
n/a 
n/a 
n/a 
-3.1495 -5.1415 -2.4945 -4.896 -2.3345 -4.2665 -3.8475 -1.756 -4.2465 -3.8475 
-6.948 -7.034501 -6.5475 -6.413001 -6.55 -7.048 -5.133 -5.052 -6.9025 
-8.007501 -11.5647 -7.8775 -10.434 -10.4505 -8.363501 -8.370001 -8.3125 
-12.6351 -12.8947 -12.0101 -14.3345 -11.766 -12.0559 -11.9725 
-13.9651 -17.0273 -15.9106 -15.65 -15.4584 -15.6584 
-3.135 -4.2665 -4.925 -1.756 -4.3705 -3.8475 -4.896 -2.4265 0 
-7.1495 -7.093 -5.9555 -5.5605 -7.0295 -8.8525 -6.967501 -2.4265 
-9.7535 -7.9115 -9.005 -8.3975 -12.8259 -10.7495 -6.967501 
-10.6088 -11.4372 -12.282 -14.3981 -14.7229 -10.7495 
-14.1345 -14.7142 -18.2826 -16.2951 -14.7229 
-2.4265 -2.7765 -3.098 -2.489 -4.49 -2.3345 -1.4985 -4.179 
-4.346 -4.7155 -4.7465 -6.3505 -5.92 -3.233 -5.613501 
-6.160501 -5.1555 -7.914001 -7.28 -6.5565 -7.261001 
-6.447001 -7.984 -8.77 -7.99 -9.464001 
-8.802 -8.859501 -9.6975 -10.7595 
-1.4985 -4.39 -1.7565 -3.1495 -4.2645 -5.1765 -6.461 -1.4985 -5.501 -5.465 -3.251 -3.222 -1.4985 -5.637 0 
-5.256001 -4.681 -3.914 -6.0515 -8.829 -9.539501 -7.666 -6.679501 -7.145501 -8.9445 -5.039001 -3.7835 -6.3745 -5.637 
-5.366 -6.2425 -6.713 -10.223 -10.575 -10.033 -10.688 -7.849501 -10.287 -9.825 -5.3545 -7.9745 -6.3745 
-6.797 -8.725 -10.532 -10.583 -10.5935 -10.695 -10.7815 -10.6875 -10.4775 -9.996 -8.993501 -7.9745 
-9.3855 -10.575 -10.591 -10.6015 -10.725 -10.789 -10.8035 -10.7815 -10.547 -10.3245 -8.993501 
