-4.759 
n/a 
n/a 
n/a 
n/a 
-4.759 
n/a 
n/a 
n/a 
n/a 
-4.759 
n/a 
n/a 
n/a 
n/a 
-4.759 
n/a 
n/a 
n/a 
n/a 
-5.0645 -4.176 -3.5435 -4.359 -3.539 
-8.831 -6.47 -7.778001 -6.6715 
-11.4012 -11.2787 -9.769001 
-16.2099 -13.2697 
-18.2009 
-1.4985 -4.176 -4.0965 -2.7415 -5.2725 0 
-5.1055 -8.8105 -6.906501 -6.396 -5.2725 
-9.147 -10.7335 -9.84 -6.396 
-11.1204 -13.667 -9.84 
-14.0539 -13.667 
-12.16972 -4.6825 -5.9045 
-16.85222 -10.3545 
-22.52422 
n/a 
n/a 
-4.176 -3.5435 -3.251 -4.935 0 
-6.47 -6.0535 -6.022 -4.935 
-8.403 -8.968 -6.022 
-11.3749 -8.968 
-11.3749 
