-4.759 
n/a 
n/a 
n/a 
n/a 
-4.759 
n/a 
n/a 
n/a 
n/a 
-4.759 
n/a 
n/a 
n/a 
n/a 
-4.759 
n/a 
n/a 
n/a 
n/a 
-2.872 -2.4265 -2.186 -3.9595 -2.0935 -3.4975 -3.3785 -4.408 
-4.062 -3.292 -5.2155 -5.712 -5.577001 -6.679 -7.7145 
-4.7985 -6.6035 -6.769001 -9.964001 -8.8505 -11.753 
-8.679001 -7.829 -11.436 -13.2375 -14.1353 
-9.679501 -13.024 -14.7095 -18.5223 
-2.872 -3.1495 -2.4945 -2.5685 -4.7175 -4.522 -2.0935 -3.4975 -3.237 -4.149 
-5.392 -4.459 -4.6335 -8.0675 -7.7335 -7.0705 -5.577001 -5.6385 -7.706 
-6.098001 -5.958 -9.1005 -10.6605 -10.181 -10.233 -8.192501 -11.3235 
-7.680501 -10.1035 -11.7607 -13.108 -13.3435 -12.8485 -14.5385 
-11.9974 -12.8601 -14.2082 -16.2705 -15.959 -19.1945 
-2.872 0 -2.925 -2.4945 -3.17 -1.7565 -3.9595 -2.3345 -3.237 -3.895 0 
-2.872 -2.925 -3.7675 -5.279 -4.179 -7.303501 -5.1685 -5.602 -7.639001 -3.895 
-4.5305 -3.7675 -6.383501 -6.928 -10.688 -8.828501 -8.2465 -9.5485 -7.639001 
-5.2685 -6.383501 -8.219001 -13.8012 -12.213 -12.2449 -12.8768 -9.5485 
-7.98 -8.219001 -15.5838 -15.3262 -15.6294 -16.8752 -12.8768 
-2.872 -2.925 -12.16972 -4.3665 -4.408 
-4.5305 -17.09692 -16.53622 -8.956501 
-19.21282 -21.46342 -21.12622 
-23.57932 -26.05342 
-28.16932 
