-4.759 
n/a 
n/a 
n/a 
n/a 
-4.759 
n/a 
n/a 
n/a 
n/a 
-4.759 
n/a 
n/a 
n/a 
n/a 
-4.759 
n/a 
n/a 
n/a 
n/a 
-3.946 -1.7695 -3.946 -5.1845 -9.827001 0 
-5.1835 -4.9815 -10.147 -16.3059 -9.827001 
-5.2655 -10.6465 -21.2628 -16.3059 
-11.5905 -21.7623 -21.2628 
-22.7063 -21.7623 
-5.346 -3.519 -2.186 -3.074 -5.1845 
-9.3175 -5.4715 -4.156 -8.947001 
-11.461 -7.594501 -10.598 
-13.584 -14.1281 
-20.1176 
-5.1845 -2.186 -5.1795 
-7.895 -7.165501 
-13.3273 
n/a 
n/a 
-5.812 -2.9705 -2.186 -4.517 -1.934 -1.4985 -3.946 -3.074 -5.1845 0 
-9.209001 -3.89 -5.7375 -5.145 -2.6125 -4.896 -7.4805 -8.947001 -5.1845 
-9.868 -7.1745 -6.206 -5.815 -5.241 -8.368501 -13.6243 -8.947001 
-13.1525 -7.586501 -6.8695 -9.3795 -8.945001 -14.6015 -13.6243 
-13.5645 -8.152 -10.396 -12.9719 -15.2992 -14.6015 
