-4.759 
n/a 
n/a 
n/a 
n/a 
-4.759 
n/a 
n/a 
n/a 
n/a 
-4.759 
n/a 
n/a 
n/a 
n/a 
-4.759 
n/a 
n/a 
n/a 
n/a 
-3.9345 -1.7695 -3.685 -1.7565 -4.58 -4.569 0 -5.4945 -2.186 -4.9985 -1.7695 -5.267 -1.8085 -4.6285 -4.519 0 
-3.94 -4.9795 -4.5825 -6.0595 -10.223 -4.569 -5.4945 -7.267 -6.579 -7.5375 -5.5765 -6.3875 -6.176001 -5.576 -4.519 
-7.710001 -7.3805 -7.5895 -12.1699 -10.223 -10.3415 -7.267 -12.1732 -8.745001 -11.7545 -6.6595 -9.368 -6.741 -5.576 
-7.882 -10.634 -14.3301 -12.1699 -15.9955 -12.3154 -12.1732 -14.3392 -13.0508 -12.8375 -9.640501 -9.465501 -6.741 
-12.4469 -17.3746 -14.3301 -17.9424 -17.9694 -17.2216 -14.3392 -18.645 -14.1338 -15.8185 -9.7915 -9.465501 
-2.3345 -1.4985 -3.685 -1.7565 -4.58 -5.628 0 -1.4985 -5.285 -3.0695 -2.186 -4.0375 -1.7695 -5.267 -1.4985 -4.519 -4.269 0 
-3.233 -4.771501 -4.5825 -6.0595 -8.654501 -5.628 -1.4985 -6.79 -9.857 -4.2675 -7.7515 -6.054 -5.5765 -6.509501 -5.3625 -9.309 -4.269 
-6.264 -5.532001 -7.5895 -8.67 -8.654501 -7.811 -6.79 -11.0392 -11.145 -9.9755 -10.204 -9.8485 -6.7735 -9.7405 -11.0719 -9.309 
-6.8665 -8.013 -8.6695 -8.67 -9.803 -10.6215 -11.0392 -12.3272 -16.853 -12.6056 -14.1317 -11.4157 -9.878 -15.5333 -11.0719 
-9.23 -8.837001 -8.6695 -9.8035 -12.6135 -15.6799 -12.3272 -18.0352 -19.4831 -16.5333 -15.6989 -14.5202 -15.65 -15.5333 
-3.685 -1.7565 -4.58 -5.628 -1.8085 -4.6285 -1.7565 -4.519 -1.756 -4.8715 -3.277 
-4.5825 -6.0595 -8.654501 -7.159 -6.176001 -7.8945 -5.9635 -6.2815 -6.4945 -8.4195 
-7.5895 -8.67 -10.204 -12.5837 -8.8535 -12.3925 -7.985001 -11.9706 -8.633 
-8.6695 -10.204 -16.2449 -15.2612 -13.5747 -14.414 -14.1253 -14.1091 
-10.2035 -16.2449 -18.9224 -19.9824 -15.5962 -20.5543 -16.2638 
-3.8675 -3.685 0 -3.685 -1.7565 -4.58 -5.628 0 -5.5025 -2.871 -4.6285 -4.519 -4.371 -1.7695 -4.6015 0 
-7.2055 -3.685 -3.685 -4.5825 -6.0595 -8.654501 -5.628 -5.5025 -8.4685 -8.028501 -5.576 -7.771 -5.964 -7.5625 -4.6015 
-7.2055 -6.4185 -4.5825 -7.5895 -8.67 -8.654501 -11.7783 -8.4685 -13.8884 -8.7305 -9.1735 -9.797 -12.2396 -7.5625 
-10.5325 -7.4465 -7.5895 -8.6695 -8.67 -15.0396 -14.7443 -13.8884 -14.5904 -12.4064 -11.4829 -16.4534 -12.2396 
-11.5605 -7.99 -8.6695 -8.6695 -15.0589 -18.0056 -20.1642 -14.5904 -18.2663 -14.7158 -18.1393 -16.4534 
