-4.759 
n/a 
n/a 
n/a 
n/a 
-4.759 
n/a 
n/a 
n/a 
n/a 
-4.759 
n/a 
n/a 
n/a 
n/a 
-4.759 
n/a 
n/a 
n/a 
n/a 
-2.9805 -4.8905 -2.9905 -1.4985 -10.8235 -1.7565 -1.4985 -5.1845 -5.74 -2.229 -5.5025 
-6.177 -5.1545 -4.143 -11.8735 -12.3475 -2.4195 -6.5205 -5.7465 -7.966001 -7.5765 
-6.39 -6.1955 -14.7538 -14.6508 -12.9905 -7.2335 -7.317 -7.9785 -13.6233 
-7.3825 -16.0138 -16.6513 -15.2938 -18.0869 -8.118501 -9.4525 -13.64 
-17.0616 -17.8881 -17.2943 -20.3902 -18.9719 -9.522 -15.7898 
-6.557 -3.97 -1.4985 -3.711 -2.9195 -2.9805 -8.608001 
-9.6175 -5.802001 -5.0515 -7.367001 -6.531 -12.9909 
-11.6475 -9.574501 -9.865001 -11.7435 -16.98 
-15.42 -14.4836 -14.4445 -22.1925 
-20.3291 -19.0631 -24.8935 
-2.9805 -3.2955 -1.7695 -4.433 -4.184 -8.335501 -6.228 -2.3345 -5.1845 -4.9725 
-5.6305 -3.9425 -5.0885 -9.0665 -12.8991 -14.8107 -7.686 -7.449 -8.637 
-6.028 -6.113 -9.7465 -18.0438 -19.3743 -16.2687 -13.3041 -10.111 
-10.1895 -10.9644 -18.83 -24.519 -20.8323 -21.8868 -15.9661 
-15.0827 -20.0479 -25.3052 -25.977 -26.4504 -24.5488 
-5.1845 -3.9655 -3.8035 -2.9805 -4.0645 -4.394 
-8.2305 -6.882 -6.4615 -8.042 -7.58 
-11.8888 -9.0365 -12.065 -11.8601 
-14.0433 -14.701 -15.8831 
-19.7078 -18.5191 
