-4.759 
n/a 
n/a 
n/a 
n/a 
-4.759 
n/a 
n/a 
n/a 
n/a 
-4.759 
n/a 
n/a 
n/a 
n/a 
-4.759 
n/a 
n/a 
n/a 
n/a 
-8.26 -4.0215 -3.5125 -2.186 -2.6165 -4.3315 -3.8825 0 
-10.322 -6.9675 -5.685 -3.5105 -5.7765 -8.212501 -3.8825 
-13.268 -10.31 -7.0055 -6.557 -9.797501 -8.212501 
-16.6105 -11.6305 -9.8915 -10.3675 -9.797501 
-17.931 -14.5165 -13.8098 -10.3675 
-2.4265 -2.186 -2.6165 -3.8115 -1.7695 -4.597 -5.527 -1.4985 -4.2705 -3.218 -1.7565 -1.4985 -3.486 
-3.292 -3.5105 -5.2965 -3.8325 -7.2605 -9.913 -6.482501 -5.383 -5.638 -4.3535 -2.4195 -3.5655 
-4.443 -6.1225 -5.3065 -8.988501 -12.9643 -10.7635 -9.975501 -7.4705 -6.921 -5.1555 -4.824501 
-7.4405 -6.132501 -10.19 -14.9157 -13.8148 -14.2565 -13.3604 -7.8655 -8.0495 -7.6785 
-7.454 -11.1966 -16.1172 -15.7662 -17.3078 -17.6414 -13.7554 -8.281 -11.0281 
-1.4985 -3.8405 -1.7565 -4.399 -1.7565 -6.951 -4.0215 -2.7765 -2.6165 -2.489 -4.394 -4.1585 
-4.7545 -4.563 -5.3345 -4.831 -8.383 -8.3625 -6.7805 -4.9255 -3.82 -5.8615 -7.828 
-5.365 -9.123 -6.6625 -10.543 -9.323501 -11.5361 -9.276501 -5.4595 -7.816501 -9.1945 
-9.7025 -9.895 -13.2003 -11.4835 -12.6185 -14.0321 -9.785501 -9.037001 -11.2143 
-10.059 -16.3426 -14.1408 -14.7785 -15.1145 -14.5411 -13.4144 -12.5694 
-2.7295 -3.581 -5.651501 -4.255 -1.4985 -3.7515 -1.7565 0 -8.26 -4.664 0 
-7.683001 -8.243 -8.653501 -5.1745 -4.705501 -4.6045 -1.7565 -8.26 -13.3502 -4.664 
-10.1375 -12.101 -10.0405 -8.493 -4.844501 -4.6045 -10.1425 -13.3502 -13.3502 
-13.1182 -13.4212 -13.6437 -9.0745 -4.844501 -14.0591 -15.2327 -13.3502 
-14.9962 -16.9459 -14.2252 -9.0745 -14.9251 -19.1493 -15.2327 
