-4.759 
n/a 
n/a 
n/a 
n/a 
-4.759 
n/a 
n/a 
n/a 
n/a 
-4.759 
n/a 
n/a 
n/a 
n/a 
-4.759 
n/a 
n/a 
n/a 
n/a 
-1.4985 -7.395 -5.324 -1.934 -1.4985 -5.0615 -1.7565 -1.4985 -4.712 -2.264 -1.4985 -5.626 0 -3.837 -1.4985 -4.142 -1.7565 -1.4985 -3.729 -2.5045 -2.645 0 
-8.566 -10.051 -6.4455 -2.6125 -6.0045 -5.8245 -2.4195 -5.391 -6.954 -2.9195 -6.733001 -5.626 -3.837 -4.797 -5.4315 -5.3145 -2.4195 -4.763 -6.242 -5.389501 -2.645 
-11.4166 -11.5247 -7.0905 -6.8005 -6.4035 -6.018 -6.568501 -7.6045 -7.4195 -7.4055 -6.733001 -10.044 -4.797 -8.489 -5.589 -5.699 -5.4075 -6.816 -9.042 -5.389501 
-12.8903 -12.1697 -10.389 -7.2685 -6.68 -9.1215 -8.635 -7.969501 -10.7575 -7.4055 -11.837 -11.1124 -8.489 -8.777 -5.845 -7.6475 -7.2735 -9.710001 -9.042 
-13.5353 -15.4682 -11.2512 -7.53 -9.2875 -11.2132 -8.8915 -11.4395 -10.7575 -12.7173 -12.9054 -14.8044 -8.777 -9.016001 -7.814 -9.436501 -10.223 -9.710001 
-1.4985 -5.61 -5.324 -2.264 -1.4985 -4.712 -1.7565 -1.4985 -4.6905 0 -3.882 -1.4985 -3.729 -4.1835 -3.93 0 
-6.374001 -9.255 -6.776501 -2.9195 -5.391 -5.666501 -2.4195 -5.3255 -4.6905 -3.882 -4.821 -4.763 -8.593 -7.7215 -3.93 
-10.138 -10.4775 -7.1225 -6.185501 -5.9355 -6.067501 -6.396501 -5.3255 -8.411501 -4.821 -8.217 -8.892501 -12.3624 -7.7215 
-11.4279 -10.7755 -10.316 -6.772501 -6.268 -9.774001 -6.396501 -9.043 -9.296 -8.217 -9.956 -12.6619 -12.3624 
-11.7259 -13.969 -10.533 -7.120501 -10.044 -9.774001 -9.792001 -9.848001 -10.703 -9.956 -13.6156 -12.6619 
-1.4985 -5.0615 -1.7565 -1.4985 -4.712 -2.5045 -1.4985 -4.6905 -3.4425 -2.674 -7.395 -1.934 -3.277 -2.3335 -3.837 -1.4985 -3.729 -3.4765 -2.645 -3.299 0 
-6.0045 -5.8245 -2.4195 -5.391 -6.921 -3.1915 -5.3255 -7.337501 -6.348001 -10.733 -8.5325 -5.341 -5.2055 -5.5385 -4.797 -4.763 -7.443 -4.7 -6.1745 -3.299 
-6.4035 -6.018 -6.568501 -7.501 -7.494501 -7.4175 -7.928 -10.5325 -14.7232 -11.8705 -12.3381 -6.903501 -8.6765 -6.2015 -8.3055 -8.0915 -8.583 -8.008 -6.1745 
-6.68 -9.1215 -8.63 -8.056001 -10.3815 -10.1635 -11.324 -18.9077 -15.8607 -15.6761 -13.9006 -9.5325 -9.461 -9.5045 -11.9272 -9.539001 -10.7595 -8.008 
-9.2875 -11.2082 -8.987 -11.0046 -13.1275 -13.5595 -19.6992 -20.0452 -19.6663 -17.2386 -16.5296 -10.9748 -13.0464 -13.2812 -13.3747 -11.7155 -10.7595 
-1.4985 -7.655 -2.3335 -2.4945 -4.9385 -1.934 -1.4985 -2.543 -5.0615 -1.7565 -1.4985 -4.6905 -1.7695 -3.335 -2.645 -4.142 
-9.429501 -10.688 -3.947 -5.9385 -5.7735 -2.6125 -5.1495 -7.0515 -5.8245 -2.4195 -5.3255 -6.6105 -4.5005 -5.092 -7.593 
-12.6389 -12.3015 -7.370501 -6.41 -6.668 -6.323 -7.660001 -7.8735 -6.018 -6.396501 -7.05 -9.265 -6.795001 -11.0222 
-14.2524 -15.725 -7.8505 -7.321001 -10.1675 -8.610001 -8.109 -8.0675 -8.9515 -8.010501 -9.659 -11.7177 -13.4022 
-17.6759 -16.205 -8.6225 -11.0001 -12.7653 -8.9615 -8.280001 -11.1418 -10.3045 -10.4855 -12.0885 -18.3249 
