-4.759 
n/a 
n/a 
n/a 
n/a 
-4.759 
n/a 
n/a 
n/a 
n/a 
-4.759 
n/a 
n/a 
n/a 
n/a 
-4.759 
n/a 
n/a 
n/a 
n/a 
-2.3615 -2.186 -1.8085 -3.452 -3.098 -10.306 -2.9705 -4.0935 -12.16972 -3.9845 
-3.5005 -3.164 -4.787 -6.285 -13.7974 -13.4823 -5.492001 -17.35202 -16.15422 
-4.179 -6.188 -8.816 -18.0908 -16.9737 -16.0038 -19.10112 -21.33652 
-6.6845 -9.903501 -20.766 -21.2671 -19.4952 -29.61292 -23.08562 
-10.8886 -22.5807 -23.9423 -23.7886 -33.10432 -33.59742 
-2.3615 -2.186 -4.281 -2.5045 -3.616 -4.654 -2.0935 -4.6225 -4.3865 -5.5395 0 
-3.5005 -5.650001 -5.893 -6.2165 -9.089001 -6.456501 -7.016 -9.531501 -11.2798 -5.5395 
-8.302 -7.0835 -9.742001 -12.3125 -11.1261 -12.1188 -12.3908 -16.3738 -11.2798 
-9.535001 -11.1963 -15.9636 -14.3496 -16.7884 -17.4936 -19.2331 -16.3738 
-13.6446 -17.4179 -18.0007 -20.0119 -22.1632 -24.3359 -19.2331 
-2.4265 -2.186 -1.8085 -12.16972 -2.186 -4.248 -1.756 -3.17 -3.6975 
-3.292 -3.164 -14.47662 -14.35572 -6.698 -5.447 -4.684 -4.1885 
-4.4005 -16.87372 -16.66262 -18.86772 -7.9125 -8.836 -6.373 
-18.42022 -19.05972 -21.17462 -20.08222 -11.6813 -10.9082 
-20.60622 -23.57172 -22.38912 -23.85102 -13.7535 
-4.426 -1.7565 -1.4985 -3.6115 -4.7285 -4.1555 -3.147 0 
-5.47 -2.4195 -4.081 -6.5495 -8.4455 -5.77 -3.147 
-5.9535 -5.180501 -6.670501 -9.978001 -9.541501 -5.77 
-8.462501 -7.797 -10.054 -11.0524 -9.541501 
-10.2375 -11.2985 -11.1648 -11.0524 
