-4.759 
n/a 
n/a 
n/a 
n/a 
-4.759 
n/a 
n/a 
n/a 
n/a 
-4.759 
n/a 
n/a 
n/a 
n/a 
-4.759 
n/a 
n/a 
n/a 
n/a 
-2.3615 -2.186 -3.4795 -2.0935 -4.638 -3.098 -3.5455 -1.4985 -3.193 -2.95 -3.995 -4.654 -4.365 -2.3615 -5.1255 -2.186 -3.849 -1.8085 -4.365 -4.4155 0 
-3.5005 -7.512 -5.4235 -8.6695 -6.5965 -6.1435 -3.91 -4.136 -5.929 -6.176 -7.856 -8.5515 -8.059 -5.9905 -6.352 -4.8565 -5.169 -5.928 -6.259 -4.4155 
-9.288 -10.0745 -12.5565 -10.775 -8.163 -6.533 -5.562 -6.9595 -9.7086 -12.0434 -12.0843 -13.1645 -11.9808 -6.6985 -7.7285 -5.806 -8.698001 -7.378 -6.259 
-12.0419 -17.2075 -14.662 -12.3415 -8.695001 -8.0695 -7.748001 -11.1423 -15.576 -16.2717 -16.6973 -17.0863 -12.6888 -7.839 -9.123501 -9.236 -9.901001 -7.378 
-19.1749 -19.313 -16.2285 -12.8735 -10.348 -9.662001 -12.2086 -17.0097 -19.8043 -20.8847 -20.6191 -17.7943 -13.8293 -9.293 -12.5633 -10.1395 -9.901001 
-1.8085 -2.645 -3.9005 -4.934 -2.186 -2.3335 -4.905 -3.0415 -3.3715 -4.6945 -3.222 -2.8705 -5.29 -5.2945 -1.4985 -5.416 -1.7565 -6.403 -2.229 -5.4495 0 -2.9705 -4.6525 -2.791 -2.6165 -1.7695 -5.338 -4.909 -4.6945 -4.1715 -2.9325 -2.186 -4.023 -1.7695 -4.4295 -1.4985 -4.2665 -2.8705 -4.979 -4.4905 -1.7695 -4.4295 0 
-4.355 -6.4755 -8.796 -6.476 -3.9765 -7.366 -8.432 -4.5985 -7.494 -7.5035 -5.334 -7.923 -9.0585 -5.602 -6.8075 -7.282001 -7.4515 -6.699 -6.5445 -5.4495 -2.9705 -6.3915 -5.497 -5.833 -4.153 -6.407001 -10.688 -8.314501 -8.414001 -5.929501 -3.8335 -4.89 -4.5555 -4.984 -5.163 -5.031 -6.8185 -7.477 -9.204 -5.339001 -4.984 -4.4295 
-7.330501 -10.2335 -9.699 -7.357 -8.877001 -11.0518 -8.882501 -8.88 -10.485 -9.7095 -9.327001 -12.0445 -9.062 -9.669001 -7.71 -10.7175 -7.771 -6.765 -6.5445 -8.266001 -6.3915 -7.337 -7.769 -6.505 -8.793 -12.434 -14.0935 -12.2762 -10.061 -6.5455 -6.574 -5.223001 -7.3345 -5.639 -7.9415 -8.196001 -12.4314 -11.995 -9.404 -8.229501 -4.984 
-10.3475 -11.1239 -9.9505 -12.4317 -12.5726 -11.5023 -13.451 -11.9612 -12.691 -13.7515 -13.6085 -12.048 -14.81 -9.759001 -11.3063 -10.775 -7.803 -6.765 -8.7515 -10.6735 -7.337 -9.563001 -7.9075 -10.354 -14.9874 -15.8395 -18.0552 -13.9232 -10.402 -7.521 -6.897 -7.908501 -7.775001 -8.244 -11.5269 -14.0245 -16.9494 -12.195 -10.003 -8.229501 
-11.2107 -11.3754 -15.0606 -16.1273 -13.0231 -16.0708 -16.5322 -14.1672 -16.733 -18.033 -13.612 -17.796 -14.9 -13.6803 -11.3638 -10.811 -7.803 -8.896501 -10.7575 -10.7825 -9.563001 -9.703001 -10.7175 -16.738 -18.3929 -19.8012 -19.7022 -14.2642 -11.3775 -7.79 -9.6645 -8.3315 -10.199 -12.0198 -17.3554 -18.5425 -17.1494 -12.794 -10.003 
-3.1495 -3.4795 -2.6165 -3.723 0 -2.3615 -2.95 -3.995 -4.2605 -1.7695 -8.124001 -1.4985 -4.287 -1.7695 -4.9885 -9.438001 0 
-5.004 -6.432 -6.8625 -3.723 -2.3615 -4.4645 -6.176 -9.3525 -6.087 -8.664001 -9.261001 -5.4565 -6.2385 -6.7285 -15.3267 -9.438001 
-7.398 -11.5788 -6.8625 -6.4655 -4.4645 -9.178 -13.5399 -11.2842 -13.5933 -9.6435 -13.3466 -8.932 -11.6219 -17.7093 -15.3267 
-13.2048 -11.5788 -9.281501 -9.009501 -9.178 -16.8865 -15.4716 -18.7905 -14.5728 -13.7347 -16.8221 -14.5358 -22.6027 -17.7093 
-13.2048 -13.9978 -12.0663 -13.8526 -16.8865 -18.8182 -22.9779 -19.77 -18.664 -17.2102 -22.4259 -25.5166 -22.6027 
-3.1495 -3.4795 -2.4945 -2.6165 -4.3705 0 -2.5045 -2.925 -3.7085 -4.287 -5.5055 -1.7695 -1.4985 -3.995 -2.229 -4.9375 -1.756 -3.4625 -1.934 -5.2245 -3.074 0 -2.4265 -4.3535 -1.8085 -4.9375 -4.3505 -3.849 -2.5045 -7.537 -4.9375 
-5.004 -5.6685 -3.8065 -6.906501 -4.3705 -2.5045 -4.3205 -5.836 -6.889501 -9.391001 -5.636 -2.7955 -4.712 -5.324 -6.736001 -6.2105 -5.1775 -4.565 -8.154 -8.179501 -3.074 -2.4265 -5.655 -5.576 -6.4305 -8.2945 -7.6455 -6.305 -9.324 -13.4571 
-6.717 -7.371 -7.483 -6.906501 -7.351 -4.3205 -7.231 -7.941501 -12.6237 -9.425 -5.9935 -6.133 -5.586 -7.0505 -7.910001 -9.3545 -6.3865 -9.846001 -11.356 -8.179501 -5.653 -5.655 -7.1735 -10.051 -9.507501 -11.7913 -10.6095 -13.2281 -15.8169 
-8.078501 -11.5085 -7.483 -8.847001 -9.160501 -7.231 -9.473001 -13.9947 -12.6577 -10.145 -9.682 -6.9865 -7.2665 -8.1425 -11.4554 -10.0015 -11.9575 -13.048 -11.356 -10.354 -8.7215 -7.1735 -11.9851 -13.128 -13.0821 -14.7553 -17.5326 -19.721 
-12.4922 -11.5085 -9.587 -10.254 -12.2202 -9.473001 -15.4666 -14.0287 -13.3777 -13.8335 -9.823501 -8.3645 -8.330501 -11.8997 -12.1024 -15.6673 -15.1595 -13.048 -13.5305 -13.6865 -10.4636 -11.9851 -15.0621 -16.7026 -16.0461 -21.6784 -24.0255 
