-4.759 
n/a 
n/a 
n/a 
n/a 
-4.759 
n/a 
n/a 
n/a 
n/a 
-4.759 
n/a 
n/a 
n/a 
n/a 
-4.759 
n/a 
n/a 
n/a 
n/a 
-3.5195 -3.133 0 -2.5645 -3.6765 -3.152 -4.424 -1.756 -3.845 -3.7555 -4.874 -3.034 -1.8085 -4.9305 -4.3215 -5.4015 -1.934 -3.75 -4.779 0 
-5.834001 -3.133 -2.5645 -6.808001 -6.9935 -8.638 -5.9015 -6.399 -8.055 -7.194 -6.619 -4.4665 -6.73 -8.1225 -7.811501 -6.615 -5.3465 -7.410501 -4.779 
-5.834001 -5.3135 -6.808001 -10.522 -12.9615 -9.6975 -9.826 -10.7862 -11.6183 -9.166 -7.268 -9.7155 -8.896501 -11.8965 -8.6435 -9.995001 -8.976501 -7.410501 
-9.198501 -9.867001 -10.522 -16.49 -14.021 -13.622 -15.1786 -14.3495 -13.5903 -10.0515 -13.1856 -11.9224 -12.8001 -12.7285 -12.2465 -13.7104 -8.976501 
-14.0732 -13.6246 -16.49 -17.5495 -17.9455 -18.9746 -18.7419 -16.3215 -14.4758 -16.1009 -15.3925 -15.826 -13.6321 -16.3315 -15.9619 -13.7104 
-3.5195 -3.133 0 -3.641 -4.779 -7.873 -4.3215 -4.857 -1.756 -2.998 -4.269 -5.452 -1.756 -3.3715 -1.7565 -3.1385 -3.383 -3.6135 -4.6345 0 
-5.834001 -3.133 -3.641 -8.252001 -13.8996 -12.7293 -8.781 -6.396 -5.392 -7.3065 -8.911501 -6.7165 -4.6545 -4.3215 -4.388 -6.726501 -5.8785 -8.6595 -4.6345 
-5.834001 -6.95 -8.252001 -17.668 -18.7559 -17.1888 -9.551001 -10.564 -9.2665 -12.1518 -10.164 -9.1265 -5.7085 -8.081501 -7.45 -10.2185 -11.3427 -8.6595 
-10.7844 -12.1738 -17.668 -22.5243 -23.2154 -17.9588 -14.031 -14.4385 -14.1974 -13.4043 -12.574 -10.3615 -9.7085 -11.3645 -11.4518 -15.6827 -11.3427 
-16.0082 -21.5898 -22.5243 -26.9838 -23.9854 -22.4388 -17.9055 -19.3694 -15.4499 -15.8143 -13.809 -14.3615 -13.0107 -15.3663 -16.916 -15.6827 
-3.5195 -5.067 -3.641 -4.779 -3.851 -1.7695 -1.4985 -4.8475 -1.7565 -1.8085 -5.1235 -4.3215 -2.998 -3.1385 -3.152 -4.493 -1.756 -3.3715 -3.152 -4.874 
-8.299001 -8.909 -8.252001 -8.866501 -4.0015 -2.7955 -5.757501 -5.6715 -3.2595 -6.238501 -7.527 -7.753 -6.2545 -5.219 -5.593 -5.8585 -4.6545 -6.142 -6.21 
-11.4965 -12.273 -12.6349 -8.880501 -4.5775 -6.9595 -5.8545 -7.0645 -7.3965 -8.2925 -9.779501 -11.2797 -7.920501 -6.315001 -6.381001 -7.7545 -7.068 -8.530001 
-16.2165 -17.3669 -12.6489 -9.339001 -7.9055 -7.0345 -7.281001 -10.5035 -9.562 -10.8272 -13.8042 -12.9457 -8.374001 -6.867001 -8.069 -9.137 -9.029 
-20.6248 -17.3809 -13.1074 -12.7324 -7.968 -8.464001 -10.5225 -10.5285 -12.3031 -14.8519 -15.4702 -13.3992 -8.81 -8.499001 -9.2145 -9.572001 
-3.5195 -3.133 -1.8085 -4.3215 -4.8475 -1.934 -3.641 -4.779 -2.998 -4.493 -1.756 -3.3715 -4.874 0 
-5.834001 -5.6875 -5.6455 -6.997001 -6.366 -5.245 -8.252001 -8.276001 -7.959001 -5.8585 -4.6545 -7.722501 -4.874 
-8.538501 -9.9425 -8.58 -7.9975 -9.397501 -8.940001 -12.0444 -13.52 -9.194501 -7.7545 -8.5325 -7.722501 
-13.1015 -13.0122 -9.239 -11.7438 -13.5927 -12.7578 -17.2884 -14.7555 -11.1811 -8.8405 -8.5325 
-16.1712 -13.6712 -12.7701 -15.939 -17.4105 -18.0018 -18.5239 -16.7421 -12.2671 -8.8405 
