-4.759 
n/a 
n/a 
n/a 
n/a 
-4.759 
n/a 
n/a 
n/a 
n/a 
-4.759 
n/a 
n/a 
n/a 
n/a 
-4.759 
n/a 
n/a 
n/a 
n/a 
-12.16972 -4.8275 -2.8645 -3.552 0 -9.373 -4.8275 -2.8645 -3.062 -4.8275 
-16.99722 -7.825001 -7.0195 -3.552 -9.373 -14.2949 -7.825001 -6.733 -8.4355 
-19.99472 -12.3926 -7.0195 -13.2648 -14.2949 -17.2924 -12.1061 -10.396 
-24.56232 -12.3926 -17.2513 -18.1867 -17.2924 -21.5735 -15.7691 
-24.56232 -22.6244 -22.1732 -21.1842 -21.5735 -25.2365 
-12.16972 -8.506001 -2.674 -3.552 -3.4715 -1.756 -9.373 -8.506001 -3.062 -4.346 
-20.67572 -11.431 -7.217 -7.599001 -5.553 -10.907 -17.9734 -11.819 -8.294001 
-23.60072 -15.974 -11.6652 -9.921 -15.658 -19.5074 -21.2864 -17.051 
-28.14372 -20.4222 -13.9872 -20.0982 -24.2584 -22.8204 -26.5184 
-32.59192 -22.7442 -24.1644 -28.6986 -27.5714 -28.0524 
-12.16972 -8.506001 -2.674 -3.552 -5.649 0 
-20.67572 -11.431 -7.217 -9.769001 -5.649 
-23.60072 -15.974 -13.8352 -9.769001 
-28.14372 -22.5922 -13.8352 
-34.76192 -22.5922 
-1.934 -12.16972 -3.552 -3.6185 0 -9.150001 -8.506001 -3.062 -3.6185 
-15.11012 -15.72172 -6.4735 -3.6185 -9.150001 -17.8388 -11.819 -6.3475 
-18.66212 -18.64322 -6.4735 -14.0157 -17.8388 -21.1518 -15.1045 
-21.58362 -18.64322 -17.9387 -22.7045 -21.1518 -24.4373 
-21.58362 -30.10842 -26.6275 -26.0175 -24.4373 
