-4.759 
n/a 
n/a 
n/a 
n/a 
-4.759 
n/a 
n/a 
n/a 
n/a 
-4.759 
n/a 
n/a 
n/a 
n/a 
-4.759 
n/a 
n/a 
n/a 
n/a 
-3.6055 -3.1715 -2.186 -5.1605 -2.3345 -3.1715 -4.356 -2.9705 -2.7415 -4.645 -2.3345 -3.237 0 
-6.009501 -5.3485 -6.7155 -6.162 -4.9275 -6.4205 -6.344 -4.512 -5.6165 -5.881001 -5.602 -3.237 
-7.2465 -9.232 -7.06 -9.781 -7.918 -8.374001 -7.677001 -8.388 -7.125 -9.004001 -5.602 
-11.989 -9.381001 -10.543 -12.8733 -9.6885 -9.992001 -12.0426 -9.069 -10.322 -9.004001 
-12.138 -12.9772 -13.6353 -14.6438 -10.566 -14.3576 -12.7236 -12.5292 -10.322 
-3.345 -5.204 -3.958 -1.934 -4.5685 -6.249 -2.5195 -4.536 -3.1385 
-9.239 -9.6875 -5.497 -7.306 -11.8591 -8.4325 -7.868501 -6.7555 
-13.7225 -11.2653 -11.6222 -15.023 -14.0426 -13.8989 -9.876 
-15.3003 -17.3905 -19.3392 -17.2065 -19.509 -15.9064 
-21.4255 -25.1075 -21.5227 -22.6729 -21.5165 
-3.345 -3.1715 -2.186 -5.1605 -2.3345 -3.1385 -5.086 -3.1715 -3.4815 0 
-5.613501 -5.3485 -6.7155 -6.162 -5.443501 -8.103001 -8.767 -5.4775 -3.4815 
-7.193 -9.232 -7.06 -8.7235 -10.4105 -12.1558 -11.424 -5.4775 
-11.6257 -9.381001 -9.6945 -14.0675 -14.7527 -14.8128 -11.424 
-11.7747 -12.1287 -15.1547 -18.4097 -17.4097 -14.8128 
-3.6055 -7.2955 -3.917 -2.0935 -7.2955 -7.677001 0 
-12.2326 -11.7471 -5.367001 -9.516001 -15.5071 -7.677001 
-16.6842 -13.1971 -13.4799 -17.8044 -15.5071 
-18.1342 -21.31 -21.7683 -17.8044 
-26.2471 -29.5984 -21.7683 
