-4.759 
n/a 
n/a 
n/a 
n/a 
-4.759 
n/a 
n/a 
n/a 
n/a 
-4.759 
n/a 
n/a 
n/a 
n/a 
-4.759 
n/a 
n/a 
n/a 
n/a 
-3.45 -3.0695 -5.302 -7.684 -3.6785 -2.3335 -2.4265 -3.4405 -2.6165 -2.674 -1.8085 -4.4265 -5.459 -1.756 -2.4265 -2.186 -2.6165 -2.8645 -5.6285 
-4.273 -6.4875 -14.0442 -11.8351 -4.529 -3.913 -4.5365 -3.7415 -4.2165 -3.63 -5.3885 -9.552 -6.3705 -3.949 -3.292 -3.5105 -6.9245 -10.007 
-6.873 -15.6871 -18.1953 -12.6856 -5.816 -5.7225 -4.8645 -4.926001 -5.0785 -6.794 -10.442 -10.496 -8.483001 -4.7355 -4.443 -8.217501 -14.3044 
-16.1996 -19.8382 -19.0458 -13.9726 -7.693501 -5.871 -6.1405 -5.5955 -7.8615 -12.1223 -11.386 -12.6085 -9.1085 -5.86 -9.154 -15.855 
-20.3507 -20.6887 -20.3328 -15.8501 -8.0565 -7.055 -6.8575 -8.344001 -13.3168 -13.0663 -13.4985 -13.234 -10.2815 -10.467 -16.7737 
-3.135 -3.1385 -3.6845 -4.1375 -2.9635 -2.264 -1.4985 -4.278 0 
-4.8745 -6.516 -7.8095 -7.505 -5.3015 -2.9195 -6.1565 -4.278 
-7.9655 -10.3965 -11.9876 -9.4545 -6.1275 -7.383501 -6.1565 
-11.998 -14.5746 -13.9371 -10.12 -10.9705 -7.383501 
-16.1761 -16.5241 -14.6026 -14.963 -10.9705 
-12.16972 -4.0195 -2.3335 -2.186 -3.013 -2.6165 -3.0465 -1.934 -4.4905 0 -1.756 -7.6355 -2.356 -5.0325 0 
-16.18922 -6.223001 -3.7085 -6.109 -3.724 -5.122 -4.8825 -7.2855 -4.4905 -1.756 -9.452001 -10.504 -6.67 -5.0325 
-18.39272 -7.266 -7.3715 -7.153 -5.8225 -6.8535 -10.5975 -7.2855 -6.361001 -9.452001 -12.5491 -14.818 -6.67 
-19.43572 -11.4252 -7.953001 -8.916 -7.557 -12.7733 -10.5975 -8.4525 -14.8384 -12.5491 -16.8631 -14.818 
-23.59492 -12.0067 -10.3155 -10.5645 -13.9668 -12.7733 -11.7645 -17.1923 -17.9355 -16.8631 -16.8631 
-2.925 -2.4945 -5.1405 -1.934 -3.355 -2.3345 -8.6805 0 -1.4985 -5.0805 -3.943 -2.229 -4.1145 -5.015 -1.7695 -4.7155 -2.5685 -1.7565 -3.1435 -3.8025 0 -4.278 -1.756 -3.769 0 
-3.7675 -6.684 -7.191 -4.6675 -5.435 -10.429 -7.812 -1.4985 -5.360001 -5.3535 -5.6245 -6.8665 -8.488501 -5.180501 -6.100501 -7.082001 -3.887 -4.124 -6.7435 -3.8025 -4.278 -6.202001 -4.496 -3.769 
-8.264501 -8.120001 -9.177501 -5.511001 -12.819 -9.998 -9.7845 -5.360001 -5.3695 -8.33 -9.826 -10.0645 -8.507 -8.263 -8.9005 -8.081501 -5.547 -7.364501 -6.7435 -8.316 -6.202001 -8.8585 -4.496 
-9.514501 -9.865001 -9.2935 -10.085 -10.083 -10.083 -10.0405 -5.3695 -8.416 -9.995 -10.081 -10.07 -10.0785 -10.0445 -9.5565 -9.250001 -8.3645 -7.364501 -10.0605 -9.894001 -8.8585 -8.8585 
-10.069 -9.914001 -10.155 -10.082 -10.089 -10.089 -10.0555 -8.416 -10.0065 -10.083 -10.087 -10.0895 -10.0845 -10.0835 -9.957001 -10.0755 -8.3645 -10.0775 -10.0835 -10.0575 -8.8585 
