-4.759 
n/a 
n/a 
n/a 
n/a 
-4.759 
n/a 
n/a 
n/a 
n/a 
-4.759 
n/a 
n/a 
n/a 
n/a 
-4.759 
n/a 
n/a 
n/a 
n/a 
-1.4985 -9.914001 -5.6655 -3.0695 -4.0555 -2.5195 -1.4985 -3.5455 -2.356 -2.664 -4.257 -1.934 -5.7675 0 -4.9385 -6.3215 -1.756 -3.9535 -1.7695 -4.1 0 
-12.5063 -15.6837 -7.4495 -5.5715 -5.0775 -3.1695 -4.554 -6.8105 -4.135 -5.7405 -6 -8.251 -5.7675 -4.9385 -10.7025 -8.1995 -5.4855 -5.098001 -5.4985 -4.1 
-18.276 -17.4677 -9.548 -6.685 -5.8035 -5.8305 -7.193501 -8.533001 -7.136001 -7.6445 -12.9678 -8.251 -10.9075 -10.7025 -12.5805 -12.1746 -6.2925 -8.939 -5.4985 
-20.06 -19.5662 -10.4445 -7.4215 -7.9395 -8.252501 -8.8585 -9.820001 -9.017 -14.9581 -12.9678 -13.569 -16.6715 -12.5805 -16.5556 -12.9816 -10.176 -8.939 
-22.1585 -20.4627 -11.181 -9.01 -9.948501 -10.061 -10.597 -11.6542 -16.4296 -14.9581 -18.2858 -19.333 -18.5495 -16.5556 -17.3626 -16.8651 -10.176 
-10.128 -10.651 0 -1.7695 -4.61 -1.756 -6.613 -6.3215 -2.5045 -5.7675 
-20.9134 -10.651 -1.7695 -5.684 -6.3305 -7.3525 -13.7663 -9.307501 -8.381001 
-20.9134 -12.4205 -5.684 -7.332001 -12.5444 -14.7998 -16.7523 -15.2252 
-22.6829 -16.335 -7.332001 -13.8409 -19.9917 -17.7858 -22.67 
-26.5974 -17.983 -13.8409 -21.2882 -22.9777 -23.7035 
-1.934 -5.7675 -10.128 -4.231 -3.0695 -3.6955 -2.5195 -1.4985 -3.5455 0 -5.717 -6.3215 
-8.251 -16.4877 -14.4934 -5.9045 -5.826 -4.843 -3.1695 -4.554 -3.5455 -5.717 -13.1461 
-19.1492 -20.8531 -16.1669 -8.630501 -6.7795 -5.604 -5.8305 -4.554 -10.784 -13.1461 
-23.5146 -22.5266 -18.8929 -9.335001 -7.72 -7.9175 -5.8305 -12.2145 -18.2131 
-25.1881 -25.2526 -19.5974 -9.973001 -9.495001 -7.9175 -13.5804 -19.6436 
-1.934 -5.7675 0 -10.2055 -4.9385 -1.4985 -6.3215 
-8.251 -5.7675 -10.2055 -15.144 -5.916501 -8.272 
-8.251 -16.5652 -15.144 -16.122 -13.238 
-19.2267 -21.5037 -16.122 -23.4435 
-24.1652 -22.4817 -23.4435 
