-4.759 
n/a 
n/a 
n/a 
n/a 
-4.759 
n/a 
n/a 
n/a 
n/a 
-4.759 
n/a 
n/a 
n/a 
n/a 
-4.759 
n/a 
n/a 
n/a 
n/a 
-2.3615 -4.0135 -1.7565 -4.9425 -2.186 -3.849 -11.087 -4.6165 -4.9425 
-5.1525 -4.201 -6.343 -6.827 -4.8565 -10.264 -13.1582 -8.5445 
-5.2165 -8.241501 -8.027 -9.189 -11.3695 -16.9145 -17.862 
-8.8625 -9.444 -10.0095 -16.1066 -18.0296 -20.8425 
-9.6405 -10.6225 -17.0197 -22.6321 -21.9576 
-2.3615 -4.878 -2.186 -5.5435 0 -5.5435 -3.956 -3.974 -2.264 -2.4265 0 
-7.677501 -7.018001 -8.538 -5.5435 -5.5435 -10.368 -9.742001 -4.8545 -4.561 -2.4265 
-8.776501 -13.7902 -8.538 -7.408501 -10.368 -16.1834 -10.752 -7.6565 -4.561 
-15.7123 -13.7902 -10.254 -13.0088 -16.1834 -17.1934 -13.554 -7.6565 
-15.7123 -15.5062 -16.0119 -18.8242 -17.1934 -19.9954 -13.554 
-2.3615 -2.186 -3.593 -1.7565 -4.1985 -2.186 -3.849 -1.4985 -12.16972 0 -12.16972 0 -4.3185 0 
-3.5005 -7.435 -4.507 -5.948501 -6.708 -4.8565 -4.7705 -14.76202 -12.16972 -12.16972 -12.16972 -4.3185 -4.3185 
-8.791 -8.105 -6.844 -7.798 -9.1115 -5.64 -17.93222 -14.76202 -24.33944 -12.16972 -16.48822 -4.3185 
-9.406 -10.1 -8.846001 -9.882501 -9.8245 -19.02872 -17.93222 -26.93174 -24.33944 -16.48822 -16.48822 
-11.5056 -12.4154 -10.459 -10.371 -23.26742 -19.02872 -30.10194 -26.93174 -28.65794 -16.48822 
-2.3615 -4.9635 -2.186 -3.264 -1.7695 -2.489 -5.5435 -5.5435 -3.974 0 
-7.399 -7.0315 -5.316 -4.908 -3.1405 -9.127501 -7.408501 -9.936001 -3.974 
-8.727501 -9.755 -5.572 -5.5165 -9.669001 -11.1541 -12.5768 -9.936001 
-11.6222 -9.778 -5.9005 -12.1826 -11.7636 -16.3224 -12.5768 
-11.6452 -10.4815 -12.7324 -14.2772 -16.9319 -16.3224 
