-4.759 
n/a 
n/a 
n/a 
n/a 
-4.759 
n/a 
n/a 
n/a 
n/a 
-4.759 
n/a 
n/a 
n/a 
n/a 
-4.759 
n/a 
n/a 
n/a 
n/a 
-5.42 -5.547 -1.7565 -5.1845 -4.2995 -2.186 -4.5045 -4.4095 
-11.6956 -6.992001 -6.580501 -8.676001 -5.882 -5.4575 -10.075 
-13.1406 -12.4032 -10.915 -10.4425 -8.712 -11.8248 
-18.5518 -16.7377 -12.6815 -13.2725 -15.1381 
-22.8863 -18.5042 -15.5115 -19.6986 
-5.1845 -6.456 -4.2995 -3.0465 -4.0205 -1.934 -3.1495 -3.8405 
-10.7025 -11.5259 -7.77 -7.201 -5.91 -4.5395 -8.3385 
-15.7724 -14.9964 -12.5335 -9.1555 -8.319 -9.425001 
-19.2429 -19.7599 -14.488 -11.7057 -13.4295 
-24.0064 -21.7144 -17.0382 -16.8162 
-5.1845 -7.8435 -4.245 -2.4945 -4.0205 -1.934 -2.3615 -2.95 
-10.543 -10.841 -6.8335 -6.024 -5.91 -3.539 -4.4645 
-14.1953 -13.4295 -10.7038 -7.366 -7.4685 -6.3285 
-16.7838 -17.2998 -12.0458 -8.864 -9.531 
-20.6541 -18.6418 -13.5438 -10.9991 
-5.42 0 -5.1845 -7.8435 -4.2995 -2.8645 -3.7905 -4.0205 0 
-5.42 -5.1845 -10.543 -10.016 -6.3575 -4.816 -7.148 -4.0205 
-11.3331 -10.543 -13.3703 -12.074 -7.9915 -8.710501 -7.148 
-16.6916 -13.3703 -15.4283 -13.708 -10.7025 -8.710501 
-19.5189 -15.4283 -17.0623 -16.419 -10.7025 
