-4.759 
n/a 
n/a 
n/a 
n/a 
-4.759 
n/a 
n/a 
n/a 
n/a 
-4.759 
n/a 
n/a 
n/a 
n/a 
-4.759 
n/a 
n/a 
n/a 
n/a 
-1.934 -6.933001 -4.245 0 -1.4985 -4.5735 -6.4735 0 -4.101 -4.4115 -1.756 -4.105 -4.4115 -4.245 -1.756 -1.4985 -4.6065 -2.7455 -1.4985 -4.179 -1.7565 -3.5855 -3.423 -2.489 -3.962 0 
-8.7335 -8.585001 -4.245 -1.4985 -5.271 -9.337501 -6.4735 -4.101 -8.245501 -6.247 -5.4375 -8.336 -10.575 -5.425 -3.0405 -6.092 -7.2375 -3.637 -5.087 -5.060501 -4.6335 -7.3125 -4.122 -4.8355 -3.962 
-9.3935 -8.585001 -6.028501 -5.271 -9.567501 -9.337501 -11.5429 -8.245501 -9.885501 -10.4855 -10.4105 -14.8035 -11.755 -6.492001 -7.452 -9.4125 -8.0495 -7.3065 -5.315001 -7.736001 -8.410001 -7.986001 -6.2045 -4.8355 
-9.3935 -9.894501 -9.371 -9.567501 -9.567501 -14.4229 -15.6874 -9.885501 -14.632 -15.4585 -16.878 -15.9835 -12.822 -9.856501 -11.0967 -10.097 -11.9998 -7.859 -7.956501 -10.3745 -8.9265 -10.071 -6.2045 
-10.7505 -13.237 -13.8279 -9.567501 -14.6699 -18.5674 -17.3274 -14.632 -19.605 -21.926 -18.058 -17.0505 -16.1865 -13.8632 -11.7812 -14.0473 -12.5523 -10.286 -10.7325 -10.714 -11.1275 -10.071 
-1.934 -4.5735 -3.4795 -2.925 -2.674 -5.154 -1.756 -4.1455 -3.43 
-5.86 -7.4725 -6.194 -4.1785 -9.557 -6.1495 -5.348001 -7.469 
-7.932 -9.3985 -7.5495 -11.3357 -10.719 -10.7099 -9.278501 
-9.6685 -10.9232 -14.7977 -12.4977 -15.2794 -14.6404 
-11.2986 -18.1714 -15.9597 -17.0581 -19.2099 
-1.934 -3.5905 -5.1845 -3.1385 -5.3255 -3.115 -12.16972 -1.756 -12.16972 0 -3.5855 -12.16972 -5.3255 -3.047 -1.934 -7.044 -4.245 
-5.709 -8.0375 -7.4095 -8.817 -7.647501 -16.06032 -13.92572 -14.93432 -12.16972 -3.5855 -16.96722 -17.49522 -8.274 -5.078 -9.215 -11.8168 
-9.5465 -10.6991 -13.4644 -11.4624 -20.71642 -17.81632 -27.10404 -14.93432 -15.75522 -16.96722 -22.29272 -20.44372 -10.01 -13.0866 -14.1446 
-12.2685 -16.754 -16.1098 -24.53132 -22.47242 -30.99464 -27.10404 -18.51982 -29.13694 -22.29272 -25.24122 -22.17972 -18.8262 -18.0162 
-18.3234 -19.3994 -29.17872 -26.28732 -35.65074 -30.99464 -30.68954 -31.90154 -34.46244 -25.24122 -26.97722 -30.99592 -23.7558 
-1.4985 -3.5905 -5.1845 -3.499 -3.9875 -3.681 -1.756 -4.0435 -3.681 -4.0905 -4.9405 0 -1.756 -3.5855 -3.8685 -4.9405 -3.047 -1.4985 -3.7575 0 
-4.435 -8.0375 -9.457001 -7.732 -8.1635 -5.349 -5.541 -8.054501 -8.6215 -8.2155 -4.9405 -1.756 -5.1875 -7.919001 -10.322 -8.141001 -4.095 -4.6835 -3.7575 
-9.5755 -12.7466 -14.0226 -12.3914 -9.679001 -9.873501 -9.9455 -13.291 -12.8957 -8.2155 -6.1115 -5.1875 -9.8625 -14.8161 -13.5225 -9.442 -8.349001 -4.6835 
-14.2846 -17.3122 -18.682 -13.9069 -14.2883 -14.4712 -15.182 -17.5652 -12.8957 -9.407001 -10.3345 -9.8625 -16.903 -18.0166 -14.8235 -13.7656 -8.349001 
-18.8502 -21.9716 -20.1975 -18.5162 -18.886 -19.7077 -19.4562 -17.5652 -14.0872 -13.7716 -15.0095 -16.903 -20.1035 -19.3176 -19.1471 -13.7656 
