-4.759 
n/a 
n/a 
n/a 
n/a 
-4.759 
n/a 
n/a 
n/a 
n/a 
-4.759 
n/a 
n/a 
n/a 
n/a 
-4.759 
n/a 
n/a 
n/a 
n/a 
-8.3485 -7.211 -3.716 -7.070001 -4.397 
-9.8655 -10.985 -9.8645 -11.864 
-13.8309 -18.029 -16.4042 
-20.8749 -23.6732 
-26.5191 
-3.4155 -5.154 -7.211 0 -3.716 -3.452 0 -3.618 -4.397 
-7.2775 -10.089 -7.211 -3.716 -6.4825 -3.452 -3.618 -8.648001 
-12.5489 -10.089 -10.985 -6.4825 -6.4825 -6.834001 -8.648001 
-12.5489 -13.9742 -13.7515 -6.4825 -10.76 -12.4782 
-16.4341 -16.7407 -13.7515 -10.76 -16.4042 
-22.84772 -12.746 -4.397 0 
-36.66452 -18.3666 -4.397 
-41.21432 -18.3666 
-41.21432 
n/a 
-8.3485 -7.211 0 -3.3365 -3.452 -3.618 -3.6205 
-9.8655 -7.211 -3.3365 -7.103001 -6.834001 -7.831 
-9.8655 -11.1291 -7.103001 -10.3415 -10.5225 
-13.975 -14.8956 -10.3415 -15.4304 
-17.7415 -18.1341 -15.4304 
