-4.759 
n/a 
n/a 
n/a 
n/a 
-4.759 
n/a 
n/a 
n/a 
n/a 
-4.759 
n/a 
n/a 
n/a 
n/a 
-4.759 
n/a 
n/a 
n/a 
n/a 
-7.5605 -2.7415 -4.784 -1.756 -7.903 -7.8625 -4.8785 -1.934 -5.802 
-9.686001 -5.6175 -5.998001 -9.3365 -16.3855 -9.459001 -6.458001 -6.889 
-10.7595 -6.566 -14.8513 -17.9168 -17.982 -10.5445 -10.264 
-11.708 -15.9875 -23.4316 -19.5133 -19.0675 -14.3505 
-21.1295 -24.5678 -25.0281 -20.5988 -22.8735 
-3.0415 -2.3335 -7.5605 -2.7415 -4.784 -1.756 -4.024 -1.7695 -8.008 -4.595 0 
-4.132 -10.8415 -9.686001 -5.6175 -5.998001 -5.4565 -4.5525 -9.5635 -13.152 -4.595 
-13.29 -12.967 -10.7595 -6.566 -7.747001 -5.876 -12.8451 -15.1837 -13.152 
-15.4155 -14.0405 -11.708 -8.281501 -7.828001 -14.5608 -18.4653 -15.1837 
-16.489 -14.989 -13.4235 -8.354 -16.7506 -20.181 -18.4653 
-2.0935 -2.3335 -7.5605 -2.7415 -4.784 -1.756 -4.024 -1.7695 -1.4985 -8.008 -4.8785 0 
-4.488501 -10.8415 -9.686001 -5.6175 -5.998001 -5.4565 -4.5525 -2.7955 -9.677501 -10.147 -4.8785 
-13.5465 -12.967 -10.7595 -6.566 -7.747001 -5.876 -5.08 -10.7025 -10.676 -10.147 
-15.672 -14.0405 -11.708 -8.281501 -7.828001 -6.097 -13.6974 -11.701 -10.676 
-16.7455 -14.989 -13.4235 -8.354 -8.617001 -15.1394 -14.6959 -11.701 
-3.0415 -2.3335 -8.445001 -4.784 -1.934 -6.8505 -1.756 -4.024 -1.7695 -8.008 -4.8785 
-4.132 -11.9693 -13.9608 -5.6055 -8.5825 -8.9195 -5.4565 -4.5525 -9.5635 -10.147 
-14.4178 -17.4851 -14.7823 -13.2116 -9.920501 -12.8664 -5.876 -12.8451 -12.1787 
-19.9336 -18.3066 -22.3884 -14.5496 -13.8674 -13.2859 -14.5608 -15.4603 
-20.7551 -25.9127 -23.7264 -18.4965 -14.2869 -21.9707 -17.176 
