-4.759 
n/a 
n/a 
n/a 
n/a 
-4.759 
n/a 
n/a 
n/a 
n/a 
-4.759 
n/a 
n/a 
n/a 
n/a 
-4.759 
n/a 
n/a 
n/a 
n/a 
-4.518 -3.7455 -3.908 -1.4985 -3.8035 -3.458 -3.1715 -1.756 -3.7745 -3.5435 0 
-4.659 -8.8265 -5.3985 -5.0335 -6.914001 -6.558001 -4.562 -5.3805 -5.717 -3.5435 
-9.5745 -9.6215 -8.7915 -8.005501 -9.9455 -6.9245 -7.769001 -7.154 -5.717 
-9.85 -13.7075 -11.8963 -11.275 -10.1635 -9.715501 -8.429001 -7.154 
-14.4092 -16.8123 -15.1658 -11.493 -12.9719 -10.1495 -8.429001 
-1.4985 -3.299 -3.7455 -2.674 -1.4985 -3.519 -1.7695 -5.3235 -3.458 -1.4985 -3.1715 -3.5435 -1.756 -3.7745 -3.5435 -3.034 -3.6885 -5.299 0 
-4.5915 -5.544001 -6.9145 -3.998 -4.426001 -4.761 -6.023 -8.5525 -4.063 -3.994 -5.3835 -4.862 -5.3805 -5.717 -6.6575 -7.8585 -6.645 -5.299 
-5.933001 -8.317501 -8.226 -5.808 -5.072001 -8.144 -8.817 -9.2865 -6.5005 -6.105 -6.719501 -7.934501 -7.154 -8.8605 -11.7926 -9.7155 -6.645 
-8.397501 -10.2805 -8.978001 -5.9725 -8.687501 -10.985 -9.617001 -11.802 -8.323 -7.2805 -9.489 -8.624001 -10.3675 -13.9962 -13.6496 -9.7155 
-10.494 -11.0325 -9.047501 -9.296 -11.6525 -11.785 -12.1325 -13.6245 -8.4395 -9.844001 -9.6405 -11.9967 -15.5032 -15.8532 -13.6496 
-1.934 -4.518 -3.7455 -5.377 -1.4985 -3.6885 -3.458 -3.1715 -1.756 -3.7745 -3.5435 0 
-6.963 -4.659 -7.433001 -6.9335 -4.307 -7.056 -6.558001 -4.562 -5.3805 -5.717 -3.5435 
-7.074501 -8.218 -8.4905 -8.623501 -7.976 -10.5325 -6.9245 -7.769001 -7.154 -5.717 
-11.0939 -9.669001 -10.7331 -13.5571 -11.6423 -10.899 -9.715501 -8.429001 -7.154 
-12.5449 -11.9636 -15.6667 -17.2234 -12.0088 -13.69 -10.1495 -8.429001 
-4.518 -3.7455 -5.3235 -1.756 -3.6845 -2.985 -2.9635 0 -1.934 -1.4985 -4.461 -2.4285 -3.6885 -3.458 -1.4985 -3.1715 -1.756 -3.307 
-4.659 -9.3205 -7.523 -5.0105 -5.857 -6.3005 -2.9635 -1.934 -2.6125 -5.2755 -6.915501 -6.316 -7.056 -4.063 -3.994 -4.562 -5.912 
-10.718 -10.6355 -9.771 -6.973001 -8.344501 -6.3005 -3.8325 -2.6125 -7.554 -8.0985 -11.3574 -10.0345 -7.665 -6.5005 -5.401 -9.071501 
-12.033 -12.8835 -11.8047 -9.563001 -8.344501 -8.281501 -6.215 -7.554 -9.6855 -12.7848 -15.0759 -10.679 -10.328 -6.82 -10.031 
-14.281 -14.9172 -14.3947 -9.563001 -10.1505 -8.923 -11.6213 -9.6855 -14.8868 -16.5033 -15.7204 -13.342 -10.5635 -12.1678 
