-4.759 
n/a 
n/a 
n/a 
n/a 
-4.759 
n/a 
n/a 
n/a 
n/a 
-4.759 
n/a 
n/a 
n/a 
n/a 
-4.759 
n/a 
n/a 
n/a 
n/a 
-3.7855 0 -3.926 -3.16 -4.571 
-3.7855 -3.926 -7.252501 -8.276501 
-7.871 -7.252501 -13.1574 
-11.6639 -13.1574 
-17.5688 
-3.845 0 -3.926 -3.4605 -3.594 -3.768 
-3.845 -3.926 -7.3055 -7.4605 -5.2065 
-8.2565 -7.3055 -11.8953 -8.828501 
-12.406 -11.8953 -13.2633 
-16.9958 -13.2633 
-4.4675 0 -3.926 -3.4605 -4.571 
-4.4675 -3.926 -7.3055 -8.799 
-8.800501 -7.3055 -13.2338 
-12.5752 -13.2338 
-18.5035 
-3.717 0 -3.926 -3.4605 -3.7865 -4.571 
-3.717 -3.926 -7.3055 -8.012001 -7.718 
-6.7495 -7.3055 -12.4468 -12.4777 
-11.9282 -12.4468 -16.9125 
-17.0695 -16.9125 
