-4.759 
n/a 
n/a 
n/a 
n/a 
-4.759 
n/a 
n/a 
n/a 
n/a 
-4.759 
n/a 
n/a 
n/a 
n/a 
-4.759 
n/a 
n/a 
n/a 
n/a 
-1.934 -6.4185 -3.4795 -2.645 -4.9225 -2.4945 -3.881 -7.708 -2.0935 -8.5955 
-7.367 -6.943 -6.1205 -8.141001 -6.9525 -5.6575 -13.1114 -10.3965 -11.68 
-7.751 -9.3835 -12.3223 -9.726501 -10.76 -15.7657 -15.7999 -19.983 
-9.7135 -16.1231 -13.9078 -13.6584 -20.8682 -18.4542 -25.3864 
-17.3649 -17.7086 -17.8397 -23.7666 -23.5567 -28.0407 
-1.934 -6.4185 -3.4795 -3.3715 -3.8095 -2.7455 -1.4985 -4.4525 -1.7565 -8.5955 
-7.367 -6.943 -6.9405 -7.972 -5.564 -3.637 -4.731 -4.6715 -10.1225 
-7.751 -9.639501 -11.832 -9.5535 -6.5045 -5.9865 -4.7575 -13.7275 
-10.341 -14.5218 -13.4135 -10.255 -8.7665 -6.0045 -13.9183 
-15.2233 -16.1033 -14.115 -12.517 -8.779 -15.4291 
-3.5905 -2.95 -3.3715 -3.499 -3.881 -2.264 -3.397 -4.3755 0 
-5.809 -6.328 -6.1545 -8.073 -5.5655 -6.43 -7.989 -4.3755 
-10.1115 -8.899 -11.7201 -9.6715 -9.668 -11.5826 -7.989 
-12.6825 -14.6086 -13.3186 -13.6998 -15.3296 -11.5826 
-18.3921 -16.2071 -17.3469 -19.3614 -15.3296 
-2.3335 -3.3435 -3.3715 -4.9225 -4.0385 -1.4985 -4.5355 0 
-5.892 -6.7655 -7.0565 -9.288 -5.3245 -5.655001 -4.5355 
-9.9455 -10.733 -11.937 -10.323 -9.536 -5.655001 
-13.913 -15.6135 -12.972 -14.5345 -9.536 
-18.7935 -16.6485 -17.1835 -14.5345 
