-4.759 
n/a 
n/a 
n/a 
n/a 
-4.759 
n/a 
n/a 
n/a 
n/a 
-4.759 
n/a 
n/a 
n/a 
n/a 
-4.759 
n/a 
n/a 
n/a 
n/a 

n/a 
n/a 
n/a 
n/a 
-4.836 0 -4.359 0 -3.3425 -3.5185 -3.4605 -1.756 -5.1485 
-4.836 -4.359 -4.359 -3.3425 -7.523 -7.022 -4.9755 -6.368 
-5.643001 -4.359 -7.6775 -7.523 -11.2941 -9.1715 -10.8929 
-5.643001 -7.6775 -12.3424 -11.2941 -13.4436 -15.1791 
-9.718 -12.3424 -16.1135 -13.4436 -19.4512 
-4.836 0 -4.359 -2.4945 -3.2955 -1.7695 -3.5185 -1.756 -5.617 -3.16 -3.64 0 
-4.836 -4.359 -7.472 -4.6305 -3.9425 -4.134 -5.195 -6.7605 -9.657 -4.892 -3.64 
-5.643001 -7.472 -8.3055 -5.1225 -5.655 -5.5695 -8.55 -11.2551 -9.935 -4.892 
-9.7075 -8.3055 -8.374001 -6.839 -7.127 -9.01 -13.2206 -11.5331 -9.935 
-10.8034 -8.374001 -10.208 -8.110001 -10.374 -13.7604 -13.4986 -11.5331 
-4.836 0 -4.359 -2.186 -3.2955 -2.0935 -3.5185 -5.1465 -1.756 -3.961 0 
-4.836 -4.359 -6.652 -4.348001 -4.307 -6.8155 -8.6365 -6.748 -5.8455 -3.961 
-5.643001 -6.652 -8.206 -5.274 -9.022 -12.2125 -10.622 -11.6101 -5.8455 
-9.120001 -8.206 -9.155001 -9.8415 -14.6458 -14.198 -15.4841 -11.6101 
-10.779 -9.155001 -13.9915 -15.5855 -16.6313 -19.0601 -15.4841 
