-4.759 
n/a 
n/a 
n/a 
n/a 
-4.759 
n/a 
n/a 
n/a 
n/a 
-4.759 
n/a 
n/a 
n/a 
n/a 
-4.759 
n/a 
n/a 
n/a 
n/a 
-6.8035 -3.3195 -3.7965 -1.4985 -4.0045 -1.7565 -4.9115 -3.3195 
-7.808 -7.309 -4.8165 -4.6965 -4.606501 -5.7095 -8.653501 
-12.2603 -8.534 -7.732 -4.8345 -8.500501 -9.93 
-13.4853 -11.5695 -7.7875 -8.728001 -13.2854 
-16.5208 -11.625 -12.0128 -13.5467 
-6.8035 -3.3195 0 -4.4465 -1.756 -4.855 -4.7875 -3.3195 
-7.808 -3.3195 -4.4465 -6.2485 -6.444 -10.186 -8.365001 
-7.808 -8.727 -6.2485 -11.7163 -12.2214 -13.9571 
-13.6783 -10.8496 -11.7163 -17.4937 -15.9925 
-15.8009 -16.3174 -17.4937 -21.2648 
-8.831 -3.3195 0 -4.9115 -3.3195 -2.871 -1.7565 -1.4985 -3.9675 0 
-9.573501 -3.3195 -4.9115 -8.653501 -6.73 -3.5385 -2.4195 -5.356501 -3.9675 
-9.573501 -9.073001 -8.653501 -12.3256 -7.3545 -3.7675 -6.293 -5.356501 
-15.396 -12.924 -12.3256 -12.9501 -7.549 -8.8785 -6.293 
-19.247 -16.5961 -12.9501 -13.1446 -13.048 -8.8785 
-6.309 -3.3195 -2.186 -3.8185 -1.4985 -4.7875 -3.3195 -2.229 -3.3755 0 
-10.2925 -5.3525 -7.0375 -4.662 -5.610001 -8.365001 -6.0345 -5.4735 -3.3755 
-12.3255 -10.427 -7.512 -8.8135 -10.0535 -11.3028 -9.783501 -5.4735 
-17.4 -11.1831 -11.9849 -13.6226 -12.9913 -15.0518 -9.783501 
-18.1561 -15.656 -16.794 -16.5604 -16.7403 -15.0518 
