-4.759 
n/a 
n/a 
n/a 
n/a 
-4.759 
n/a 
n/a 
n/a 
n/a 
-4.759 
n/a 
n/a 
n/a 
n/a 
-4.759 
n/a 
n/a 
n/a 
n/a 
-8.35 -5.149 -3.948 -3.764 -4.953 -3.325 -2.664 -4.0375 -1.756 -4.931 0 
-14.0146 -9.290501 -7.123 -9.870001 -8.4385 -5.6215 -7.732 -5.5295 -6.6565 -4.931 
-18.1561 -12.6145 -13.5846 -13.6873 -11.6406 -11.3489 -9.276 -10.354 -6.6565 
-21.4801 -19.0761 -17.4019 -16.8894 -17.368 -12.8929 -14.2523 -10.354 
-27.9417 -22.8934 -20.604 -22.6168 -18.912 -17.8692 -14.2523 
-5.1845 -3.1385 -3.213 -3.894 -3.3255 -3.948 -4.0805 -1.7695 -5.083 -3.6065 -4.2665 0 
-7.4095 -6.2795 -5.22 -6.501 -6.047501 -6.679 -5.518 -5.2635 -8.182 -6.988501 -4.2665 
-10.9269 -7.284 -7.726 -8.987 -8.6175 -8.061001 -8.31 -8.297501 -9.101001 -6.988501 
-11.9314 -9.856501 -9.966001 -11.6332 -10.2485 -9.814501 -11.7074 -9.2215 -9.101001 
-14.5039 -12.3183 -12.7124 -13.2642 -12.002 -14.3841 -12.6314 -9.2215 
-8.863001 -3.918 -3.9235 -2.0935 -3.845 -1.7565 -5.62 0 
-13.365 -8.5115 -5.506001 -7.1025 -4.13 -8.045501 -5.62 
-17.9585 -10.9492 -11.414 -8.209001 -9.297001 -8.045501 
-20.3962 -16.8572 -12.5205 -13.4974 -9.297001 
-26.3042 -17.9637 -17.8089 -13.4974 
-8.27 -2.4945 -3.135 -4.5535 -1.7695 -3.613 -1.756 -9.048 -4.0805 
-9.5465 -4.575 -7.360001 -5.9235 -4.563 -5.8315 -10.2185 -13.4337 
-11.6604 -8.9385 -9.855 -9.387501 -6.1615 -15.6498 -14.828 
-16.0239 -11.8025 -13.3886 -11.2756 -16.339 -20.2593 
-18.8879 -15.3361 -15.2767 -21.4531 -20.9485 
