-4.759 
n/a 
n/a 
n/a 
n/a 
-4.759 
n/a 
n/a 
n/a 
n/a 
-4.759 
n/a 
n/a 
n/a 
n/a 
-4.759 
n/a 
n/a 
n/a 
n/a 
-4.6865 -6.2785 -3.8125 
-11.117 -10.802 
-15.6405 
n/a 
n/a 
-3.09 -3.8535 -2.5045 -1.8085 -4.156 -4.328 
-7.7495 -5.8995 -3.3625 -6.1235 -6.2095 
-9.535501 -6.626 -7.1755 -8.2655 
-10.662 -10.3545 -9.412001 
-14.3905 -12.84 
-3.1335 -5.0735 -2.3345 -4.156 -4.328 
-6.87 -6.2275 -6.4915 -6.2095 
-7.496 -9.7725 -8.0755 
-11.4114 -11.8831 
-13.522 
-3.213 -3.8535 -2.5045 -1.8085 -4.156 -4.328 
-5.626 -5.8995 -3.3625 -6.1235 -6.2095 
-7.683001 -6.626 -7.1755 -8.2655 
-8.4855 -10.3545 -9.412001 
-12.5704 -12.84 
