-4.759 
n/a 
n/a 
n/a 
n/a 
-4.759 
n/a 
n/a 
n/a 
n/a 
-4.759 
n/a 
n/a 
n/a 
n/a 
-4.759 
n/a 
n/a 
n/a 
n/a 
-3.1495 -3.8385 -1.7565 -3.9725 -1.7565 -4.455 
-7.711 -4.716001 -5.669 -4.9685 -6.1315 
-9.271 -8.029 -7.284 -8.934 
-12.542 -10.2502 -11.5797 
-14.7632 -14.5459 
-5.1195 -4.455 -2.186 -3.1435 -4.594 -3.3785 0 
-9.772501 -6.646001 -5.462 -6.844501 -7.383 -3.3785 
-12.0947 -9.869501 -8.799001 -9.969501 -7.383 
-15.3182 -13.2797 -11.9884 -9.969501 
-18.7284 -16.4691 -11.9884 
-10.889 -4.455 -2.186 -1.4985 -3.8385 -1.7565 -2.4265 0 
-11.419 -6.646001 -3.339 -4.778501 -4.716001 -4.305 -2.4265 
-15.0592 -7.858001 -6.4125 -5.202 -7.134001 -4.305 
-16.2712 -9.076501 -6.582 -7.677001 -7.134001 
-17.4897 -9.101501 -9.1435 -7.677001 
-1.4985 -4.2245 -2.186 -5.345 -4.455 0 
-5.2345 -6.195 -7.542001 -10.151 -4.455 
-7.158 -11.8108 -12.953 -10.151 
-12.8878 -17.2218 -12.953 
-18.2988 -17.2218 
