-4.759 
n/a 
n/a 
n/a 
n/a 
-4.759 
n/a 
n/a 
n/a 
n/a 
-4.759 
n/a 
n/a 
n/a 
n/a 
-4.759 
n/a 
n/a 
n/a 
n/a 
-1.934 -3.091 -3.941 -3.0365 -4.649 -4.197 
-4.2105 -6.31 -7.078 -8.376 -9.199 
-6.969 -8.907001 -13.1137 -13.0372 
-9.353001 -14.8141 -17.7749 
-15.2943 -19.4753 
-5.5885 -3.091 -3.941 -1.4985 -3.098 -2.7415 -4.649 -11.0235 
-7.263501 -6.31 -5.912 -4.3095 -5.572001 -7.696501 -16.2945 
-10.8655 -7.765 -8.8885 -6.4585 -8.719501 -19.5794 
-12.3205 -10.1675 -10.647 -10.4048 -20.6988 
-14.723 -11.8816 -14.5933 -22.3841 
-1.7695 -5.2605 -3.595 0 -1.4985 -3.5015 -2.7415 -3.9205 -2.5045 0 -4.649 -12.16972 0 
-6.265 -7.6975 -3.595 -1.4985 -4.737 -5.962 -5.733 -4.449 -2.5045 -4.649 -17.44072 -12.16972 
-8.1195 -7.6975 -5.0915 -4.737 -6.3955 -8.571 -6.186501 -4.449 -7.328501 -17.44072 -17.44072 
-8.1195 -9.369 -8.1505 -6.3955 -8.8125 -8.8035 -6.186501 -8.698501 -20.35142 -17.44072 
-9.594 -12.4994 -9.207001 -8.8125 -9.043 -8.8035 -10.1985 -21.82982 -20.35142 
-1.4985 -3.5015 -3.3155 -2.9805 -2.7415 -4.992 -2.7415 -3.849 -2.5045 -4.649 -4.197 
-4.737 -5.1555 -4.773 -4.004 -6.014 -8.287001 -5.431 -6.305 -7.328501 -9.199 
-5.664001 -6.7425 -5.6195 -6.620501 -8.9195 -10.5225 -7.509501 -10.564 -12.1097 
-7.058001 -7.685 -8.091001 -9.731001 -11.2626 -12.601 -12.2563 -15.3452 
-7.859 -9.5155 -10.142 -12.1415 -13.3411 -17.3478 -17.0375 
