-4.759 
n/a 
n/a 
n/a 
n/a 
-4.759 
n/a 
n/a 
n/a 
n/a 
-4.759 
n/a 
n/a 
n/a 
n/a 
-4.759 
n/a 
n/a 
n/a 
n/a 
-8.171 -5.2725 -7.4885 -3.6215 -4.642 -4.153 
-11.117 -13.5126 -10.6475 -8.554001 -6.7015 
-19.3571 -16.6716 -15.58 -9.590501 
-22.5161 -21.6041 -16.6165 
-27.4486 -22.6406 
-1.934 -4.8835 -4.153 -12.16972 -4.384 -7.4885 0 
-6.685 -6.8875 -17.20532 -16.55372 -12.7861 -7.4885 
-8.626501 -20.54202 -21.58932 -24.95582 -12.7861 
-22.62582 -24.92602 -29.99142 -24.95582 
-27.00982 -33.32812 -29.99142 
-1.934 -4.642 -4.153 0 -8.171 -5.2725 -1.4985 -7.4885 
-6.748 -6.7015 -4.153 -8.171 -11.117 -6.1685 -8.1875 
-8.505501 -6.7015 -11.136 -11.117 -12.013 -10.513 
-8.505501 -14.4081 -14.082 -12.013 -16.3575 
-16.4469 -17.3541 -14.978 -16.3575 
-1.934 -4.8835 -4.153 -8.171 -3.9955 -7.4885 0 
-6.685 -6.8875 -11.136 -12.6757 -12.9766 -7.4885 
-8.626501 -14.4727 -15.6407 -21.6568 -12.9766 
-16.5565 -18.9774 -24.6218 -21.6568 
-21.0612 -27.9585 -24.6218 
