-4.759 
n/a 
n/a 
n/a 
n/a 
-4.759 
n/a 
n/a 
n/a 
n/a 
-4.759 
n/a 
n/a 
n/a 
n/a 
-4.759 
n/a 
n/a 
n/a 
n/a 
-1.4985 -4.197 -4.509 -3.8125 -4.6785 -2.356 -1.4985 -4.1865 -4.5605 -1.756 -1.4985 -4.1865 -4.862 -3.6215 0 -1.756 -2.186 -4.0955 -4.877 -2.3345 -1.8085 -4.9785 -4.1445 -1.7565 -1.4985 -4.2315 -1.7565 -9.7325 -3.8735 -2.229 -4.197 
-5.2175 -5.272 -8.387501 -6.1735 -5.3275 -3.1615 -5.177 -7.1365 -5.9695 -3.0405 -5.177 -7.903 -7.320001 -3.6215 -1.756 -3.986 -4.968 -8.524 -5.7435 -3.8605 -6.513 -6.795001 -5.2675 -2.4195 -5.138 -5.151 -8.595 -11.444 -5.3655 -5.9005 
-6.0255 -9.105 -9.796 -6.1865 -5.854 -6.849501 -7.5375 -8.369 -6.7645 -6.586 -8.788501 -9.724501 -7.320001 -5.3685 -3.986 -6.5295 -9.3365 -8.712 -6.6265 -8.262501 -7.46 -8.381001 -5.647 -7.065501 -5.1885 -10.0305 -13.3832 -13.9192 -9.0755 
-9.3655 -9.915501 -9.802501 -6.6545 -9.141001 -8.8885 -8.7065 -9.193 -9.5935 -10.4585 -10.0995 -9.724501 -8.562501 -7.239501 -6.5295 -10.5425 -9.481501 -9.05 -10.434 -9.0915 -8.997001 -8.740001 -8.2615 -7.5895 -8.777 -14.4974 -15.4234 -17.6292 
-10.0785 -9.9245 -10.1405 -10.071 -11.4162 -9.822001 -9.262501 -9.8405 -14.0754 -11.7695 -10.0995 -11.3208 -10.419 -9.9805 -10.5425 -10.651 -9.707001 -13.0033 -10.599 -10.5435 -9.700001 -11.8451 -8.2795 -10.28 -14.9564 -16.6554 -19.1334 
0 -3.402 -2.264 -8.9305 -4.982 0 -2.4265 -2.186 -2.645 -3.1575 -4.5935 -1.7565 -3.291 -2.7035 -4.4665 -4.194 
-3.402 -3.793 -11.374 -13.712 -4.982 -2.4265 -3.292 -4.528 -3.72 -8.145 -5.0835 -5.67 -6.0865 -7.759 -8.703501 
-3.793 -13.1873 -17.068 -13.9072 -7.237 -3.292 -5.5105 -5.2425 -8.7885 -8.3465 -9.4505 -8.861 -12.0692 -12.7694 
-13.0387 -18.1399 -17.068 -16.1712 -7.68 -5.5105 -6.3755 -9.8205 -8.876 -13.1315 -12.8929 -15.3249 -17.0796 
-18.1399 -18.1399 -19.332 -16.6142 -9.724001 -6.3755 -11.2429 -9.8435 -14.2614 -16.5739 -19.3568 -20.3353 

n/a 
n/a 
n/a 
n/a 
0 -3.836 -1.934 -5.6125 -4.197 0 -2.3615 -2.186 -3.291 -4.0155 -3.931 -1.934 -3.518 -3.922 0 
-3.836 -5.608 -8.227 -10.6095 -4.197 -2.3615 -3.5005 -5.897 -6.149 -8.953501 -5.505 -6.345 -7.4195 -3.922 
-5.608 -12.748 -13.5562 -10.6095 -6.6135 -3.5005 -7.8755 -10.647 -12.4762 -10.0965 -9.760501 -10.66 -7.4195 
-12.748 -18.0772 -13.5562 -13.7174 -7.403 -7.8755 -12.9963 -16.9742 -13.6192 -14.918 -14.0857 -10.66 
-18.0772 -18.0772 -16.6641 -14.5069 -11.9604 -12.9963 -19.3235 -18.1172 -18.4407 -19.2432 -14.0857 
