-4.759 
n/a 
n/a 
n/a 
n/a 
-4.759 
n/a 
n/a 
n/a 
n/a 
-4.759 
n/a 
n/a 
n/a 
n/a 
-4.759 
n/a 
n/a 
n/a 
n/a 
-3.8735 -2.229 -3.5085 -3.4075 -3.8935 -2.8645 -4.518 -5.412 -5.3505 -4.3515 0 
-5.3655 -5.5445 -7.0425 -7.35 -6.3605 -5.706 -10.9782 -9.8505 -6.4275 -4.3515 
-7.9575 -8.9515 -8.869 -9.502501 -8.5935 -12.6786 -15.4167 -11.0213 -6.4275 
-10.6095 -10.9768 -11.1609 -11.7721 -15.6407 -17.1171 -16.5875 -11.0213 
-12.6348 -13.2687 -13.4305 -18.8193 -20.0792 -18.2879 -16.5875 
-3.5085 -3.4075 -3.898 -3.6395 -1.7565 -3.8735 -2.186 -4.518 -5.412 -5.3505 -4.3515 0 
-7.0425 -7.382501 -5.4665 -4.6145 -5.112 -5.949 -5.766 -10.9782 -9.8505 -6.4275 -4.3515 
-10.1185 -8.17 -6.092 -9.028501 -7.035501 -10.575 -12.4106 -15.4167 -11.0213 -6.4275 
-11.1286 -8.510501 -9.384501 -10.1345 -11.7555 -17.2196 -16.8491 -16.5875 -11.0213 
-11.4691 -12.4642 -10.6409 -14.8545 -18.4001 -21.6581 -18.0199 -16.5875 
-3.8735 -3.5085 -4.101 -3.59 -9.31 -5.3505 -4.3515 -1.7695 -4.2615 
-7.6435 -7.0465 -8.873001 -14.3171 -14.9751 -6.4275 -5.7045 -4.7355 
-11.7289 -12.8561 -20.3541 -19.303 -16.1459 -7.7685 -8.7135 
-17.5385 -24.3372 -24.7926 -20.4738 -17.4869 -11.1737 
-29.0196 -28.7757 -25.9634 -21.8148 -20.8921 
-3.8735 -2.229 -4.63 -4.326 -3.3855 -3.4775 -2.186 -4.518 -5.412 -10.6015 0 
-5.3655 -6.243001 -5.88 -5.8915 -7.059 -4.962 -5.766 -10.9782 -16.5953 -10.6015 
-8.635 -6.9045 -5.915 -9.4405 -8.738001 -7.718 -12.4106 -22.1615 -16.5953 
-8.722501 -6.913001 -9.4645 -11.7451 -11.584 -14.5536 -23.5939 -22.1615 
-8.737 -10.8985 -11.7833 -14.5911 -18.4196 -25.7369 -23.5939 
