-4.759 
n/a 
n/a 
n/a 
n/a 
-4.759 
n/a 
n/a 
n/a 
n/a 
-4.759 
n/a 
n/a 
n/a 
n/a 
-4.759 
n/a 
n/a 
n/a 
n/a 
-3.634 -3.326 -3.8535 -1.934 -1.4985 -3.6135 -4.1115 -4.6525 -2.3335 0 -3.5065 -1.4985 -3.8665 -5.473 -3.6615 -1.934 -3.5455 -4.4935 -1.756 -4.1385 -3.892 -2.742 -5.011 -4.2065 -1.4985 -6.03 -4.7425 0 -3.1435 -3.818 -2.3335 -3.6605 -4.7425 -2.742 -2.6165 -4.157 -1.934 -1.4985 -3.291 -4.6915 0 0 
-5.944 -6.543 -5.002 -2.6125 -4.4525 -6.951 -8.988501 -7.0255 -2.3335 -3.5065 -4.358 -4.915 -8.103001 -6.1595 -4.437 -4.8495 -5.777 -6.1145 -5.779 -5.85 -6.395 -7.066 -7.7025 -4.732 -7.2965 -7.951 -4.7425 -3.1435 -6.16 -5.403 -6.243 -4.8735 -6.917 -3.995 -6.677 -5.719 -2.6125 -3.9665 -5.92 -4.6915 0 
-8.2675 -7.484001 -5.5605 -5.706 -8.095 -12.4606 -11.7885 -7.0255 -5.5725 -4.358 -8.0695 -9.072001 -9.496 -7.985 -7.990001 -7.617001 -7.126 -7.0485 -7.222 -8.0465 -10.575 -8.939501 -8.173 -9.4215 -9.360001 -7.951 -8.102501 -6.16 -7.370501 -9.143001 -6.5975 -7.011001 -8.401 -10.181 -7.5755 -6.3945 -4.871 -5.956 -5.92 -4.6915 
-9.512501 -7.9845 -8.8555 -9.191501 -14.0034 -15.2606 -11.7885 -10.0505 -6.193501 -8.0695 -12.2403 -10.703 -10.759 -10.0375 -8.5585 -9.382501 -8.798 -10.064 -9.519001 -12.4177 -12.4485 -9.252501 -13.0521 -11.6174 -9.360001 -11.8584 -10.7175 -7.370501 -11.2499 -9.568001 -7.815001 -8.463 -14.939 -11.0795 -8.321 -8.9135 -6.689 -5.956 -5.92 
-10.039 -11.6355 -12.5468 -15.2771 -16.8034 -15.2606 -14.8135 -10.4315 -9.7705 -12.2403 -13.8713 -11.966 -12.8115 -10.8078 -11.2278 -11.1869 -11.9741 -12.575 -13.9538 -14.2912 -12.7615 -14.2674 -15.248 -11.6174 -13.4406 -14.4734 -11.928 -11.2499 -11.6749 -10.76 -9.340501 -15.0252 -15.8375 -11.825 -10.9554 -10.6095 -6.689 -5.956 
-3.9345 -1.7695 -1.8085 -3.634 -3.6645 0 -2.9705 -3.7965 -4.1885 -2.264 -3.6135 -4.1115 -4.8285 0 -2.4265 -2.7765 -2.489 -4.1315 -2.3335 -3.6605 -4.7425 -2.882 -2.6165 -3.922 -3.5455 -1.4985 -3.291 -4.153 -2.5045 -4.593 -2.925 -1.7565 -6.03 -2.742 -12.16972 -4.13 -3.277 0 
-3.94 -3.41 -4.948 -5.876 -3.6645 -2.9705 -5.034 -7.8525 -5.972001 -5.948 -6.951 -7.444 -4.8285 -2.4265 -4.346 -3.495 -5.1985 -5.608 -6.243 -4.8735 -7.205501 -4.008 -6.0445 -6.7425 -3.91 -3.9665 -6.488 -6.3785 -7.3005 -6.231501 -4.898 -6.7945 -10.0545 -16.76192 -16.29972 -7.6595 -3.277 
-5.034 -6.033 -5.973001 -5.876 -6.1165 -5.034 -9.189001 -9.3085 -10.0005 -10.3605 -10.9161 -7.444 -7.217501 -4.346 -4.728 -5.9785 -6.5705 -9.226001 -6.5975 -7.291 -8.5235 -7.4795 -8.244 -7.0585 -5.917 -6.554 -8.236501 -11.5671 -9.309 -8.309001 -10.31 -11.3262 -24.17542 -20.89192 -19.82922 -7.6595 
-6.190001 -6.7485 -5.973001 -8.147 -7.988501 -9.189001 -10.5045 -13.4512 -14.4916 -14.3256 -10.9161 -9.992001 -8.5185 -4.728 -7.1615 -7.2685 -10.233 -9.967501 -8.285001 -8.627001 -12.6686 -10.298 -8.559 -8.3245 -8.117001 -8.2535 -13.4779 -13.5756 -11.6281 -14.268 -14.8417 -25.44712 -28.30542 -24.42142 -19.82922 
-6.764 -6.7485 -8.302501 -10.3294 -12.3173 -10.5045 -14.6472 -17.9423 -18.4567 -14.3256 -13.4641 -11.347 -8.902 -7.1615 -7.28 -10.9872 -10.9745 -11.9222 -9.3985 -12.8795 -15.4871 -10.5525 -10.419 -9.836 -9.8065 -13.4989 -15.4864 -15.8947 -17.5871 -18.7997 -28.96262 -29.57712 -31.83492 -24.42142 
-3.5455 -1.7565 -4.4935 -1.756 -4.1385 -1.7695 -4.2485 -1.7695 -3.9035 -1.7565 -3.8665 -4.126 -1.7565 -4.4895 -1.7565 -4.5205 -1.7695 -3.5795 -1.7565 -3.9005 0 
-5.076 -6.314001 -6.1145 -5.779 -6.81 -6.549 -6.2815 -6.443501 -4.616 -4.9325 -8.2065 -5.221001 -5.9925 -8.0445 -6.3285 -6.43 -4.6205 -7.125 -5.5045 -3.9005 
-8.672501 -8.115001 -7.0485 -8.887501 -12.0489 -8.9445 -10.5745 -6.7675 -8.6195 -10.0455 -8.9165 -10.089 -9.889501 -12.9849 -8.0895 -8.754001 -8.660501 -10.4265 -5.5045 
-11.3091 -8.913001 -9.564501 -14.2052 -14.4444 -13.2535 -10.593 -11.001 -13.8901 -10.7555 -13.9777 -13.986 -14.9947 -14.7459 -10.9503 -13.7846 -12.2134 -10.4265 
-12.1071 -11.4294 -14.9036 -16.6007 -18.7534 -13.272 -15.9857 -16.2716 -14.6001 -15.8167 -17.8747 -19.0912 -16.7557 -17.6067 -15.9809 -17.3375 -12.2134 
-5.473 -3.6615 -5.68 -1.934 -3.5455 -4.4935 -1.756 -4.1385 -4.7285 -4.418 -12.16972 -2.742 -4.2065 -1.4985 -4.7425 -5.011 -2.5045 -4.4175 -2.3345 -1.8085 -4.3355 -3.741 -3.326 -2.742 -2.6165 -3.922 -1.4985 -3.6605 -4.7425 -1.934 -3.291 -4.153 0 
-6.1595 -10.1225 -8.292001 -4.8495 -5.777 -6.1145 -5.779 -9.491001 -8.980501 -17.55492 -14.91172 -5.714 -4.732 -6.553 -9.453501 -7.455501 -5.5015 -6.194 -3.8605 -7.4965 -7.8105 -7.196 -6.06 -3.995 -6.0445 -4.7665 -4.6365 -4.8735 -6.601 -5.752 -6.488 -4.153 
-13.7045 -12.6785 -11.5487 -7.617001 -7.126 -7.0485 -11.9285 -14.1328 -22.22082 -20.29692 -17.88372 -6.095 -9.357 -12.0574 -12.7168 -10.7595 -6.668 -7.9025 -10.1345 -11.3835 -11.9627 -10.085 -7.843 -6.8245 -6.5515 -8.081 -6.350501 -6.815001 -10.3745 -9.2345 -6.488 
-16.2605 -15.9352 -14.3162 -9.382501 -8.798 -14.0664 -16.5703 -27.37312 -24.96282 -23.26892 -18.26472 -10.5425 -15.0576 -15.3207 -16.0208 -11.926 -8.42 -14.4387 -14.0215 -15.5357 -14.8517 -12.0672 -10.6465 -7.330501 -9.9835 -9.903001 -8.873 -10.523 -13.857 -9.2345 
-19.5172 -18.7027 -16.0817 -11.1869 -15.9765 -18.7082 -29.81062 -30.11512 -27.93482 -23.64992 -22.71222 -16.2431 -18.3209 -18.6247 -17.1873 -13.678 -15.0832 -18.3257 -18.1737 -18.4247 -16.8339 -14.8707 -11.1525 -11.0263 -11.9019 -12.4255 -12.737 -14.0055 -13.857 
