-4.759 
n/a 
n/a 
n/a 
n/a 
-4.759 
n/a 
n/a 
n/a 
n/a 
-4.759 
n/a 
n/a 
n/a 
n/a 
-4.759 
n/a 
n/a 
n/a 
n/a 
-3.9985 0 -7.601 -8.4475 0 -3.6675 -3.251 -4.7115 0 
-3.9985 -7.601 -9.494 -8.4475 -3.6675 -6.282001 -8.526 -4.7115 
-10.688 -9.494 -9.494 -12.5708 -6.282001 -9.042001 -8.526 
-12.581 -9.494 -13.6617 -15.1853 -9.042001 -9.042001 
-12.581 -13.6617 -16.2762 -17.9453 -9.042001 
-3.9985 0 -7.601 -8.4475 0 -3.941 -4.7115 0 
-3.9985 -7.601 -9.494 -8.4475 -3.941 -7.7965 -4.7115 
-10.688 -9.494 -9.494 -12.8443 -7.7965 -7.7965 
-12.581 -9.494 -13.9352 -16.6998 -7.7965 
-12.581 -13.9352 -17.7907 -16.6998 
-3.9985 -7.601 -8.4475 0 -5.08 -4.7115 0 
-10.688 -9.494 -8.4475 -5.08 -7.349501 -4.7115 
-12.581 -9.494 -13.9833 -7.349501 -7.349501 
-12.581 -15.0742 -16.2528 -7.349501 
-18.1612 -17.3437 -16.2528 
-3.9985 -7.601 -8.4475 0 -5.08 -4.7115 0 
-10.688 -9.494 -8.4475 -5.08 -7.349501 -4.7115 
-12.581 -9.494 -13.9833 -7.349501 -7.349501 
-12.581 -15.0742 -16.2528 -7.349501 
-18.1612 -17.3437 -16.2528 
