-4.759 
n/a 
n/a 
n/a 
n/a 
-4.759 
n/a 
n/a 
n/a 
n/a 
-4.759 
n/a 
n/a 
n/a 
n/a 
-4.759 
n/a 
n/a 
n/a 
n/a 
-3.7555 -2.3615 -3.098 -1.934 -5.564 0 
-5.523 -5.7775 -5.081 -6.9355 -5.564 
-8.5225 -7.4385 -10.3745 -6.9355 
-9.9585 -13.0266 -10.3745 
-15.7418 -13.0266 
-5.564 0 -2.3615 -3.098 -2.7415 -3.7855 
-5.564 -2.3615 -5.7775 -5.572001 -5.209001 
-8.509501 -5.7775 -7.292 -7.478001 
-12.0061 -7.292 -8.3585 
-13.5206 -8.3585 
-1.934 -5.564 0 -2.3615 -3.098 -2.7415 -4.3285 
-6.9355 -5.564 -2.3615 -5.7775 -5.572001 -6.083 
-6.9355 -8.509501 -5.7775 -7.292 -9.2005 
-9.0325 -12.0061 -7.292 -10.134 
-12.5635 -13.5206 -10.134 
-1.934 -5.564 -2.3615 -3.098 -2.186 -4.3285 
-6.9355 -8.509501 -5.7775 -4.7005 -5.679501 
-9.0325 -12.0061 -6.727 -8.3035 
-12.5635 -12.9556 -10.0505 
-13.513 -16.2791 
