-4.759 
n/a 
n/a 
n/a 
n/a 
-4.759 
n/a 
n/a 
n/a 
n/a 
-4.759 
n/a 
n/a 
n/a 
n/a 
-4.759 
n/a 
n/a 
n/a 
n/a 
-5.2545 -1.934 -3.091 -3.912 -4.4725 -2.8645 -4.4155 -2.3335 -3.091 -3.833 -2.186 -1.4985 -3.815 -3.7855 -1.7695 -3.091 -4.706 -2.229 -4.7275 -5.645 -2.186 -4.065 -2.3335 -9.67 -3.7905 -1.8085 -3.836 -3.705 -4.1445 -2.5045 -3.091 -4.235 -3.757 -4.1085 -3.595 -1.7695 -2.489 
-7.0515 -4.2105 -7.568501 -7.344501 -7.885 -6.6325 -5.6635 -4.9605 -6.321 -6.195001 -3.339 -5.1705 -7.420501 -4.793 -4.458 -6.035501 -5.7425 -6.392 -11.3237 -8.0115 -5.835 -5.8705 -10.634 -13.6013 -4.255 -7.024 -4.8575 -7.514501 -6.47 -5.2025 -5.1065 -7.311501 -5.727 -6.3875 -4.634 -3.1405 
-8.159 -8.496501 -8.9455 -10.6095 -11.991 -7.5695 -7.7525 -8.5605 -9.0135 -7.276501 -6.8255 -8.514501 -7.737 -7.304501 -7.423501 -6.906 -9.876 -13.4 -13.6902 -11.8835 -7.440001 -14.8034 -14.5653 -14.0658 -10.6283 -7.8455 -8.384001 -9.822001 -8.951 -6.960001 -8.385 -8.8 -8.432501 -6.5495 -5.831 
-12.8732 -9.407001 -12.3343 -14.7155 -12.928 -9.4305 -11.5589 -11.5524 -10.096 -10.9952 -9.490001 -8.887501 -10.3345 -10.426 -8.116501 -11.2493 -16.884 -15.7665 -17.5622 -13.4885 -16.3893 -18.7347 -15.0298 -20.4391 -11.4498 -11.751 -10.5855 -12.5104 -10.8561 -10.0105 -9.6945 -10.004 -8.5755 -7.4325 
-13.7837 -12.8596 -16.4403 -15.6525 -14.789 -13.3541 -14.5508 -12.6349 -13.8147 -13.6597 -9.808001 -11.8054 -13.456 -11.119 -12.742 -18.2573 -19.2505 -19.6385 -19.1672 -22.4378 -20.3206 -19.1992 -21.4031 -21.2606 -15.3553 -13.9525 -13.2739 -14.4155 -13.9066 -11.32 -10.251 -10.015 -9.063001 
-2.9805 -3.998 -1.4985 -6.386 -1.934 -3.6645 -2.186 -1.4985 -3.815 -2.9805 -2.8645 -3.7855 -1.7695 -5.115 -6.251 0 -2.5045 -3.091 -4.235 -4.331 -3.595 -3.6245 -4.3195 -2.5045 -1.8085 -3.705 -4.1445 -2.9705 -3.7285 -7.647 0 -2.3615 -5.2545 -4.6505 -1.934 -3.091 -5.557 
-5.516 -5.36 -7.0515 -7.5055 -6.178 -5.486 -3.339 -5.1705 -7.073 -4.3245 -5.325 -4.793 -7.413001 -12.3978 -6.251 -2.5045 -5.2025 -5.1065 -7.537 -6.7085 -6.283501 -7.7025 -6.9885 -3.3625 -5.219501 -7.514501 -7.3805 -6.459001 -9.512 -7.647 -2.3615 -8.3915 -9.2995 -5.5835 -4.2105 -6.7075 
-6.5955 -10.4115 -8.507501 -12.1469 -9.036 -6.6125 -6.8255 -7.8595 -8.034 -6.4615 -6.841 -9.359 -14.9822 -12.3978 -8.385 -5.2025 -6.960001 -8.5625 -8.6945 -9.1885 -10.5793 -10.228 -8.16 -6.547501 -8.0235 -10.7495 -11.1596 -12.8515 -9.512 -9.925501 -8.3915 -12.5463 -10.514 -7.6045 -7.065001 
-11.8104 -11.8675 -13.3041 -15.0049 -10.181 -10.4942 -9.4245 -8.783501 -8.75 -7.626501 -11.875 -17.0652 -14.9822 -14.5318 -11.3992 -6.960001 -10.329 -8.953 -11.9363 -13.5917 -13.1048 -11.3995 -11.686 -9.3715 -11.9757 -14.5286 -17.5521 -12.8515 -11.8019 -16.2281 -12.5463 -13.7608 -12.535 -9.3085 
-13.2664 -16.6641 -16.1621 -16.1499 -14.0627 -13.0932 -10.4435 -9.111501 -9.461 -12.7861 -19.5812 -17.0652 -17.1162 -17.546 -13.1567 -10.329 -10.658 -12.4056 -16.3395 -16.1172 -14.2763 -14.9255 -14.51 -13.6341 -15.7548 -20.9211 -17.5521 -15.1414 -18.1045 -20.3829 -13.7608 -15.7818 -14.239 
-1.934 -3.091 -4.4725 -2.9805 -4.4155 -4.3465 -3.815 -2.0935 -4.706 -2.5045 -4.23 -1.934 -3.833 -3.091 -4.235 -4.838 -2.7455 -1.7695 -3.7905 -2.5045 -1.8085 -4.758 -4.1445 0 -3.0415 -2.9805 -4.3195 -1.7695 -4.7595 -3.091 -4.345 
-4.2105 -6.8905 -7.1415 -6.335501 -9.0825 -9.032501 -5.4865 -6.35 -7.2145 -6.5045 -6.0855 -6.2365 -7.224501 -5.1065 -8.025001 -6.278501 -4.8235 -4.482 -6.375 -3.3625 -7.552501 -10.181 -4.1445 -3.0415 -5.0885 -5.4865 -7.199 -5.782001 -7.905 -6.219501 
-7.6235 -8.6215 -11.1209 -11.2787 -14.0193 -10.9408 -7.725501 -8.9965 -11.7495 -8.2355 -10.001 -10.3885 -9.368 -8.976501 -9.5775 -9.040001 -6.73 -7.171 -7.5845 -9.514501 -13.3045 -10.181 -7.316 -5.0885 -7.7545 -8.479 -11.5267 -8.4805 -11.3381 
-9.231501 -12.6591 -16.0641 -16.2155 -15.9276 -13.1798 -10.553 -13.8135 -13.4805 -12.294 -14.153 -12.532 -13.3008 -10.7014 -12.4136 -11.6373 -9.18 -8.513 -14.1827 -15.2665 -13.3045 -13.3525 -8.7235 -7.7545 -10.674 -12.9913 -14.2252 -12.4246 
-13.2129 -17.6023 -21.0009 -18.1238 -18.1666 -16.0073 -15.37 -15.5445 -17.539 -16.446 -16.2965 -16.4648 -15.0257 -13.5375 -15.0109 -14.0873 -10.718 -15.197 -19.9347 -15.2665 -16.476 -14.76 -11.6001 -10.674 -15.1863 -15.6898 -18.1693 
-1.934 -3.091 -3.766 -3.718 -8.721001 -4.6505 -2.7455 -3.091 -4.235 -4.345 -1.7565 -3.115 -2.664 -4.1445 -3.115 -3.595 0 -1.756 -3.074 -2.9805 -4.1585 -2.7455 -3.091 -4.235 -4.504 -3.595 0 -1.756 -2.9805 -4.7785 -2.7455 -2.6165 -3.8535 -3.091 -5.115 -4.345 0 
-4.2105 -6.377 -8.7185 -13.341 -13.5479 -7.1545 -5.024 -5.1065 -9.212 -5.416 -5.547 -5.1145 -5.552 -8.061001 -5.7225 -3.595 -1.756 -4.566 -6.274 -5.319 -6.271 -5.024 -5.1065 -8.5825 -6.922 -3.595 -1.756 -4.3555 -7.8725 -7.634501 -5.8665 -5.685 -6.6655 -6.9425 -9.039001 -4.345 
-7.674001 -12.1779 -18.5147 -18.1679 -16.0519 -8.877501 -7.028 -10.513 -10.4515 -9.1485 -7.2835 -8.530001 -9.045 -9.913 -5.7225 -4.8 -4.566 -7.5695 -8.4495 -7.9075 -7.6025 -7.028 -9.210501 -9.3415 -6.922 -4.8 -4.3555 -9.437 -11.3683 -10.6875 -10.5225 -8.235001 -11.1212 -9.836 -9.039001 
-13.5875 -21.9741 -23.3416 -20.6719 -17.7749 -10.647 -12.8037 -11.7525 -14.184 -10.382 -10.8448 -12.202 -10.298 -9.913 -6.9055 -7.453001 -7.5695 -9.786501 -11.488 -8.8005 -9.484 -11.5012 -9.5115 -9.3415 -8.344001 -5.8595 -9.437 -13.118 -14.4213 -15.3435 -13.0725 -13.0457 -14.0147 -9.836 
-23.3837 -26.801 -25.8456 -22.3949 -19.5444 -16.4227 -14.0432 -15.485 -15.4175 -14.7523 -14.5168 -13.455 -10.298 -11.1602 -9.456501 -9.341001 -9.786501 -12.5976 -12.381 -10.4105 -14.2506 -11.8022 -9.5115 -10.5545 -9.52 -11.183 -13.118 -16.171 -19.0773 -17.8935 -17.8832 -15.9392 -14.0147 
