-4.759 
n/a 
n/a 
n/a 
n/a 
-4.759 
n/a 
n/a 
n/a 
n/a 
-4.759 
n/a 
n/a 
n/a 
n/a 
-4.759 
n/a 
n/a 
n/a 
n/a 
-3.1435 -3.8225 -3.3755 -1.7565 -4.628 -4.743 -1.756 -2.5685 -3.959 0 
-6.3885 -6.5465 -4.5295 -6.107501 -4.7515 -6.5275 -4.2335 -5.5195 -3.959 
-10.442 -7.149001 -9.906 -6.281001 -6.535501 -9.238501 -7.715 -5.5195 
-11.0445 -13.0015 -10.208 -7.494501 -9.2635 -12.8964 -7.715 
-16.897 -13.3035 -11.4215 -9.8605 -12.9048 -12.8964 
-2.3615 0 -2.3615 -3.8225 -4.273 -2.0935 -4.743 -1.756 -2.5685 -3.959 
-2.3615 -2.3615 -6.413 -6.833 -5.392 -8.6115 -6.5275 -4.2335 -5.5195 
-5.482 -6.413 -9.123501 -8.217501 -12.5006 -10.3965 -9.238501 -7.715 
-10.1635 -9.123501 -10.758 -15.4957 -14.2856 -13.1075 -12.8964 
-12.874 -10.758 -18.0362 -17.2807 -16.9966 -16.7654 
-2.3615 -3.3755 -2.186 -3.3785 -2.0935 -6.899 -1.756 -2.5685 -3.959 
-4.8525 -5.5045 -6.258 -5.706 -8.9865 -9.344501 -4.2335 -5.5195 
-6.58 -10.1305 -8.408 -13.5492 -11.5114 -11.9776 -7.715 
-11.3744 -12.2805 -16.6314 -16.0741 -14.1445 -15.4591 
-13.5244 -20.5039 -19.1563 -18.7072 -17.626 
-2.3615 -2.186 -1.4985 -3.3785 -3.3755 -2.0935 -2.5685 -3.959 -3.5005 -4.628 -4.743 0 
-3.5005 -3.339 -4.4495 -6.7705 -4.9855 -3.987 -5.5195 -5.998 -8.256001 -4.7515 -4.743 
-4.3105 -6.402 -7.986501 -8.234501 -7.089001 -6.6875 -7.8125 -8.901 -8.3985 -4.7515 
-7.3755 -8.8985 -10.138 -9.660001 -9.739 -8.836 -11.1067 -8.905001 -8.3985 
-9.5895 -11.4744 -11.7087 -12.361 -12.0667 -12.317 -11.1107 -8.905001 
