-4.759 
n/a 
n/a 
n/a 
n/a 
-4.759 
n/a 
n/a 
n/a 
n/a 
-4.759 
n/a 
n/a 
n/a 
n/a 
-4.759 
n/a 
n/a 
n/a 
n/a 
-2.9705 -4.031 -2.3585 -3.013 -2.6165 -2.3335 -3.213 -2.3585 -3.013 0 
-7.175501 -5.7075 -4.239 -3.724 -4.9205 -5.2935 -5.4815 -4.239 -3.013 
-8.909501 -7.35 -4.5815 -7.504001 -8.966001 -7.8325 -6.712 -4.239 
-11.0542 -7.4505 -8.582001 -11.9071 -11.6496 -9.5635 -6.712 
-11.1547 -11.9274 -13.1945 -14.5907 -13.3806 -9.5635 
-2.3585 -3.5095 -2.3085 -3.013 -5.651501 -3.013 -2.3615 0 -2.872 -2.5235 -4.3585 -2.186 -5.3365 -3.013 -2.3335 -1.934 -3.739 0 -6.7705 0 
-4.339 -4.745501 -4.295 -8.529501 -7.033 -4.620501 -2.3615 -2.872 -5.4735 -6.6225 -6.382 -6.4845 -9.1125 -4.7735 -4.468 -5.3175 -3.739 -6.305 -6.305 
-5.8745 -7.0185 -9.074 -11.1545 -9.508 -4.620501 -5.2565 -5.4735 -9.3435 -8.832001 -11.3093 -10.151 -11.4412 -6.3265 -6.988501 -5.3175 -10.9745 -6.305 
-8.0635 -11.1657 -10.3345 -11.559 -10.089 -6.3335 -7.783 -9.3435 -11.8518 -13.9435 -14.9758 -12.6431 -12.9942 -8.846001 -6.988501 -12.8189 -10.9745 
-12.4107 -13.0567 -11.2975 -10.7515 -11.676 -9.041 -11.8776 -11.8518 -16.9633 -17.61 -17.4679 -14.1961 -15.5137 -8.846001 -14.8069 -12.8189 
-2.5235 -4.807 -2.742 -5.886 -2.3585 -1.7695 -3.013 -2.9705 -2.3585 -4.9925 -1.7695 -3.013 0 -6.7705 0 0 
-6.4525 -7.159 -7.4705 -7.59 -3.929 -3.7215 -6.540501 -4.775001 -6.55 -5.272501 -3.7215 -3.013 -6.305 -6.305 0 
-8.292001 -12.3475 -8.4265 -7.6665 -5.732 -6.931 -8.590501 -8.7165 -6.7385 -6.925 -3.7215 -10.7808 -6.305 -6.305 
-13.7543 -13.3035 -8.529 -8.9395 -8.905001 -8.978001 -12.693 -8.7845 -8.1735 -6.925 -11.8373 -10.7808 -6.305 
-14.7103 -13.406 -9.978001 -12.4207 -10.138 -13.1321 -12.761 -10.223 -8.1735 -15.5944 -11.8373 -10.7808 
-2.9705 -1.7565 -3.213 -2.3585 -4.567 -3.8535 -2.356 -5.217 0 -2.4265 -2.882 -2.489 -3.8535 -2.3345 -2.5235 -4.0335 -3.9665 0 -6.7705 0 
-5.314 -4.667 -5.4815 -5.5905 -10.058 -5.2305 -8.997001 -5.217 -2.4265 -4.4545 -3.631 -4.6325 -5.069 -4.8995 -5.169001 -8.4585 -3.9665 -6.305 -6.305 
-9.8599 -6.708 -8.8365 -11.5713 -11.435 -12.2867 -8.997001 -7.155001 -4.4545 -4.8375 -6.2705 -5.7075 -7.471001 -8.4725 -10.1075 -8.4585 -10.7025 -6.305 
-11.9009 -10.172 -15.1601 -12.9483 -18.4912 -12.2867 -10.7575 -9.713501 -4.8375 -7.646 -7.064001 -8.131001 -10.067 -13.6398 -10.1075 -15.5269 -10.7025 
-15.3649 -16.7868 -16.5371 -20.0045 -18.4912 -14.0472 -13.316 -10.272 -7.646 -8.5255 -9.4505 -10.923 -16.0589 -13.6398 -17.3023 -15.5269 
