-4.759 
n/a 
n/a 
n/a 
n/a 
-4.759 
n/a 
n/a 
n/a 
n/a 
-4.759 
n/a 
n/a 
n/a 
n/a 
-4.759 
n/a 
n/a 
n/a 
n/a 
-8.514501 -8.5135 -8.926001 -5.4425 -6.5625 -3.0695 -2.7415 -4.7935 -3.849 -2.5045 -13.3705 -6.5625 0 -17.879 -2.5045 -7.627 0 -2.7415 -3.8735 -2.229 -4.1205 -3.757 0 
-8.977 -8.993 -9.011001 -7.282 -8.85 -4.6395 -6.9495 -6.2965 -6.305 -12.725 -13.0105 -6.5625 -16.4683 -19.0968 -9.435 -7.627 -2.7415 -7.6505 -5.3655 -5.7835 -5.728 -3.757 
-8.996501 -9.0175 -9.014001 -9.075001 -9.479501 -9.028501 -8.1925 -8.479 -15.5775 -12.028 -9.37 -23.8268 -19.0968 -26.2081 -9.435 -10.932 -7.6505 -7.983001 -8.5465 -7.5235 -5.728 
-9.021001 -9.02 -11.2132 -9.6385 -14.0847 -9.664001 -10.5035 -18.2154 -15.0954 -10.836 -25.664 -26.4553 -26.2081 -26.2081 -12.837 -15.841 -7.983001 -11.5278 -9.572001 -7.5235 
-9.024001 -11.2288 -11.7767 -14.3651 -14.7202 -12.0224 -20.3221 -18.3036 -15.1771 -28.928 -28.2928 -33.5666 -26.2081 -29.6101 -17.746 -16.1735 -11.5278 -12.5533 -9.572001 
0 -13.3705 -6.5625 -2.186 -1.8085 -8.514501 -8.5135 -8.926001 -5.4425 -6.5625 -4.2705 0 -3.524 -8.027 0 -7.627 0 -4.2165 -4.015 -4.328 
-11.171 -13.0105 -8.5115 -3.164 -10.674 -8.977 -8.993 -9.011001 -7.282 -11.629 -4.2705 -3.524 -10.1185 -7.74 -7.627 -7.627 -4.2165 -9.2465 -8.535 
-9.37 -11.0475 -9.244501 -13.0711 -11.1365 -8.996501 -9.0175 -9.014001 -12.8873 -11.629 -7.248 -9.124001 -9.124001 -16.2772 -7.627 -10.9575 -9.2465 -13.9179 
-9.481 -10.246 -19.3902 -13.5336 -11.156 -9.021001 -9.02 -15.0255 -12.8873 -14.6065 -10.76 -9.124001 -17.8636 -16.2772 -10.9575 -15.9875 -13.9179 
-10.278 -20.6439 -19.8527 -13.5531 -11.1805 -9.024001 -15.0411 -15.0255 -15.8648 -18.1185 -10.76 -17.8636 -17.8636 -19.6077 -15.9875 -20.6589 
-8.514501 -8.5135 -10.9655 -5.4425 -6.5625 -3.849 -2.5045 -7.928 -5.4425 -6.5625 0 -4.2215 0 -3.524 -8.027 0 -7.627 0 -2.186 -3.8735 -2.229 -4.1205 -3.9675 -4.2245 0 
-8.977 -20.084 -16.408 -7.282 -9.764001 -6.305 -8.2155 -11.171 -7.282 -6.5625 -4.2215 -4.2215 -3.524 -10.1185 -7.74 -7.627 -7.627 -2.186 -6.749001 -5.3655 -5.7835 -7.282001 -9.067 -4.2245 
-21.7215 -25.5265 -18.2475 -10.0375 -12.8254 -12.967 -12.0025 -9.37 -7.282 -10.075 -4.2215 -6.5295 -9.124001 -9.124001 -16.2772 -7.627 -9.327001 -6.749001 -7.036 -8.5465 -10.186 -13.6843 -9.067 
-27.164 -27.366 -21.003 -13.1543 -20.6953 -15.0889 -10.836 -7.6545 -10.163 -10.075 -6.5295 -10.054 -9.124001 -17.8636 -16.2772 -9.327001 -14.1354 -7.036 -10.6465 -13.4998 -16.1589 -13.6843 
-29.0035 -30.1215 -24.1198 -21.0242 -21.6915 -15.1771 -10.9177 -10.7422 -10.163 -10.417 -10.054 -10.054 -17.8636 -17.8636 -17.9772 -14.1354 -14.4224 -10.6465 -15.5998 -19.4727 -16.1589 
-4.1205 -3.757 -1.7565 -3.8735 
-5.728 -4.5665 -5.112 
-6.266 -7.1095 
-8.164001 
n/a 
