-4.759 
n/a 
n/a 
n/a 
n/a 
-4.759 
n/a 
n/a 
n/a 
n/a 
-4.759 
n/a 
n/a 
n/a 
n/a 
-4.759 
n/a 
n/a 
n/a 
n/a 
-1.4985 -4.2485 -1.934 -2.3615 -3.4425 -2.186 -5.7485 -5.744 
-5.307 -5.861001 -3.539 -4.9065 -5.194 -8.085 -10.2335 
-6.708 -7.717501 -5.189 -6.0365 -10.107 -12.0865 
-8.592501 -9.2495 -6.5505 -11.1505 -14.8324 
-9.763 -9.794001 -10.909 -15.7466 
-1.4985 -4.237 -4.2485 -1.7565 -2.3615 -3.355 -2.186 -4.8835 -5.744 0 
-5.154 -7.728 -5.5065 -3.523 -5.107 -5.3935 -7.487 -9.07 -5.744 
-9.1645 -9.2795 -7.942501 -5.8535 -6.4695 -11.0903 -12.2017 -9.07 
-10.131 -11.7599 -10.3605 -7.320001 -12.6853 -15.805 -12.2017 
-13.2764 -14.1779 -12.213 -14.1968 -17.4 -15.805 
-2.3615 -3.355 -1.7565 -4.2485 -5.7485 -5.744 0 
-5.107 -3.725 -5.969 -9.475 -10.2335 -5.744 
-5.6095 -9.323 -11.3705 -13.873 -9.684501 
-11.8077 -15.1301 -16.895 -14.7012 
-17.6148 -20.6068 -16.895 
-2.3615 -3.355 -2.356 -1.8085 -4.2485 -1.7565 -2.7455 -5.936501 -3.2785 0 
-5.107 -5.9515 -3.4075 -5.7985 -5.5065 -4.9365 -8.627001 -9.141001 -3.2785 
-7.545 -7.064001 -7.111501 -6.3245 -7.0845 -9.526001 -11.456 -8.8935 
-8.568501 -11.0534 -7.604001 -7.2885 -11.6145 -11.4105 -10.4585 
-12.9007 -11.5459 -8.753501 -10.867 -12.227 -10.76 
