-4.759 
n/a 
n/a 
n/a 
n/a 
-4.759 
n/a 
n/a 
n/a 
n/a 
-4.759 
n/a 
n/a 
n/a 
n/a 
-4.759 
n/a 
n/a 
n/a 
n/a 
-3.0835 -4.867 0 -4.7075 
-7.389 -4.867 -4.7075 
-7.389 -10.3045 
-13.2581 
n/a 
-1.4985 -3.0835 -4.584 0 -8.514 
-3.535 -7.693501 -4.584 -8.514 
-8.099501 -7.693501 -14.0652 
-8.099501 -17.5383 
-18.0707 
-1.4985 -3.0835 -4.867 0 -9.0275 
-3.535 -7.389 -4.867 -9.0275 
-7.7225 -7.389 -14.8903 
-7.7225 -17.8439 
-18.2346 
-4.1035 0 -4.7075 -3.594 
-4.1035 -4.7075 -7.745001 
-9.0565 -7.745001 
-12.4948 
n/a 
