-4.759 
n/a 
n/a 
n/a 
n/a 
-4.759 
n/a 
n/a 
n/a 
n/a 
-4.759 
n/a 
n/a 
n/a 
n/a 
-4.759 
n/a 
n/a 
n/a 
n/a 
-1.934 -5.4885 -3.1715 -3.1385 -3.0695 -4.3845 -5.1845 -4.1225 -3.8195 -4.425 -7.053 -1.756 -3.613 -1.7695 -5.1845 -5.74 0 
-6.47 -7.267 -7.1785 -4.286 -6.3415 -8.588 -9.935501 -7.358001 -7.5885 -12.5988 -8.712001 -5.4145 -5.9595 -7.4505 -5.7465 -5.74 
-8.398001 -11.9896 -8.476501 -7.143001 -9.670501 -13.6662 -13.7702 -11.4426 -16.7225 -14.2578 -12.5379 -7.825 -12.7779 -7.9875 -5.7465 
-13.3104 -13.2876 -11.4711 -10.586 -14.7991 -17.5009 -17.8548 -20.5766 -18.3815 -18.0837 -14.9484 -15.2016 -13.3149 -7.9875 
-14.6084 -16.2822 -14.9141 -15.7146 -18.6338 -21.5855 -26.9888 -22.2356 -22.2074 -20.4942 -22.325 -15.7386 -13.3149 
-4.1225 -3.355 -1.7565 -5.4885 -6.803 -6.4735 -4.657 -2.7415 -4.794 -2.5195 -5.4885 -1.756 -2.7415 -3.918 -2.356 -5.1845 -5.74 0 
-6.331501 -3.725 -6.581501 -13.2763 -13.6051 -9.774 -7.518 -6.637 -5.6105 -7.484 -7.2385 -4.4655 -6.377501 -6.205501 -7.8135 -5.7465 -5.74 
-6.3795 -8.7235 -14.6835 -20.0784 -16.9056 -12.7612 -11.6687 -6.9675 -11.4062 -8.606001 -9.558001 -7.5175 -8.095 -12.0138 -8.508 -5.7465 
-9.869501 -17.0815 -21.4856 -23.3789 -19.8928 -16.9119 -11.9992 -12.8592 -12.5282 -10.3545 -12.6156 -9.5185 -14.1211 -12.7083 -8.508 
-18.2275 -23.8836 -24.7861 -26.3661 -24.0435 -17.2424 -17.8909 -13.9812 -14.2767 -13.4121 -14.6166 -15.6286 -14.8156 -12.7083 
-2.688 -3.8145 -1.7565 -1.4985 -5.1845 -4.4615 -4.1225 -3.355 -1.7565 -5.4885 -3.8755 0 -1.756 -4.281 -2.5045 -9.261001 0 -1.756 -3.7855 -1.7695 -5.1845 -5.74 0 
-6.795001 -4.711 -2.4195 -6.5205 -7.859 -8.837 -6.331501 -3.725 -6.581501 -9.908501 -3.8755 -1.756 -6.2145 -5.893 -12.6829 -9.261001 -1.756 -5.6055 -4.793 -7.4505 -5.7465 -5.74 
-8.27 -6.507 -7.2335 -8.440001 -10.757 -10.0015 -6.3795 -8.7235 -11.3157 -9.908501 -5.367 -6.2145 -7.847501 -16.4322 -12.6829 -10.6095 -5.6055 -6.716001 -9.903001 -7.9875 -5.7465 
-9.449 -10.335 -8.969001 -11.7816 -11.9215 -10.073 -9.869501 -13.7137 -11.3157 -11.3706 -8.2805 -7.847501 -18.5111 -16.4322 -14.0314 -14.459 -6.716001 -12.1136 -10.6915 -7.9875 
-13.5526 -12.6061 -12.5834 -12.9461 -11.993 -14.168 -14.8597 -13.7137 -12.7778 -14.2841 -9.992001 -18.5111 -18.5111 -17.7807 -17.8809 -15.5695 -12.1136 -12.9021 -10.6915 
-1.4985 -3.1385 -3.0695 -4.431 -5.1845 -4.657 -1.934 -1.4985 -3.502 -1.7565 -5.4885 -2.7415 -4.5485 -2.5045 -7.053 -3.8145 -1.756 -3.918 -2.356 -6.557 
-4.2575 -4.286 -6.802 -9.7775 -10.586 -5.156 -2.6125 -4.5955 -5.0575 -6.581501 -8.25 -5.5565 -6.309 -10.164 -8.094501 -5.497 -6.079 -6.205501 -9.500501 
-5.1225 -9.243501 -13.1941 -15.409 -10.776 -5.8715 -5.258 -5.911 -9.9375 -8.929001 -9.626 -7.081 -14.5853 -11.2055 -9.265 -9.5375 -7.7025 -13.7008 
-10.185 -15.6916 -18.8256 -15.599 -11.4915 -7.8265 -6.26 -10.199 -12.285 -9.925501 -11.3355 -15.9307 -15.6268 -12.376 -13.8311 -11.32 -15.395 
-16.7079 -21.3231 -19.0156 -16.3145 -13.4465 -8.8505 -10.476 -12.5465 -13.2815 -11.941 -20.1852 -16.9722 -16.7973 -16.9421 -15.6136 -19.0125 
