-4.759 
n/a 
n/a 
n/a 
n/a 
-4.759 
n/a 
n/a 
n/a 
n/a 
-4.759 
n/a 
n/a 
n/a 
n/a 
-4.759 
n/a 
n/a 
n/a 
n/a 
-4.834 -3.16 -2.3335 -2.95 -2.8965 -8.2425 -3.991 -2.4945 -3.6065 -4.7005 -2.4945 -3.0365 0 
-7.0645 -6.440001 -4.8245 -6.4095 -12.2842 -12.6509 -5.612 -5.343 -5.6825 -7.08 -4.952001 -3.0365 
-11.9649 -9.861 -7.981501 -16.2022 -16.6926 -14.2719 -8.171 -7.189001 -8.515501 -8.8915 -4.952001 
-15.3859 -13.5748 -17.8712 -20.6106 -18.3136 -16.8309 -10.6875 -10.5512 -9.871501 -8.8915 
-19.0997 -23.4645 -22.2796 -22.2316 -20.8726 -19.3474 -13.9191 -11.9072 -9.871501 
-3.188 -4.7365 -3.16 -2.8965 -10.7225 -3.991 -1.756 -3.3715 -3.6065 0 
-7.4125 -8.122001 -6.9755 -14.7642 -14.7135 -5.0735 -4.6545 -5.106 -3.6065 
-9.251 -12.4641 -19.686 -18.7552 -15.796 -8.35 -7.0745 -5.106 
-14.0861 -25.1746 -23.677 -19.8377 -19.0725 -9.515501 -7.0745 
-26.7966 -29.1656 -24.7595 -23.1142 -20.238 -9.515501 
-3.432 -2.186 -12.16972 -3.866 -3.3715 -3.319 -2.186 -3.0365 0 
-5.681 -15.56612 -16.03572 -7.649 -7.602501 -5.404 -4.5415 -3.0365 
-19.78732 -19.43212 -19.81872 -12.1886 -10.4425 -8.2285 -4.5415 
-23.65332 -23.21512 -24.35832 -15.0286 -13.267 -8.2285 
-27.43632 -27.75472 -27.19832 -17.8531 -13.267 
-3.188 -4.0005 -4.0395 -2.8645 -1.4985 -5.6395 -4.1755 
-4.969501 -8.859501 -8.814501 -4.3545 -6.829 -11.1936 
-9.109 -13.8373 -10.5435 -10.4134 -12.8289 
-14.1578 -15.5663 -16.6024 -16.4133 
-15.8868 -21.6252 -22.6023 
