-4.759 
n/a 
n/a 
n/a 
n/a 
-4.759 
n/a 
n/a 
n/a 
n/a 
-4.759 
n/a 
n/a 
n/a 
n/a 
-4.759 
n/a 
n/a 
n/a 
n/a 
-4.536 -1.756 -5.706 -2.4945 -1.4985 -4.0105 -3.5505 -1.7565 -8.27 0 
-5.822001 -6.7835 -8.410501 -3.9315 -4.7015 -7.419 -6.2725 -9.440001 -8.27 
-8.594 -8.727 -9.72 -6.2995 -7.957 -8.974501 -14.6874 -9.440001 
-10.6823 -9.961 -12.2998 -8.7145 -9.0445 -17.4534 -14.6874 
-11.9163 -12.5982 -14.7148 -9.781 -17.5434 -17.4534 
-4.536 -1.756 0 -5.2075 0 -2.4945 -3.699 -3.5505 -2.0935 -8.27 0 
-5.822001 -1.756 -5.2075 -5.2075 -2.4945 -5.304 -7.0455 -5.35 -9.514 -8.27 
-5.822001 -6.9135 -5.2075 -8.3055 -5.304 -8.3725 -8.237 -13.9173 -9.514 
-8.35 -6.9135 -8.3055 -11.2816 -8.3725 -9.127501 -16.9301 -13.9173 
-8.35 -8.9195 -11.2816 -14.3501 -9.127501 -17.873 -16.9301 
-4.536 -1.756 -3.5645 -5.071 -2.186 -3.0835 -3.5505 -1.7565 -9.6365 0 
-5.822001 -4.7635 -7.150001 -7.715 -5.597 -7.163501 -6.2725 -10.985 -9.6365 
-9.134501 -8.0275 -9.64 -11.4992 -9.0865 -8.838501 -16.2324 -10.985 
-12.7823 -10.4505 -13.4028 -14.9887 -11.8963 -19.473 -16.2324 
-15.2053 -14.2133 -16.8923 -17.7985 -22.5308 -19.473 
-4.536 -1.756 -5.2075 -2.4945 -8.27 0 -5.0455 -3.5505 
-5.822001 -6.9135 -8.3055 -10.035 -8.27 -5.0455 -8.672501 
-8.35 -8.9195 -16.0126 -10.035 -13.7423 -8.672501 
-10.254 -16.6694 -16.0126 -15.5073 -17.3693 
-18.1749 -16.6694 -21.4849 -19.1343 
