-4.759 
n/a 
n/a 
n/a 
n/a 
-4.759 
n/a 
n/a 
n/a 
n/a 
-4.759 
n/a 
n/a 
n/a 
n/a 
-4.759 
n/a 
n/a 
n/a 
n/a 
-6.9415 -4.1005 -2.4945 -4.834 -1.756 -4.2765 -1.7695 -4.628 -4.743 0 
-11.6318 -5.9665 -8.890501 -6.846 -5.5665 -7.033501 -6.618001 -4.7515 -4.743 
-13.4978 -12.8907 -10.0965 -10.419 -8.4385 -12.376 -6.7625 -4.7515 
-20.422 -14.0967 -14.1277 -13.291 -13.9 -12.5205 -6.7625 
-21.628 -18.1279 -16.9997 -18.7525 -14.0445 -12.5205 
-3.929 -1.4985 -8.847501 -2.4945 -2.5195 -4.628 -5.939 -3.9725 -2.229 -5.805 0 -2.925 -3.152 -4.4725 -9.7255 -2.3345 -1.4985 -3.8475 -3.433 -2.985 -6.394001 -5.2945 -4.633 -1.7565 -3.8245 -3.681 0 
-4.8985 -10.304 -10.958 -5.2275 -6.806 -5.9615 -8.655001 -5.125 -7.708 -5.805 -2.925 -4.203 -6.231501 -13.5885 -12.4305 -3.233 -5.09 -7.008 -5.664001 -7.3025 -10.9075 -8.690001 -6.500501 -5.058 -6.1385 -3.681 
-13.8956 -12.4145 -13.691 -8.8865 -8.453 -8.666 -10.6013 -10.019 -7.708 -9.028 -4.203 -7.345 -16.0489 -16.0639 -13.003 -6.306 -8.3015 -9.026 -9.499001 -11.9926 -14.303 -10.8611 -10.66 -6.927 -6.1385 
-16.0061 -15.1475 -17.35 -11.1183 -11.3049 -10.6649 -15.4953 -10.019 -11.4628 -10.305 -7.345 -17.0963 -17.5223 -16.6364 -15.5065 -9.652 -10.647 -12.9442 -14.4105 -15.3881 -16.4741 -15.0206 -12.529 -6.927 
-18.7391 -18.8065 -19.5818 -13.9702 -13.3038 -15.5589 -15.4953 -14.088 -12.7398 -13.447 -17.3611 -18.7771 -18.0948 -19.1399 -18.9181 -12.1941 -14.5652 -17.8557 -17.806 -17.5592 -20.6336 -16.8896 -12.529 
-3.4765 -3.929 -6.9415 -2.229 -3.152 -4.2215 -1.934 -3.9725 -2.229 -3.3975 0 -2.925 -3.152 -6.248 -2.5195 -1.4985 -3.8475 -3.5065 -2.985 -5.3595 -5.163 -4.633 -1.7565 -3.6835 -5.164 
-4.589 -11.6401 -8.6625 -5.943501 -5.698501 -4.885 -6.156 -5.125 -5.2825 -3.3975 -2.925 -4.203 -7.639 -6.898 -3.1695 -5.09 -7.017 -5.9655 -6.5345 -8.2255 -7.8535 -6.500501 -4.6675 -5.399 
-12.6433 -13.3611 -12.5444 -8.701 -6.352 -8.935 -7.205501 -8.0175 -5.2825 -6.359 -4.203 -8.509501 -8.093 -7.3155 -6.762 -8.151001 -9.2405 -9.1005 -9.4445 -9.664001 -10.199 -9.84 -6.324 
-14.3643 -17.243 -15.3019 -9.272 -10.248 -9.432501 -10.5635 -8.0175 -7.8975 -7.575001 -8.509501 -8.921 -8.444 -9.876 -9.92 -10.5225 -12.6035 -12.2693 -10.7505 -12.2189 -13.5385 -11.6615 
-18.2462 -20.0005 -15.8729 -13.2456 -11.1525 -13.3973 -10.5635 -11.1455 -8.946501 -12.0827 -8.921 -9.311501 -11.1825 -13.3584 -12.5345 -13.8855 -15.7723 -13.5753 -13.3054 -15.5584 -15.36 

n/a 
n/a 
n/a 
n/a 
