-4.759 
n/a 
n/a 
n/a 
n/a 
-4.759 
n/a 
n/a 
n/a 
n/a 
-4.759 
n/a 
n/a 
n/a 
n/a 
-4.759 
n/a 
n/a 
n/a 
n/a 
-4.1145 -3.8625 -4.0935 -3.64 -2.0935 -3.4635 -5.4085 0 
-7.7295 -7.761001 -7.6965 -5.559 -5.419001 -7.277 -5.4085 
-12.5104 -11.6682 -8.949 -9.257501 -10.2285 -7.277 
-16.4176 -12.9207 -12.9685 -14.3552 -10.2285 
-17.6701 -16.9402 -18.0662 -14.3552 
-4.1145 -3.8625 -3.99 -2.9705 -4.4295 -2.7455 -1.4985 -4.256 -4.1145 -3.64 
-7.7295 -8.575001 -7.304 -7.125 -7.097 -3.637 -6.1095 -9.7125 -5.99 
-13.3244 -12.0302 -11.6497 -9.658001 -7.635 -8.1815 -12.1312 -10.612 
-16.7796 -16.3759 -14.1827 -10.206 -12.2961 -14.7552 -13.0307 
-21.1253 -18.9089 -14.7307 -14.8671 -18.8698 -15.6547 
-1.7695 -4.6505 -1.4985 -3.4635 -4.1145 -2.3335 -4.0935 -3.64 -6.5975 -1.4985 -3.8625 -1.7565 -4.1145 
-8.246 -5.797501 -5.4195 -7.612 -6.912 -5.157001 -7.6965 -10.6605 -7.3195 -5.431 -5.847 -6.695001 
-9.338 -10.1145 -9.2255 -11.6669 -9.2465 -9.198001 -15.6014 -11.3825 -11.4254 -6.8485 -11.4281 
-13.7106 -13.9205 -13.3836 -14.0014 -13.3643 -17.2255 -16.3234 -15.4884 -12.8429 -12.9036 
-17.5166 -18.0786 -15.7181 -18.1192 -21.3918 -17.9475 -20.4293 -16.9059 -18.898 
-5.675 -1.934 -1.4985 -3.6065 -1.934 -3.9035 -1.7565 -9.478001 0 
-8.1565 -2.6125 -4.8665 -5.6855 -5.9085 -4.616 -12.947 -10.9315 
-9.078 -6.2 -8.172501 -9.505 -6.1755 -17.0447 -13.3244 
-12.7545 -9.986 -12.153 -9.7465 -18.994 -17.0447 
-16.5405 -14.0041 -12.3945 -22.62 -18.994 
