-4.759 
n/a 
n/a 
n/a 
n/a 
-4.759 
n/a 
n/a 
n/a 
n/a 
-4.759 
n/a 
n/a 
n/a 
n/a 
-4.759 
n/a 
n/a 
n/a 
n/a 
-3.2615 -3.135 -3.4795 -5.5785 -3.9535 -1.7695 -8.7505 -2.9805 -4.0875 -3.0835 -3.391 -4.2545 -1.934 -4.3395 -1.756 -2.9805 -5.2635 -1.934 -4.667 -2.95 -2.871 -1.7565 -1.4985 -4.065 -3.711 -6.546 -5.036 -1.4985 -5.5785 -2.229 -4.9705 -1.934 -4.0465 0 -1.4985 -4.031 -2.186 -5.5785 -2.186 -2.6165 -1.8085 -4.065 0 
-5.675 -6.0235 -9.689 -9.120001 -5.098001 -11.1365 -11.276 -5.359 -6.8655 -5.1565 -7.2995 -6.352 -6.843 -5.8065 -4.3555 -6.6335 -6.82 -7.2295 -7.695001 -5.9425 -3.5385 -2.4195 -4.824 -7.283 -11.395 -12.5484 -6.7535 -7.5015 -6.6785 -6.9505 -7.1765 -6.982 -4.0465 -1.4985 -4.771 -5.555 -8.3 -7.6115 -3.5105 -4.0345 -5.6505 -4.065 
-7.691 -12.8866 -13.3183 -10.0715 -14.9824 -12.7057 -13.5272 -8.192501 -9.276501 -7.7085 -9.1765 -11.9956 -8.409 -8.291 -8.313001 -8.1435 -12.262 -10.565 -10.8345 -6.502 -3.7675 -5.555 -8.604 -15.3106 -17.3974 -14.2659 -13.2381 -9.344001 -12.1368 -9.050501 -12.7793 -6.982 -5.8095 -4.771 -5.9345 -12.374 -9.887501 -9.045 -4.4335 -7.941 -5.6505 
-14.9021 -16.5159 -14.2698 -20.2279 -17.2696 -14.7167 -16.7679 -9.576501 -12.5071 -9.559 -15.0093 -13.5616 -11.1269 -12.3485 -9.6955 -14.0321 -15.2586 -13.3263 -11.5998 -6.771 -7.815 -9.237 -16.9566 -21.313 -19.1149 -20.7505 -15.0806 -14.8695 -14.2368 -14.7985 -12.7793 -9.217001 -9.0675 -5.9345 -13.1341 -13.9615 -12.2108 -9.8765 -8.4255 -7.941 
-18.5314 -17.4674 -24.4262 -22.5151 -19.2806 -17.9574 -18.1519 -13.3055 -14.3576 -15.5456 -16.5753 -16.2795 -15.1844 -13.731 -15.8609 -16.7021 -18.3094 -13.7118 -11.7793 -10.9481 -10.031 -17.5514 -22.959 -23.0305 -25.5995 -22.593 -20.6061 -16.9695 -19.9848 -14.7985 -15.0143 -12.4914 -10.054 -13.1341 -14.7216 -16.2848 -13.0423 -13.8685 -8.4255 
-3.571 -3.193 0 -3.034 -2.9805 -2.7415 -4.8435 -1.7695 -5.709 -1.934 -1.8085 -3.0835 -3.391 -4.3395 -4.348 -2.356 -4.1535 -5.156 0 -3.433 -2.9805 -2.7415 -2.6165 -3.582 0 -2.9805 -2.7415 -5.036 -2.3345 -1.8085 -3.6085 -4.1445 -2.5045 -6.546 -4.905 -4.0465 0 
-5.7005 -3.193 -3.034 -4.4605 -4.004 -6.554501 -5.815 -7.6165 -7.8355 -3.2685 -4.6495 -5.1565 -7.8075 -7.647501 -6.6145 -6.2555 -9.1745 -5.156 -3.433 -4.8755 -4.004 -4.266 -6.809501 -3.582 -2.9805 -4.004 -6.224501 -6.3235 -3.8605 -6.34 -8.078 -5.955 -8.599501 -10.2485 -5.8205 -4.0465 
-5.7005 -5.501 -4.4605 -5.2415 -7.377501 -7.652 -10.66 -9.195001 -9.377501 -6.033 -6.1165 -8.205501 -10.4425 -10.6605 -11.0272 -12.1079 -9.1745 -9.172501 -4.8755 -5.7455 -5.5745 -8.3195 -6.809501 -7.05 -4.004 -7.272 -7.813001 -7.5655 -9.146501 -11.4749 -9.9405 -12.2098 -12.6822 -10.3185 -5.8205 
-7.89 -6.802 -5.2415 -8.624001 -8.4245 -12.7016 -12.2385 -10.533 -12.1628 -7.607 -9.0085 -11.0969 -13.4555 -15.0732 -16.8796 -12.1079 -14.196 -11.0142 -5.7455 -6.9675 -9.316 -8.3195 -8.692501 -8.077001 -7.272 -9.198001 -8.815001 -13.2641 -14.413 -13.3374 -16.1757 -16.2925 -12.7522 -10.3185 
-9.323 -7.5805 -8.624001 -9.714001 -13.5665 -14.2801 -13.5765 -13.3183 -13.7368 -10.238 -12.2961 -14.1099 -17.8682 -20.9256 -16.8796 -17.1294 -16.0377 -11.8842 -6.9675 -9.795501 -9.316 -9.834001 -9.913501 -11.551 -9.198001 -10.051 -14.6692 -18.5306 -16.2755 -19.5726 -20.2584 -16.3625 -12.7522 
-2.871 -3.193 -3.034 -5.5785 -2.7415 -5.128 -2.356 -3.091 -3.0835 -3.391 -4.3395 -4.2545 -1.7695 -5.709 0 -4.5205 -4.947 -4.0555 -1.756 -5.243 -3.595 -2.9905 -1.7565 -1.4985 -4.3395 -1.934 -6.546 -4.905 -4.0465 -3.433 -2.9805 -2.7415 -2.6165 -2.664 -9.6455 0 
-4.715 -5.501 -8.396501 -7.358 -6.9255 -6.330501 -4.513 -4.956 -5.1565 -7.8075 -6.933001 -5.685 -7.6165 -5.709 -4.5205 -10.419 -8.348001 -5.8555 -6.179 -6.8995 -5.5865 -3.6185 -2.4195 -5.3695 -6.0235 -7.625 -10.2485 -5.8205 -7.391 -4.8755 -4.004 -4.266 -4.827 -13.5279 -9.6455 
-6.5515 -10.586 -9.071501 -11.9812 -7.92 -8.3155 -6.6405 -7.741 -8.205501 -8.774 -8.062501 -12.2394 -7.6165 -11.1541 -10.419 -13.82 -9.356501 -8.736 -7.446001 -7.6285 -6.034501 -4.3385 -6.510001 -7.212501 -10.575 -11.8807 -10.3185 -9.189 -8.7805 -5.7455 -5.5745 -6.0455 -16.2441 -13.5279 
-11.9641 -11.261 -13.8965 -12.9757 -8.891001 -10.839 -9.523001 -11.3562 -9.1955 -9.938001 -14.8457 -12.2394 -13.5146 -17.0526 -13.82 -14.8285 -12.4212 -10.3545 -8.285501 -8.0125 -6.453001 -7.895 -8.201 -11.8382 -14.8307 -11.9507 -13.687 -10.7891 -9.4785 -6.9675 -7.461 -17.8044 -16.2441 
-12.6391 -16.086 -14.891 -13.9467 -11.5429 -13.7215 -13.1754 -12.3462 -10.1275 -16.7212 -14.8457 -18.1375 -19.4131 -20.4536 -14.8285 -17.8932 -14.0397 -11.194 -8.6125 -8.215 -9.745001 -9.463501 -12.9977 -16.0939 -14.9007 -15.3192 -15.2871 -11.4871 -10.7415 -8.7465 -19.5387 -17.8044 
-2.264 -3.571 -3.193 0 -5.5785 -2.7415 -4.8435 -2.356 -1.4985 -4.1535 -4.8435 -4.2545 -1.7695 -3.3165 -1.7695 -5.709 -3.433 -2.9805 -2.186 -2.6165 -2.664 -6.160501 0 -2.9805 -2.7415 -5.036 -2.9905 -1.7565 -1.4985 -4.596 -5.3715 -1.934 -1.4985 -4.905 -4.0465 0 -9.671 0 -2.3345 -2.664 -3.6085 -4.1445 0 
-5.263 -5.7005 -3.193 -5.5785 -7.358 -6.554501 -5.8975 -3.1615 -6.096001 -9.635 -9.3615 -5.685 -4.0585 -3.881 -7.6165 -9.4795 -4.8755 -4.1635 -3.5105 -4.827 -6.594501 -6.160501 -2.9805 -4.004 -6.224501 -6.0125 -3.6185 -2.4195 -5.836 -9.844501 -6.991001 -2.6125 -5.860001 -5.8205 -4.0465 -9.671 -9.671 -2.3345 -4.532 -5.588 -8.078 -4.1445 
-7.197001 -5.7005 -8.566 -7.358 -10.749 -7.541 -7.068 -7.7325 -12.0815 -14.781 -11.108 -7.645501 -4.7935 -9.527 -10.647 -11.2178 -5.853 -5.4975 -5.13 -8.683001 -6.594501 -8.1955 -4.004 -7.272 -6.962501 -6.556 -4.3385 -6.680001 -10.1265 -11.504 -7.4855 -7.3155 -6.662001 -5.8205 -14.4525 -9.671 -12.1945 -4.532 -7.236 -8.3735 -8.078 
-7.197001 -11.7843 -10.3965 -10.749 -11.7355 -8.597501 -12.1948 -13.9804 -17.2275 -16.5275 -13.0685 -8.535001 -9.856501 -12.6903 -12.3853 -12.1953 -7.0735 -7.210001 -9.385501 -8.683001 -8.509501 -9.054501 -7.272 -7.994501 -7.423 -7.048 -8.9685 -10.168 -11.786 -11.9985 -12.6379 -8.419001 -6.662001 -16.7417 -14.4525 -12.1945 -14.392 -7.236 -9.450001 -8.3735 
-13.5214 -13.6148 -13.7875 -11.7355 -12.792 -13.7843 -18.4427 -19.1264 -18.974 -18.488 -13.958 -13.6746 -13.05 -14.4286 -13.3628 -13.4158 -8.6505 -9.858001 -9.385501 -9.9455 -9.302501 -12.3961 -7.994501 -8.255 -7.8985 -12.1362 -10.1855 -11.8275 -12.2805 -17.1509 -13.7414 -8.419001 -18.0658 -16.7417 -16.976 -14.392 -17.096 -9.450001 -9.450001 
