-4.759 
n/a 
n/a 
n/a 
n/a 
-4.759 
n/a 
n/a 
n/a 
n/a 
-4.759 
n/a 
n/a 
n/a 
n/a 
-4.759 
n/a 
n/a 
n/a 
n/a 
-3.0365 -2.4945 -3.135 -4.244 -1.7695 -4.0585 -1.4985 -3.699 -1.756 -1.4985 -6.101 -3.681 -4.7715 -3.594 -3.768 -3.7965 -1.4985 -3.6065 -4.033 -1.7565 -4.293 0 
-3.688 -4.575 -7.034 -5.840001 -4.6165 -4.7185 -5.264 -5.4425 -3.0405 -7.684 -7.954 -8.0485 -9.2465 -5.2065 -7.259501 -4.8165 -4.8665 -5.71 -4.5795 -6.0325 -4.293 
-5.0805 -8.427501 -8.163 -8.657001 -5.2205 -7.606 -7.2285 -6.883 -8.88 -8.939501 -12.4719 -12.7587 -11.055 -8.5895 -8.962501 -8.5425 -6.788001 -5.919 -7.8665 -6.0325 
-8.8085 -9.061001 -11.3252 -9.757001 -8.163 -9.591001 -8.626 -9.459001 -10.403 -13.5094 -17.1821 -14.5672 -14.438 -10.389 -12.9057 -10.3675 -6.934501 -9.5305 -7.8665 
-9.804501 -12.7162 -12.4252 -12.6995 -10.19 -11.1229 -9.4925 -11.1556 -14.9729 -18.2196 -18.9906 -17.9502 -16.2375 -14.3322 -14.7307 -10.5055 -10.6876 -9.5305 
-4.426 -1.7565 -1.4985 -3.6115 -4.7285 -4.1555 -3.147 0 
-5.47 -2.4195 -4.081 -6.5495 -8.4455 -5.77 -3.147 
-5.9535 -5.180501 -6.670501 -9.978001 -9.541501 -5.77 
-8.462501 -7.797 -10.054 -11.0524 -9.541501 
-10.2375 -11.2985 -11.1648 -11.0524 
-3.5065 -2.9325 -2.186 -4.023 -2.7415 -4.4015 -2.264 -1.4985 -4.1175 -1.7565 -4.244 0 -7.132 -5.216 -4.5485 -2.356 -3.948 -4.995 -1.7565 -4.244 0 
-6.932 -3.8335 -4.89 -7.6005 -5.9195 -5.971 -2.9195 -4.6915 -4.7545 -6.100501 -4.244 -7.132 -13.3132 -9.699 -6.2725 -5.4665 -7.309501 -6.301001 -6.100501 -4.244 
-7.811 -6.574 -9.113001 -11.1453 -7.5425 -6.611001 -4.9245 -4.851 -7.832 -6.100501 -12.5898 -13.3132 -17.7962 -11.5822 -9.053 -8.9355 -8.331501 -9.757001 -6.100501 
-10.2275 -10.4265 -12.7948 -12.7683 -8.165501 -7.620501 -4.9575 -7.844501 -7.832 -15.2745 -18.771 -17.7962 -19.6794 -14.3627 -12.5884 -10.111 -11.9719 -9.757001 
-14.5516 -14.1083 -14.4178 -13.3913 -8.7535 -7.634 -7.850501 -7.844501 -17.574 -21.4557 -23.254 -19.6794 -22.4599 -17.8981 -13.7639 -13.7514 -11.9719 
-4.116 -1.7565 -3.3715 -4.244 -4.7715 -1.7695 -3.429 -4.3365 -4.0725 -3.6065 -1.7695 -6.8 
-6.937 -4.845 -7.4095 -8.978001 -6.934 -4.032 -6.9805 -9.1525 -9.492001 -5.8365 -10.761 
-10.4675 -8.837001 -12.9533 -11.2425 -8.96 -7.2735 -12.4107 -14.673 -12.0894 -14.8043 
-14.4595 -14.3346 -15.2178 -13.2685 -12.3527 -12.7063 -17.9312 -17.2704 -21.0572 
-19.9571 -16.5991 -17.2438 -16.6612 -17.7855 -18.2268 -20.5286 -26.2382 
