-4.759 
n/a 
n/a 
n/a 
n/a 
-4.759 
n/a 
n/a 
n/a 
n/a 
-4.759 
n/a 
n/a 
n/a 
n/a 
-4.759 
n/a 
n/a 
n/a 
n/a 
-3.135 -3.9235 -3.4265 -4.2115 -2.9705 -2.8645 -3.77 -3.7045 -4.0415 -2.9705 -2.7765 -2.489 -3.2955 -2.3345 -1.8085 -3.8225 -3.2945 
-7.4395 -7.110001 -7.0235 -6.532001 -4.6335 -6.958 -7.946501 -8.3465 -6.411 -4.677 -3.495 -3.979 -4.534 -3.8605 -4.8095 -6.945001 
-11.082 -11.285 -9.5115 -8.9655 -8.754001 -11.8581 -12.9821 -11.0194 -7.9815 -4.966 -4.532001 -5.2935 -5.9685 -6.6625 -7.554 
-15.257 -13.773 -12.0906 -13.117 -13.8111 -16.8937 -15.655 -12.5899 -8.349501 -5.801 -5.955501 -6.5435 -9.4215 -9.217501 
-17.745 -16.3521 -16.2421 -18.1741 -18.8467 -19.5666 -17.2255 -12.9579 -9.007501 -7.037 -7.166 -10.238 -12.1065 
-3.17 -4.3035 -3.8935 -7.174 -5.268 -9.941501 
-7.174 -9.3055 -12.1749 -13.4286 -16.2767 
-12.7244 -17.6943 -18.4295 -24.4373 
-21.1132 -23.9489 -29.4382 
-27.3678 -34.9576 
-3.135 -3.7495 -3.5895 -3.308 -4.1225 -3.5535 0 -2.9705 -2.7765 -2.489 -2.9645 -2.3345 -3.9555 0 
-6.013 -6.759501 -8.472501 -7.8715 -7.0465 -3.5535 -2.9705 -4.677 -3.495 -6.586 -5.137 -5.6965 -3.9555 
-8.206 -11.8175 -13.4256 -11.3585 -7.0465 -6.345 -4.677 -4.966 -7.043 -8.2045 -7.6335 -5.6965 
-13.4914 -16.7706 -16.9126 -11.3585 -9.469501 -7.232 -4.966 -8.436001 -8.7395 -10.1305 -7.6335 
-18.4445 -20.2576 -16.9126 -13.7815 -10.7235 -7.438 -8.436001 -9.977501 -10.374 -10.1305 
-3.7495 -2.4945 -4.858 -7.3885 
-5.2295 -6.8215 -9.6075 
-8.7405 -11.431 
-13.3954 
n/a 
