-4.759 
n/a 
n/a 
n/a 
n/a 
-4.759 
n/a 
n/a 
n/a 
n/a 
-4.759 
n/a 
n/a 
n/a 
n/a 
-4.759 
n/a 
n/a 
n/a 
n/a 
-5.43 -4.9845 -3.9615 -1.7695 -12.16972 -4.9845 
-10.2985 -8.324 -5.845 -14.92142 -17.15422 
-13.8492 -10.9545 -19.45032 -19.90592 
-16.4797 -24.55982 -24.43482 
-30.08502 -29.54432 
-3.9555 -3.757 -6.7705 -2.186 -3.9615 -1.4985 -3.7805 -4.365 -3.2 
-8.9125 -11.6413 -10.093 -5.73 -4.716 -4.8195 -7.1805 -5.4195 
-16.9912 -14.9638 -13.6996 -6.3995 -8.135 -9.656501 -9.342501 
-20.3137 -18.5704 -14.3691 -9.77 -13.2338 -11.8945 
-23.9203 -19.2399 -17.7396 -15.0514 -15.4718 
-1.4985 -3.757 -5.43 -2.186 -4.06 -3.9615 -1.4985 -5.656 -5.6035 0 
-5.1505 -8.3415 -7.534 -4.672 -5.662001 -4.716 -7.1765 -9.115 -5.6035 
-8.736 -9.5515 -9.874001 -6.2975 -6.111001 -10.007 -9.390501 -9.115 
-9.956501 -11.9209 -11.5641 -6.6945 -11.6266 -12.221 -9.390501 
-12.3259 -13.611 -11.9611 -12.3691 -13.8406 -12.221 
-7.2545 -3.757 -2.186 -3.8825 -3.9615 -12.16972 0 
-11.5371 -5.846 -5.3085 -7.6665 -16.89282 -12.16972 
-13.6261 -9.165501 -8.5655 -21.06442 -16.89282 
-16.9456 -12.6485 -22.32542 -21.06442 
-20.4286 -26.40842 -22.32542 
