-4.759 
n/a 
n/a 
n/a 
n/a 
-4.759 
n/a 
n/a 
n/a 
n/a 
-4.759 
n/a 
n/a 
n/a 
n/a 
-4.759 
n/a 
n/a 
n/a 
n/a 
-2.3615 -2.186 -2.6165 -2.664 -3.469 -3.158 0 
-3.5005 -3.5105 -4.827 -7.631 -7.2625 -3.158 
-4.744 -5.13 -10.341 -11.5723 -7.2625 
-5.981 -10.688 -14.2823 -11.5723 
-11.8738 -14.6293 -14.2823 
-2.3615 -2.186 -2.6165 -1.8085 -5.1635 -3.158 0 
-3.5005 -3.5105 -4.0345 -6.276501 -6.3605 -3.158 
-4.744 -4.4335 -7.95 -7.049001 -6.3605 
-5.3645 -8.183001 -8.1125 -7.049001 
-9.281501 -8.285501 -8.1125 
-2.4265 -2.186 -2.6165 -4.289 -3.158 0 
-3.292 -3.5105 -7.2535 -7.545 -3.158 
-4.443 -8.0885 -10.9843 -7.545 
-9.4005 -12.0309 -10.9843 
-13.5151 -12.0309 
-2.4265 -2.7415 -2.6165 -3.4865 -3.158 
-3.681 -4.266 -6.9635 -7.2075 
-5.1275 -8.707001 -11.1425 
-9.515 -13.122 
-14.0364 
