-4.759 
n/a 
n/a 
n/a 
n/a 
-4.759 
n/a 
n/a 
n/a 
n/a 
-4.759 
n/a 
n/a 
n/a 
n/a 
-4.759 
n/a 
n/a 
n/a 
n/a 
-2.3615 -8.141001 -3.307 -3.6085 -3.1385 -3.898 
-11.7907 -12.0212 -6.816501 -6.699 -8.2995 
-15.6709 -15.5307 -11.1288 -12.27 
-19.1804 -19.843 -16.6998 
-23.4927 -25.414 
-3.402 -2.264 -1.4985 -3.729 -2.925 -4.63 -2.985 -5.171 -2.3345 -7.746 
-3.793 -2.9195 -4.763 -6.798 -7.014501 -6.1955 -7.7345 -7.369501 -9.261001 
-4.34 -6.5 -7.2695 -11.1159 -8.097001 -11.674 -9.824 -14.761 
-8.1765 -9.037001 -11.6644 -12.1984 -13.6871 -13.7635 -17.2155 
-11.0563 -13.4893 -12.7469 -17.7885 -15.7766 -21.155 
-2.3335 -4.806 -2.186 -1.4985 -3.535 -3.5095 -2.0935 -4.065 -1.756 -4.25 -3.074 
-8.113001 -6.709001 -3.339 -4.255 -8.549001 -5.941501 -6.145 -5.851 -5.5245 -8.203 
-9.332001 -7.684 -5.657 -9.019001 -11.224 -10.5975 -7.894501 -10.4945 -9.225 
-10.4775 -9.583501 -10.426 -12.0052 -15.88 -12.347 -12.9652 -14.5876 
-12.377 -14.6235 -13.4122 -16.6612 -17.6295 -17.4177 -17.0583 
-4.065 -4.58 -4.7195 -3.6215 -1.4985 -4.302 0 
-7.8585 -10.4855 -7.658 -4.094 -5.659 -4.302 
-14.2722 -13.424 -7.982 -8.032001 -5.659 
-17.2107 -13.748 -12.024 -8.032001 
-17.5347 -17.79 -12.024 
